timestamp,quat_x,quat_y,quat_z,quat_w,rot_x,rot_y,rot_z,acc_x,acc_y,acc_z,grav_x,grav_y,grav_z
1760109101.700366,-0.101777,0.054159,-0.000000,0.993332,0.057898,0.001029,0.028685,-0.001484,0.004003,-0.003532,0.107595,0.202196,-0.973417
1760109101.700848,-0.101347,0.054180,0.000198,0.993375,0.069737,-0.002926,0.032554,-0.004007,0.003877,-0.001133,0.107683,0.201330,-0.973586
1760109101.735147,-0.100109,0.054379,0.000493,0.993489,0.090461,0.028753,0.019002,0.002950,0.001937,-0.007402,0.108149,0.198860,-0.974042
1760109101.735513,-0.099455,0.054595,0.000601,0.993543,0.089554,0.040159,0.021204,0.002659,0.002032,-0.005511,0.108605,0.197561,-0.974256
1760109101.766086,-0.101064,0.054439,0.000454,0.993389,0.087325,0.052090,0.012126,0.003053,-0.004608,-0.006234,0.108249,0.200743,-0.973645
1760109101.796488,-0.102351,0.053565,-0.000047,0.993305,0.089387,0.045589,-0.009451,0.003669,-0.014020,0.001264,0.106403,0.203337,-0.973310
1760109101.796814,-0.101537,0.054125,-0.000135,0.993358,0.087174,0.045349,-0.005105,0.004572,-0.013349,0.001369,0.107504,0.201740,-0.973521
1760109101.827677,-0.100813,0.054651,-0.000183,0.993403,0.083681,0.047248,-0.002841,0.004775,-0.014150,-0.000973,0.108543,0.200316,-0.973700
1760109101.858189,-0.098756,0.055776,-0.000264,0.993547,0.072092,0.060375,0.001218,0.004088,-0.016242,-0.006170,0.110780,0.196267,-0.974272
1760109101.858494,-0.097884,0.056055,-0.000306,0.993618,0.069177,0.052128,0.002166,0.003380,-0.018060,-0.001267,0.111335,0.194552,-0.974553
1760109101.890303,-0.097163,0.056289,-0.000351,0.993675,0.068965,0.033763,0.000193,0.001189,-0.016059,-0.000264,0.111797,0.193136,-0.974782
1760109101.921112,-0.095535,0.056915,-0.000392,0.993798,0.039110,0.031960,0.003588,0.006672,-0.009860,-0.010028,0.113049,0.189929,-0.975268
1760109101.921521,-0.094980,0.057214,-0.000356,0.993834,0.022679,0.036493,0.005389,0.006522,-0.006972,-0.007465,0.113654,0.188829,-0.975411
1760109101.958542,-0.094006,0.057725,-0.000245,0.993897,-0.007168,0.020953,0.008611,0.004288,-0.002613,0.001271,0.114700,0.186893,-0.975661
1760109101.958918,-0.093767,0.057779,-0.000195,0.993916,-0.017721,0.016738,0.005341,0.004454,-0.004602,0.000466,0.114818,0.186415,-0.975739
1760109101.986952,-0.093625,0.057938,-0.000152,0.993920,-0.019100,0.018547,0.000603,0.005891,-0.007541,-0.002213,0.115143,0.186129,-0.975755
1760109102.017309,-0.093397,0.058460,-0.000228,0.993911,0.000244,0.016823,-0.012553,0.005819,-0.007764,-0.000398,0.116166,0.185683,-0.975719
1760109102.017643,-0.093300,0.058625,-0.000318,0.993910,0.008386,0.012188,-0.012917,0.006332,-0.005537,0.000954,0.116477,0.185501,-0.975717
1760109102.046699,-0.093118,0.058785,-0.000425,0.993918,0.012249,0.013251,-0.011779,0.007585,-0.003919,0.000409,0.116776,0.185154,-0.975747
1760109102.079124,-0.092428,0.059180,-0.000600,0.993959,0.027944,0.010105,-0.011602,0.008122,-0.001985,0.002512,0.117534,0.183810,-0.975910
1760109102.079438,-0.092043,0.059312,-0.000702,0.993987,0.040485,0.002203,-0.014646,0.007270,-0.001703,0.004155,0.117782,0.183062,-0.976020
1760109102.109044,-0.091635,0.059398,-0.000773,0.994019,0.046841,-0.001356,-0.010522,0.007210,-0.000874,0.002081,0.117943,0.182266,-0.976150
1760109102.141715,-0.090696,0.059540,-0.001008,0.994097,0.059561,-0.014251,-0.010262,0.006649,0.000029,0.000629,0.118193,0.180440,-0.976459
1760109102.142033,-0.090383,0.059583,-0.001052,0.994122,0.054984,-0.024854,-0.004164,0.002940,0.001731,0.002215,0.118276,0.179828,-0.976562
1760109102.175377,-0.089721,0.059383,-0.001050,0.994194,0.042665,-0.035815,0.006048,0.003055,-0.001681,-0.000083,0.117888,0.178525,-0.976848
1760109102.175717,-0.089468,0.059202,-0.000989,0.994228,0.043173,-0.044046,0.012341,0.004005,-0.004009,-0.001755,0.117544,0.178021,-0.976981
1760109102.206233,-0.089223,0.059136,-0.000877,0.994254,0.042558,-0.033880,0.015526,0.005246,-0.007635,-0.004474,0.117435,0.177524,-0.977084
1760109102.236686,-0.088656,0.059064,-0.000596,0.994309,0.035888,-0.005443,0.015347,0.003686,-0.011776,-0.005956,0.117350,0.176374,-0.977303
1760109102.236970,-0.088505,0.059068,-0.000467,0.994323,0.020477,-0.003386,0.023705,0.001205,-0.009415,-0.003994,0.117383,0.176060,-0.977356
1760109102.267684,-0.088429,0.059111,-0.000278,0.994327,0.007390,-0.011067,0.020005,-0.001225,-0.010957,-0.001616,0.117501,0.175887,-0.977373
1760109102.304248,-0.088291,0.059047,-0.000041,0.994343,-0.020214,-0.016551,0.000520,0.001436,-0.010664,-0.004843,0.117419,0.175588,-0.977436
1760109102.305245,-0.088588,0.058928,-0.000044,0.994324,-0.047529,-0.014478,-0.005470,-0.000364,-0.007423,-0.002742,0.117180,0.176176,-0.977359
1760109102.335296,-0.088873,0.058841,-0.000068,0.994303,-0.055910,-0.009753,-0.010108,-0.001050,-0.008761,-0.002985,0.116999,0.176741,-0.977279
1760109102.335626,-0.089157,0.058753,-0.000092,0.994283,-0.064291,-0.005029,-0.014746,-0.001737,-0.010099,-0.003229,0.116819,0.177306,-0.977198
1760109102.365176,-0.089423,0.058659,-0.000172,0.994265,-0.060222,-0.016800,-0.015515,-0.003267,-0.007974,0.002348,0.116614,0.177840,-0.977126
1760109102.400473,-0.090039,0.058309,-0.000339,0.994230,-0.057655,-0.013177,-0.014175,0.000381,-0.000825,-0.003856,0.115884,0.179079,-0.976986
1760109102.400784,-0.090313,0.058294,-0.000369,0.994206,-0.060623,-0.003621,-0.006868,0.001030,0.001530,-0.003050,0.115845,0.179623,-0.976891
1760109102.435068,-0.090881,0.058187,-0.000395,0.994160,-0.051566,-0.000486,-0.008785,-0.001741,0.000374,0.001645,0.115623,0.180747,-0.976710
1760109102.435354,-0.091086,0.058037,-0.000443,0.994150,-0.039168,-0.013399,-0.016557,-0.000004,0.001260,0.001398,0.115314,0.181158,-0.976670
1760109102.467829,-0.091260,0.057996,-0.000515,0.994137,-0.033901,-0.005935,-0.012149,0.002132,0.002310,-0.001530,0.115218,0.181509,-0.976616
1760109102.498786,-0.091682,0.058034,-0.000618,0.994096,-0.017118,0.004254,-0.003041,0.000689,0.004864,-0.000633,0.115270,0.182352,-0.976453
1760109102.499098,-0.091735,0.057999,-0.000626,0.994093,-0.003559,-0.006876,-0.001310,-0.000913,0.002091,0.003338,0.115198,0.182459,-0.976442
1760109102.527934,-0.091700,0.057908,-0.000638,0.994101,0.005000,-0.007659,-0.000121,0.000240,0.001520,0.002319,0.115016,0.182392,-0.976475
1760109102.571429,-0.091495,0.057887,-0.000614,0.994121,0.014558,0.002004,0.006253,0.002114,0.002169,-0.002384,0.114981,0.181984,-0.976556
1760109102.571826,-0.091442,0.057888,-0.000569,0.994126,0.016259,-0.002091,0.006041,0.001311,0.002082,-0.000808,0.114993,0.181877,-0.976574
1760109102.573448,-0.091318,0.057871,-0.000477,0.994139,0.006585,-0.002037,0.009251,0.000681,0.001285,-0.001333,0.114977,0.181620,-0.976624
1760109102.604098,-0.091317,0.057880,-0.000412,0.994138,0.002991,0.002744,0.006851,0.001636,0.000935,-0.003843,0.115005,0.181612,-0.976622
1760109102.634125,-0.091403,0.058049,-0.000348,0.994120,-0.005672,0.006262,-0.001333,0.002734,-0.002567,-0.002056,0.115352,0.181771,-0.976552
1760109102.634438,-0.091457,0.058131,-0.000374,0.994111,-0.008783,0.007305,-0.005607,0.004965,-0.003799,-0.001184,0.115509,0.181880,-0.976513
1760109102.663173,-0.091514,0.058130,-0.000449,0.994106,-0.005708,0.002510,-0.010534,0.003970,-0.003021,-0.000898,0.115492,0.182001,-0.976492
1760109102.705304,-0.091567,0.058142,-0.000651,0.994100,-0.001159,-0.001459,-0.013839,0.004850,-0.001753,0.001472,0.115478,0.182129,-0.976470
1760109102.705727,-0.091557,0.058112,-0.000718,0.994102,-0.000062,-0.006867,-0.012709,0.003126,-0.001540,0.002926,0.115406,0.182117,-0.976481
1760109102.737275,-0.091437,0.057938,-0.000860,0.994123,0.006597,-0.023575,-0.006115,0.001877,0.001098,0.003380,0.115038,0.181899,-0.976565
1760109102.737609,-0.091375,0.057828,-0.000859,0.994136,0.003523,-0.015939,0.003032,0.002705,0.001773,-0.000162,0.114822,0.181777,-0.976613
1760109102.767856,-0.091283,0.057760,-0.000785,0.994148,0.010859,-0.022364,0.005883,0.000824,0.000081,0.000693,0.114700,0.181588,-0.976663
1760109102.798174,-0.091027,0.057438,-0.000642,0.994190,0.015320,-0.021135,0.006810,0.000980,-0.001883,-0.002454,0.114091,0.181069,-0.976830
1760109102.798432,-0.090919,0.057324,-0.000617,0.994207,0.018326,-0.022133,0.003580,0.001375,-0.002502,-0.001895,0.113872,0.180854,-0.976896
1760109102.832598,-0.090744,0.057162,-0.000585,0.994232,0.011264,-0.011689,-0.003326,0.000762,-0.002132,0.000042,0.113558,0.180508,-0.976996
1760109102.832990,-0.090672,0.057054,-0.000612,0.994245,0.010764,-0.016571,-0.009963,-0.001249,-0.002477,0.002666,0.113340,0.180370,-0.977047
1760109102.863610,-0.090606,0.056936,-0.000674,0.994258,0.004228,-0.017241,-0.011918,-0.000392,-0.001381,-0.000336,0.113095,0.180248,-0.977098
1760109102.900211,-0.090635,0.056666,-0.000776,0.994270,-0.014305,-0.016224,-0.009047,0.000146,0.000407,-0.003561,0.112541,0.180320,-0.977148
1760109102.900441,-0.090732,0.056558,-0.000767,0.994268,-0.019871,-0.029662,-0.002702,-0.002320,0.000375,0.000142,0.112329,0.180510,-0.977138
1760109102.936569,-0.091082,0.056109,-0.000775,0.994261,-0.032866,-0.033219,-0.002560,-0.002395,-0.001379,-0.004126,0.111432,0.181205,-0.977112
1760109102.936819,-0.091321,0.055946,-0.000718,0.994248,-0.040516,-0.024206,0.005588,-0.001101,-0.001810,-0.004794,0.111117,0.181671,-0.977061
1760109102.967279,-0.091544,0.055801,-0.000662,0.994236,-0.033239,-0.019233,0.001209,-0.000840,-0.004804,-0.004309,0.110838,0.182107,-0.977012
1760109102.997970,-0.092002,0.055645,-0.000665,0.994202,-0.025595,0.000099,-0.008438,-0.001112,-0.004595,-0.004275,0.110522,0.183012,-0.976878
1760109102.998310,-0.092204,0.055618,-0.000681,0.994185,-0.039042,0.006629,-0.002946,-0.001049,0.001539,-0.005557,0.110463,0.183411,-0.976810
1760109103.033526,-0.092842,0.055667,-0.000697,0.994123,-0.051425,0.001559,-0.006529,-0.002886,0.002330,-0.001259,0.110550,0.184671,-0.976563
1760109103.033857,-0.093106,0.055657,-0.000735,0.994099,-0.047684,0.001299,-0.012531,-0.002859,0.000361,-0.001156,0.110521,0.185195,-0.976467
1760109103.063140,-0.093362,0.055683,-0.000788,0.994074,-0.046705,0.008590,-0.011218,-0.000964,0.001537,-0.001834,0.110560,0.185705,-0.976366
1760109103.095487,-0.093991,0.055773,-0.001005,0.994009,-0.029801,0.004096,-0.015375,-0.002296,-0.001046,0.002158,0.110688,0.186967,-0.976110
1760109103.095729,-0.094156,0.055717,-0.001133,0.993996,-0.021356,-0.002452,-0.022738,-0.003325,0.000231,0.002835,0.110552,0.187307,-0.976061
1760109103.126184,-0.094270,0.055657,-0.001253,0.993989,-0.017509,-0.005810,-0.017845,-0.003287,0.003322,0.000701,0.110409,0.187545,-0.976031
1760109103.157585,-0.094573,0.055565,-0.001453,0.993965,-0.022012,0.003227,-0.009390,-0.000657,0.005812,-0.006240,0.110184,0.188166,-0.975937
1760109103.157894,-0.094714,0.055597,-0.001499,0.993950,-0.021204,0.003916,-0.004663,0.000178,0.004562,-0.001412,0.110237,0.188448,-0.975877
1760109103.194261,-0.094981,0.055490,-0.001598,0.993930,-0.014685,-0.007353,-0.007483,-0.003868,0.002629,0.000785,0.110002,0.188986,-0.975799
1760109103.194571,-0.095065,0.055381,-0.001655,0.993928,-0.010493,-0.002922,-0.007061,0.001305,0.004308,-0.001772,0.109775,0.189158,-0.975791
1760109103.224835,-0.095170,0.055369,-0.001665,0.993918,-0.012713,-0.000017,-0.002373,0.001601,0.005328,-0.003712,0.109748,0.189368,-0.975754
1760109103.252916,-0.095499,0.055544,-0.001605,0.993877,-0.012590,0.013834,0.005162,-0.001661,0.003002,-0.002384,0.110101,0.190007,-0.975590
1760109103.253219,-0.095557,0.055578,-0.001604,0.993870,0.002173,-0.000407,-0.004809,-0.001507,-0.002241,0.003877,0.110168,0.190120,-0.975560
1760109103.283922,-0.095544,0.055558,-0.001653,0.993872,0.004808,0.004945,-0.007590,0.000524,-0.001648,0.001199,0.110119,0.190100,-0.975570
1760109103.316362,-0.095468,0.055687,-0.001813,0.993872,0.008094,0.006059,-0.006337,0.000891,0.002182,-0.000954,0.110346,0.189968,-0.975570
1760109103.316657,-0.095458,0.055756,-0.001894,0.993869,0.006034,0.011596,-0.007861,0.001321,0.003009,-0.001861,0.110466,0.189957,-0.975558
1760109103.345487,-0.095443,0.055789,-0.001976,0.993868,0.003691,0.005964,-0.008051,0.000160,0.004383,0.000300,0.110516,0.189936,-0.975556
1760109103.377139,-0.095511,0.055815,-0.002118,0.993860,-0.009253,-0.001274,-0.005100,0.000530,0.007220,0.000780,0.110541,0.190086,-0.975524
1760109103.377433,-0.095595,0.055775,-0.002165,0.993854,-0.014464,0.000463,-0.004102,0.002121,0.007181,-0.000388,0.110450,0.190256,-0.975502
1760109103.412512,-0.095874,0.055848,-0.002207,0.993823,-0.014739,0.005331,-0.004936,0.002619,0.004457,-0.000520,0.110583,0.190811,-0.975378
1760109103.412940,-0.095996,0.055865,-0.002257,0.993810,-0.006806,0.003712,-0.002646,0.001691,0.001674,-0.000524,0.110606,0.191056,-0.975328
1760109103.442422,-0.096019,0.055890,-0.002284,0.993806,0.003418,-0.000651,-0.005498,0.001250,0.000816,0.000382,0.110650,0.191104,-0.975313
1760109103.472927,-0.095935,0.056010,-0.002435,0.993808,0.012883,0.009730,-0.003087,0.001773,0.003576,0.001050,0.110859,0.190955,-0.975319
1760109103.473273,-0.095832,0.056081,-0.002471,0.993813,0.017929,0.002923,-0.002957,0.000607,0.003449,0.003339,0.110995,0.190755,-0.975342
1760109103.504201,-0.095708,0.056093,-0.002503,0.993825,0.025100,-0.002312,-0.000738,-0.000192,0.003249,0.003714,0.111015,0.190514,-0.975387
1760109103.535440,-0.095259,0.056084,-0.002537,0.993868,0.034076,-0.002988,0.000604,0.000460,0.002459,-0.001690,0.110996,0.189634,-0.975561
1760109103.535809,-0.095013,0.056050,-0.002536,0.993894,0.043880,-0.012266,0.000649,-0.002303,0.002375,0.001738,0.110933,0.189149,-0.975662
1760109103.570338,-0.094396,0.055850,-0.002446,0.993964,0.048454,-0.013272,0.014051,-0.000796,0.003360,-0.000989,0.110564,0.187926,-0.975940
1760109103.600398,-0.094080,0.055798,-0.002321,0.993997,0.050277,-0.009650,0.018073,-0.000624,0.002320,-0.001492,0.110490,0.187290,-0.976071
1760109103.600865,-0.093764,0.055747,-0.002195,0.994030,0.052101,-0.006028,0.022096,-0.000452,0.001280,-0.001995,0.110416,0.186654,-0.976201
1760109103.632899,-0.092966,0.055700,-0.001917,0.994108,0.046635,-0.004883,0.013916,-0.000543,-0.001273,-0.001419,0.110388,0.185049,-0.976510
1760109103.633222,-0.092709,0.055689,-0.001842,0.994133,0.041197,-0.002135,0.012049,-0.001128,-0.001077,-0.001518,0.110383,0.184535,-0.976608
1760109103.662242,-0.092456,0.055643,-0.001827,0.994159,0.041037,-0.007867,0.001122,-0.001707,-0.001856,0.000294,0.110297,0.184035,-0.976712
1760109103.694391,-0.091909,0.055517,-0.001902,0.994217,0.031124,0.000798,-0.004327,0.000304,-0.003224,-0.004925,0.110042,0.182966,-0.976941
1760109103.694717,-0.091724,0.055565,-0.001927,0.994231,0.028772,0.019066,-0.003733,0.001423,-0.006021,-0.008814,0.110135,0.182604,-0.976999
1760109103.723890,-0.091495,0.055754,-0.002010,0.994241,0.034462,0.027558,-0.008445,0.001033,-0.006520,-0.006934,0.110498,0.182160,-0.977040
1760109103.781584,-0.090966,0.056224,-0.002221,0.994263,0.026617,0.031731,-0.009775,-0.001241,0.000257,-0.003776,0.111398,0.181138,-0.977128
1760109103.782010,-0.090879,0.056451,-0.002263,0.994258,0.018244,0.029242,-0.009922,-0.001372,-0.000231,-0.001742,0.111843,0.180969,-0.977109
1760109103.782627,-0.090791,0.056678,-0.002305,0.994253,0.009871,0.026754,-0.010068,-0.001502,-0.000718,0.000293,0.112287,0.180800,-0.977089
1760109103.811829,-0.090615,0.057059,-0.002516,0.994247,0.005843,0.023815,-0.012805,-0.000281,-0.000366,0.000934,0.113005,0.180474,-0.977066
1760109103.851129,-0.090562,0.057165,-0.002611,0.994245,0.010084,0.019584,-0.012444,-0.000930,-0.000491,0.002418,0.113200,0.180380,-0.977061
1760109103.851553,-0.090509,0.057272,-0.002706,0.994244,0.014325,0.015354,-0.012084,-0.001579,-0.000615,0.003901,0.113395,0.180287,-0.977056
1760109103.852213,-0.090205,0.057404,-0.002965,0.994263,0.034918,0.002995,-0.017071,-0.001485,-0.000966,0.006782,0.113615,0.179716,-0.977136
1760109103.881677,-0.089967,0.057354,-0.003085,0.994287,0.035863,-0.005289,-0.012775,-0.001449,0.002987,0.001856,0.113498,0.179260,-0.977233
1760109103.914419,-0.089553,0.057349,-0.003137,0.994325,0.014125,0.008976,0.008143,0.000980,0.008715,-0.006485,0.113486,0.178449,-0.977383
1760109103.914715,-0.089427,0.057361,-0.003076,0.994335,0.010972,0.002917,0.014785,-0.003000,0.006489,-0.004547,0.113521,0.178194,-0.977425
1760109103.944775,-0.089317,0.057354,-0.002969,0.994346,0.022540,-0.004987,0.013980,-0.002843,0.003071,-0.002045,0.113530,0.177965,-0.977466
1760109103.983588,-0.088984,0.057457,-0.002761,0.994371,0.022377,0.018962,0.012021,0.001567,0.001905,-0.005467,0.113775,0.177283,-0.977561
1760109103.983921,-0.088903,0.057555,-0.002696,0.994372,0.020095,0.020497,0.015334,0.001464,0.002715,-0.003279,0.113983,0.177116,-0.977567
1760109104.014386,-0.088698,0.057831,-0.002517,0.994375,0.017177,0.013084,0.015128,-0.000234,-0.000200,0.003792,0.114565,0.176689,-0.977576
1760109104.014699,-0.088549,0.057868,-0.002459,0.994386,0.023087,0.002014,0.009783,-0.000020,-0.003308,0.004952,0.114651,0.176389,-0.977621
1760109104.044181,-0.088390,0.057900,-0.002415,0.994399,0.024162,0.001950,0.006847,0.001502,-0.003104,0.000847,0.114725,0.176069,-0.977670
1760109104.075396,-0.088010,0.058006,-0.002332,0.994426,0.026638,0.007657,0.007579,0.002371,-0.001853,-0.003463,0.114954,0.175310,-0.977779
1760109104.075873,-0.087830,0.058062,-0.002292,0.994439,0.030824,-0.000518,0.007699,-0.000162,-0.001980,-0.001054,0.115075,0.174949,-0.977829
1760109104.106934,-0.087637,0.058094,-0.002231,0.994454,0.028933,0.005430,0.012726,0.000607,-0.000625,-0.004010,0.115152,0.174562,-0.977890
1760109104.139263,-0.087191,0.058303,-0.001968,0.994482,0.020405,0.020833,0.029499,0.000184,0.003376,-0.005829,0.115620,0.173649,-0.977997
1760109104.139595,-0.087039,0.058509,-0.001771,0.994484,0.019718,0.027571,0.038904,0.000088,0.002473,-0.003113,0.116065,0.173325,-0.978002
1760109104.171669,-0.086662,0.059094,-0.001206,0.994483,0.021522,0.044639,0.035702,0.003315,-0.008373,-0.002509,0.117326,0.172509,-0.977996
1760109104.202892,-0.086469,0.059424,-0.001133,0.994480,0.025482,0.048197,0.018994,0.003447,-0.009871,-0.002438,0.117996,0.172117,-0.977984
1760109104.203145,-0.086276,0.059754,-0.001059,0.994477,0.029441,0.051756,0.002286,0.003579,-0.011369,-0.002368,0.118666,0.171726,-0.977972
1760109104.232755,-0.085854,0.060476,-0.001345,0.994470,0.025352,0.042080,-0.024160,0.003199,-0.010054,0.000366,0.120052,0.170922,-0.977943
1760109104.233086,-0.085676,0.060752,-0.001589,0.994468,0.019347,0.031720,-0.026546,-0.000054,-0.005879,0.001638,0.120559,0.170598,-0.977938
1760109104.262808,-0.085503,0.060892,-0.001724,0.994474,0.016475,0.016267,-0.016167,0.001006,-0.003804,0.003102,0.120817,0.170271,-0.977963
1760109104.296675,-0.085152,0.060976,-0.001800,0.994499,0.010820,-0.009522,0.003535,0.002903,-0.004083,0.002570,0.120975,0.169587,-0.978062
1760109104.296933,-0.085057,0.060908,-0.001779,0.994511,0.007584,-0.019220,0.003523,0.003421,-0.006501,0.002338,0.120845,0.169397,-0.978111
1760109104.333112,-0.084966,0.060580,-0.001689,0.994539,-0.002806,-0.023695,0.006773,0.003253,-0.007508,-0.000799,0.120211,0.169209,-0.978222
1760109104.333480,-0.084967,0.060413,-0.001643,0.994549,-0.003821,-0.026274,0.007680,0.001016,-0.009679,-0.000100,0.119888,0.169207,-0.978262
1760109104.362577,-0.084989,0.060286,-0.001583,0.994555,-0.003147,-0.025616,0.005007,0.000602,-0.010104,0.001269,0.119646,0.169244,-0.978285
1760109104.392256,-0.085049,0.059875,-0.001490,0.994575,-0.015035,-0.024717,0.000290,0.001625,-0.006396,-0.003560,0.118846,0.169354,-0.978363
1760109104.426248,-0.085194,0.059794,-0.001466,0.994567,-0.025267,-0.021074,0.000114,0.000892,-0.004783,-0.002997,0.118688,0.169637,-0.978333
1760109104.426559,-0.085338,0.059713,-0.001442,0.994560,-0.035500,-0.017431,-0.000063,0.000159,-0.003170,-0.002433,0.118530,0.169921,-0.978303
1760109104.457865,-0.085930,0.059458,-0.001413,0.994524,-0.047767,-0.020986,-0.003216,-0.001455,-0.004184,-0.000850,0.118023,0.171087,-0.978162
1760109104.458242,-0.086199,0.059270,-0.001402,0.994512,-0.048676,-0.027113,-0.002168,-0.001552,-0.002773,-0.001377,0.117647,0.171619,-0.978114
1760109104.497019,-0.086839,0.059039,-0.001205,0.994471,-0.050191,-0.004192,0.016729,0.002239,0.001353,-0.008725,0.117215,0.172861,-0.977947
1760109104.497308,-0.087105,0.059046,-0.001076,0.994447,-0.054509,0.010681,0.021781,0.003326,0.002252,-0.009814,0.117249,0.173370,-0.977852
1760109104.526983,-0.087419,0.059175,-0.000901,0.994412,-0.054932,0.015130,0.026391,0.001966,0.002027,-0.005329,0.117531,0.173967,-0.977713
1760109104.544029,-0.087860,0.059346,-0.000671,0.994363,-0.045745,0.010396,0.014370,-0.000241,-0.001701,-0.001095,0.117905,0.174809,-0.977517
1760109104.573122,-0.088469,0.059387,-0.000563,0.994307,-0.027873,-0.001504,-0.009001,0.001636,-0.000443,0.001772,0.117999,0.175998,-0.977293
1760109104.573424,-0.088673,0.059384,-0.000619,0.994289,-0.031343,0.001659,-0.007762,0.003510,0.004454,0.000368,0.117980,0.176406,-0.977221
1760109104.603815,-0.088874,0.059410,-0.000647,0.994269,-0.025952,0.003587,-0.005217,0.002867,0.002951,0.001197,0.118025,0.176805,-0.977144
1760109104.634271,-0.089056,0.059193,-0.000666,0.994266,-0.003820,-0.024580,-0.001258,-0.000671,0.004554,0.006746,0.117589,0.177170,-0.977130
1760109104.634555,-0.089052,0.059028,-0.000646,0.994276,-0.005114,-0.023152,0.009145,0.000807,0.006088,0.001075,0.117266,0.177161,-0.977171
1760109104.664813,-0.089071,0.058922,-0.000555,0.994281,-0.006033,-0.021002,0.011239,0.001969,0.005824,-0.002510,0.117071,0.177189,-0.977189
1760109104.703214,-0.089317,0.058621,-0.000162,0.994277,-0.003526,-0.020668,0.004687,-0.001675,-0.001626,0.000523,0.116542,0.177630,-0.977172
1760109104.733485,-0.089287,0.058453,-0.000197,0.994289,0.000076,-0.010917,0.002649,-0.000187,0.000435,-0.001105,0.116202,0.177576,-0.977222
1760109104.764351,-0.089291,0.058394,-0.000184,0.994292,0.000975,-0.004289,0.004215,-0.000869,0.002304,-0.001125,0.116089,0.177584,-0.977234
1760109104.764654,-0.089236,0.058323,-0.000160,0.994301,0.007809,-0.011166,0.002968,-0.002290,0.001396,0.001605,0.115952,0.177474,-0.977271
1760109104.792156,-0.089131,0.058194,-0.000109,0.994318,0.009022,-0.010197,0.005313,-0.001570,0.001939,-0.000388,0.115707,0.177262,-0.977338
1760109104.822611,-0.089025,0.058132,-0.000037,0.994332,0.011984,-0.005364,0.007330,-0.001412,0.000072,-0.001304,0.115598,0.177045,-0.977391
1760109104.823780,-0.088898,0.058076,0.000015,0.994346,0.016148,-0.003857,0.003137,-0.002043,-0.002457,-0.000727,0.115498,0.176789,-0.977449
1760109104.853324,-0.088757,0.058017,0.000008,0.994362,0.014512,-0.001875,0.000429,-0.001125,-0.001911,-0.001050,0.115381,0.176513,-0.977512
1760109104.883722,-0.088672,0.057954,-0.000005,0.994373,0.007046,-0.001623,-0.000480,-0.001597,-0.001332,-0.001367,0.115255,0.176347,-0.977557
1760109104.886369,-0.088659,0.057983,-0.000042,0.994373,-0.003875,0.005345,-0.000961,-0.000990,-0.000955,-0.003174,0.115305,0.176324,-0.977555
1760109104.918161,-0.088735,0.058031,-0.000087,0.994363,-0.012186,0.007544,-0.005139,-0.000718,-0.001870,-0.002948,0.115393,0.176480,-0.977517
1760109104.921881,-0.088873,0.058095,-0.000185,0.994347,-0.016512,0.007226,-0.008586,-0.000517,-0.001235,-0.001102,0.115500,0.176762,-0.977453
1760109104.950304,-0.089062,0.058139,-0.000286,0.994328,-0.020389,0.008394,-0.009904,0.000620,-0.001268,-0.000730,0.115568,0.177147,-0.977376
1760109104.981110,-0.089268,0.058203,-0.000402,0.994305,-0.020329,0.007572,-0.012322,0.000907,-0.001566,0.000496,0.115672,0.177566,-0.977287
1760109104.983237,-0.089461,0.058265,-0.000524,0.994284,-0.018762,0.005910,-0.012494,0.001378,-0.001078,0.000402,0.115770,0.177961,-0.977204
1760109105.012124,-0.089628,0.058312,-0.000651,0.994267,-0.015401,0.004228,-0.010705,0.001725,-0.000134,0.001054,0.115839,0.178304,-0.977133
1760109105.058943,-0.089738,0.058307,-0.000735,0.994257,-0.012412,0.002060,-0.007855,0.001398,0.000567,0.000466,0.115811,0.178531,-0.977095
1760109105.059279,-0.089848,0.058301,-0.000819,0.994247,-0.009424,-0.000109,-0.005006,0.001071,0.001267,-0.000122,0.115783,0.178758,-0.977057
1760109105.059750,-0.089926,0.058303,-0.000838,0.994240,-0.007382,0.002375,-0.000109,0.001292,0.001857,-0.002159,0.115783,0.178915,-0.977028
1760109105.098706,-0.089977,0.058307,-0.000837,0.994235,-0.004365,-0.000835,0.000646,0.000686,0.001256,-0.000697,0.115790,0.179014,-0.977009
1760109105.099044,-0.090014,0.058311,-0.000826,0.994232,-0.002213,0.000376,0.002422,0.000499,0.000929,-0.000688,0.115801,0.179086,-0.976995
1760109105.131584,-0.090044,0.058330,-0.000780,0.994228,-0.001287,0.000252,0.002580,0.000213,-0.000670,0.000802,0.115846,0.179139,-0.976979
1760109105.161041,-0.090054,0.058308,-0.000756,0.994228,-0.001309,-0.002658,-0.000167,-0.000005,-0.000288,0.001092,0.115807,0.179157,-0.976981
1760109105.162417,-0.090106,0.058300,-0.000753,0.994224,-0.006370,-0.001630,0.001229,0.000726,0.001504,-0.000530,0.115791,0.179258,-0.976964
1760109105.217959,-0.090214,0.058227,-0.000724,0.994218,-0.009304,-0.007827,0.000839,0.000257,0.000565,0.000117,0.115651,0.179470,-0.976942
1760109105.218328,-0.090323,0.058155,-0.000694,0.994213,-0.012238,-0.014024,0.000450,-0.000212,-0.000373,0.000763,0.115511,0.179681,-0.976920
1760109105.218994,-0.090452,0.058014,-0.000662,0.994209,-0.015458,-0.011109,0.003328,0.001008,-0.000926,-0.001245,0.115237,0.179934,-0.976905
1760109105.249007,-0.090620,0.057970,-0.000621,0.994197,-0.017984,-0.001037,0.001942,0.003210,-0.000969,-0.004887,0.115154,0.180260,-0.976855
1760109105.279152,-0.090848,0.058050,-0.000566,0.994171,-0.029000,0.016173,0.006451,0.003601,0.000372,-0.006441,0.115320,0.180702,-0.976754
1760109105.282387,-0.091205,0.058259,-0.000523,0.994126,-0.042178,0.024020,0.003034,0.001939,0.000106,-0.004500,0.115738,0.181400,-0.976575
1760109105.315182,-0.091662,0.058501,-0.000563,0.994070,-0.048321,0.023163,-0.008591,0.001374,-0.001243,-0.000914,0.116205,0.182302,-0.976351
1760109105.317311,-0.092120,0.058673,-0.000706,0.994018,-0.046976,0.011413,-0.016585,0.000804,-0.000645,0.001790,0.116514,0.183221,-0.976143
1760109105.346740,-0.092592,0.058736,-0.000841,0.993970,-0.047032,0.005268,-0.010934,0.001139,0.002876,0.002644,0.116607,0.184166,-0.975954
1760109105.377471,-0.093010,0.058692,-0.000872,0.993933,-0.037861,-0.009152,-0.001112,-0.000451,0.003603,0.005034,0.116509,0.184993,-0.975809
1760109105.378449,-0.093320,0.058554,-0.000803,0.993913,-0.027766,-0.018692,0.009724,0.000988,0.002836,0.003986,0.116246,0.185597,-0.975726
1760109105.408868,-0.093526,0.058352,-0.000648,0.993905,-0.018261,-0.020184,0.012488,0.000497,0.002484,0.000727,0.115872,0.185988,-0.975696
1760109105.438242,-0.093667,0.058163,-0.000507,0.993903,-0.011449,-0.020117,0.008206,0.001570,0.002651,-0.001372,0.115523,0.186250,-0.975687
1760109105.441895,-0.093769,0.057942,-0.000422,0.993906,-0.010623,-0.020825,0.005850,0.001604,0.003656,-0.001004,0.115098,0.186444,-0.975700
1760109105.472393,-0.093869,0.057699,-0.000333,0.993911,-0.002965,-0.030527,0.008543,0.001360,0.002288,0.000333,0.114633,0.186634,-0.975719
1760109105.501370,-0.093861,0.057478,-0.000258,0.993925,0.009399,-0.023340,0.000927,0.003529,-0.001430,-0.002242,0.114209,0.186612,-0.975773
1760109105.503730,-0.093725,0.057266,-0.000226,0.993950,0.015377,-0.016155,0.003865,0.004091,0.001224,-0.001886,0.113798,0.186341,-0.975872
1760109105.537666,-0.093620,0.057164,-0.000130,0.993965,0.013488,-0.017416,0.010707,0.001255,0.003499,0.002218,0.113614,0.186125,-0.975935
1760109105.539576,-0.093463,0.056949,0.000010,0.993993,0.019124,-0.030260,0.010312,-0.000548,0.000457,0.005392,0.113215,0.185802,-0.976043
1760109105.568146,-0.093238,0.056640,0.000138,0.994031,0.021641,-0.037007,0.009398,0.000009,0.000123,0.004054,0.112629,0.185348,-0.976197
1760109105.598868,-0.093047,0.056325,0.000263,0.994067,0.017032,-0.034339,0.008541,0.001001,0.000117,-0.000578,0.112030,0.184961,-0.976339
1760109105.600114,-0.092937,0.056030,0.000357,0.994094,0.009989,-0.031462,0.007308,0.000801,-0.000055,-0.002457,0.111465,0.184737,-0.976447
1760109105.630001,-0.092900,0.055761,0.000448,0.994113,0.001663,-0.024538,0.007929,0.000830,0.000604,-0.002601,0.110948,0.184656,-0.976521
1760109105.659151,-0.092895,0.055557,0.000547,0.994125,0.000676,-0.020716,0.005627,0.000324,-0.000090,-0.001571,0.110564,0.184638,-0.976568
1760109105.661174,-0.092920,0.055373,0.000629,0.994132,-0.002914,-0.021030,0.005686,-0.001151,0.000784,-0.001343,0.110213,0.184680,-0.976599
1760109105.694212,-0.092993,0.055213,0.000716,0.994134,-0.013687,-0.013436,0.008448,0.000799,0.002666,-0.003920,0.109911,0.184815,-0.976608
1760109105.695086,-0.093170,0.055097,0.000839,0.994124,-0.021976,-0.009607,0.009955,-0.000762,0.002392,-0.002792,0.109703,0.185153,-0.976567
1760109105.726511,-0.093406,0.054997,0.000938,0.994107,-0.024257,-0.009135,0.005664,-0.001255,0.000222,-0.001001,0.109521,0.185608,-0.976501
1760109105.762030,-0.093642,0.054899,0.001003,0.994091,-0.025203,-0.009735,0.001480,-0.002408,-0.000074,0.000023,0.109338,0.186067,-0.976435
1760109105.762869,-0.093923,0.054813,0.001023,0.994069,-0.028527,-0.005112,-0.000378,-0.002127,0.001096,-0.001716,0.109168,0.186620,-0.976348
1760109105.793096,-0.094233,0.054757,0.001042,0.994043,-0.027331,-0.005470,-0.002206,-0.001852,0.000796,-0.001693,0.109058,0.187230,-0.976244
1760109105.796863,-0.094509,0.054697,0.001038,0.994020,-0.025235,-0.000623,-0.002299,-0.002294,-0.000334,-0.003618,0.108936,0.187774,-0.976153
1760109105.826230,-0.094737,0.054668,0.001042,0.994000,-0.020943,0.001277,-0.002574,-0.001730,-0.001110,-0.002849,0.108876,0.188223,-0.976073
1760109105.856054,-0.094935,0.054668,0.001005,0.993981,-0.015642,0.001826,-0.002932,-0.001410,-0.001090,-0.002126,0.108868,0.188616,-0.975998
1760109105.858223,-0.095083,0.054666,0.000938,0.993967,-0.012061,0.003282,-0.007552,-0.000942,-0.001585,-0.001341,0.108850,0.188917,-0.975942
1760109105.888617,-0.095188,0.054691,0.000834,0.993955,-0.010473,0.007138,-0.009824,-0.000376,-0.001133,-0.001725,0.108879,0.189134,-0.975896
1760109105.917887,-0.095289,0.054805,0.000700,0.993940,-0.009735,0.014462,-0.013427,-0.000325,-0.002452,-0.000327,0.109079,0.189347,-0.975833
1760109105.919868,-0.095359,0.054906,0.000499,0.993927,-0.006436,0.013617,-0.020526,-0.000459,-0.002996,-0.002016,0.109240,0.189506,-0.975784
1760109105.949544,-0.095446,0.055039,0.000289,0.993912,-0.012335,0.015691,-0.015798,0.000000,0.000176,-0.002489,0.109463,0.189698,-0.975722
1760109105.982516,-0.095566,0.055126,0.000176,0.993895,-0.013197,0.007226,-0.009071,-0.000543,-0.001738,-0.001499,0.109612,0.189945,-0.975657
1760109105.989289,-0.095665,0.055134,0.000118,0.993885,-0.009979,-0.001008,-0.002181,0.000513,-0.004640,0.000788,0.109617,0.190147,-0.975617
1760109106.019774,-0.095736,0.055102,0.000138,0.993880,-0.007982,-0.004906,0.004099,0.001535,-0.007330,-0.000725,0.109556,0.190285,-0.975597
1760109106.020075,-0.095777,0.055057,0.000159,0.993879,-0.003327,-0.000679,0.003344,0.004359,-0.009326,-0.003319,0.109470,0.190364,-0.975591
1760109106.048075,-0.095831,0.055109,0.000189,0.993871,-0.009240,0.007912,0.002215,0.003669,-0.009167,-0.004450,0.109579,0.190466,-0.975559
1760109106.077860,-0.095944,0.055185,0.000206,0.993856,-0.020739,0.005853,0.001420,0.001218,-0.005163,-0.001612,0.109731,0.190686,-0.975499
1760109106.081111,-0.096175,0.055225,0.000233,0.993831,-0.033479,0.000202,0.002459,0.000323,-0.004649,-0.000635,0.109813,0.191137,-0.975401
1760109106.111207,-0.096499,0.055200,0.000291,0.993801,-0.045132,0.000477,0.002645,0.001436,-0.005731,-0.001454,0.109772,0.191769,-0.975282
1760109106.115807,-0.096927,0.055208,0.000375,0.993759,-0.054155,-0.002174,0.006166,0.000948,-0.006696,-0.000391,0.109801,0.192603,-0.975114
1760109106.144914,-0.097403,0.055175,0.000461,0.993714,-0.052205,-0.007770,0.004974,0.000999,-0.010055,0.002996,0.109745,0.193530,-0.974937
1760109106.174907,-0.097860,0.055056,0.000506,0.993676,-0.047534,-0.014767,0.000573,0.001021,-0.011547,0.004499,0.109515,0.194427,-0.974784
1760109106.176023,-0.098267,0.054924,0.000561,0.993643,-0.044976,-0.016403,-0.001375,0.000871,-0.012151,0.002794,0.109259,0.195224,-0.974654
1760109106.210193,-0.098648,0.054792,0.000598,0.993613,-0.043660,-0.007419,0.002004,0.002264,-0.012084,-0.002449,0.109003,0.195971,-0.974533
1760109106.216816,-0.098962,0.054740,0.000655,0.993584,-0.035692,-0.007547,0.000130,0.000106,-0.014806,-0.000739,0.108907,0.196581,-0.974420
1760109106.246816,-0.099197,0.054631,0.000655,0.993567,-0.026256,-0.016113,-0.004071,-0.002961,-0.015706,-0.000719,0.108688,0.197045,-0.974351
1760109106.276321,-0.099374,0.054541,0.000639,0.993554,-0.026208,-0.006238,-0.003296,-0.000382,-0.013723,-0.005337,0.108505,0.197397,-0.974300
1760109106.278204,-0.099601,0.054599,0.000680,0.993528,-0.036938,0.009862,0.007407,0.000480,-0.011944,-0.007449,0.108627,0.197839,-0.974197
1760109106.316251,-0.099904,0.054733,0.000792,0.993490,-0.040753,0.014157,0.008421,-0.001265,-0.014979,-0.003382,0.108911,0.198421,-0.974047
1760109106.352613,-0.100119,0.054866,0.000869,0.993461,-0.032738,0.018113,0.009455,-0.000607,-0.020944,-0.001309,0.109189,0.198833,-0.973932
1760109106.352770,-0.100334,0.055000,0.000946,0.993432,-0.024723,0.022069,0.010490,0.000052,-0.026910,0.000765,0.109468,0.199246,-0.973816
1760109106.354617,-0.100403,0.055220,0.001005,0.993413,-0.005269,0.025895,0.004569,0.000286,-0.031143,0.005703,0.109914,0.199371,-0.973740
1760109106.388630,-0.100246,0.055468,0.001005,0.993415,0.014918,0.021167,-0.003025,0.000269,-0.032942,0.008621,0.110408,0.199061,-0.973748
1760109106.427577,-0.099856,0.055686,0.000846,0.993442,0.015947,0.028252,-0.010810,0.002388,-0.029123,0.003196,0.110810,0.198308,-0.973856
1760109106.427842,-0.099466,0.055903,0.000687,0.993469,0.016976,0.035337,-0.018595,0.004507,-0.025303,-0.002230,0.111213,0.197555,-0.973963
1760109106.456818,-0.099141,0.056178,0.000436,0.993486,0.008537,0.036386,-0.029598,0.004988,-0.024756,-0.004184,0.111710,0.196941,-0.974030
1760109106.458639,-0.098907,0.056485,0.000002,0.993492,0.003901,0.035533,-0.052000,0.004946,-0.025269,-0.005027,0.112235,0.196526,-0.974054
1760109106.491157,-0.098771,0.056780,-0.000652,0.993489,-0.003405,0.032778,-0.063121,0.003125,-0.018646,-0.002406,0.112691,0.196329,-0.974041
1760109106.496949,-0.098730,0.057042,-0.001207,0.993477,-0.015824,0.025483,-0.039357,0.001280,-0.007530,0.000145,0.113101,0.196309,-0.973997
1760109106.527089,-0.098836,0.057291,-0.001443,0.993452,-0.032192,0.020178,-0.010710,0.000569,-0.004888,0.000149,0.113546,0.196544,-0.973898
1760109106.557718,-0.099072,0.057513,-0.001482,0.993416,-0.047086,0.022227,0.000089,-0.000094,-0.006986,-0.000547,0.113975,0.197009,-0.973754
1760109106.558000,-0.099450,0.057699,-0.001409,0.993367,-0.060437,0.009512,0.005097,-0.002437,-0.005947,0.008005,0.114353,0.197743,-0.973561
1760109106.585754,-0.100023,0.057704,-0.001309,0.993309,-0.071046,-0.005163,0.010963,-0.003774,-0.004971,0.011157,0.114374,0.198859,-0.973331
1760109106.617660,-0.100696,0.057631,-0.001037,0.993246,-0.069661,-0.020101,0.032563,-0.008195,0.000930,0.014053,0.114275,0.200151,-0.973078
1760109106.617801,-0.101257,0.057385,-0.000447,0.993204,-0.062235,-0.032118,0.075408,-0.008948,0.011058,0.013046,0.113899,0.201188,-0.972908
1760109106.651062,-0.101721,0.057130,0.000626,0.993171,-0.055652,-0.035853,0.125571,-0.005327,0.015293,0.007148,0.113608,0.201982,-0.972778
1760109106.655887,-0.102145,0.056944,0.002092,0.993136,-0.052576,-0.028237,0.148728,-0.001663,0.010456,0.000451,0.113533,0.202650,-0.972647
1760109106.686126,-0.102563,0.056849,0.003597,0.993094,-0.049699,-0.016228,0.137936,0.001129,0.006307,0.000373,0.113651,0.203300,-0.972498
1760109106.714176,-0.103069,0.056779,0.005054,0.993039,-0.052564,-0.020868,0.145486,0.002784,0.011184,0.003342,0.113809,0.204129,-0.972306
1760109106.715263,-0.103602,0.056749,0.006477,0.992977,-0.052091,-0.002973,0.134858,0.007133,0.008202,-0.008880,0.114043,0.205014,-0.972092
1760109106.745311,-0.104114,0.056930,0.007773,0.992904,-0.048543,0.014446,0.123085,0.008894,0.005268,-0.009821,0.114671,0.205865,-0.971839
1760109106.776221,-0.104571,0.057254,0.008840,0.992829,-0.047495,0.023588,0.088555,0.008384,0.000617,-0.002457,0.115537,0.206629,-0.971574
1760109106.776393,-0.105059,0.057494,0.009569,0.992756,-0.049263,0.016200,0.058027,0.008964,0.000545,0.006781,0.116165,0.207495,-0.971314
1760109106.807715,-0.105567,0.057756,0.009970,0.992683,-0.044597,0.013930,0.022403,0.010165,-0.002364,0.010076,0.116772,0.208437,-0.971040
1760109106.813890,-0.105969,0.057985,0.010049,0.992626,-0.035587,0.026033,-0.008357,0.012819,-0.002571,0.004333,0.117246,0.209209,-0.970817
1760109106.842830,-0.106256,0.058320,0.009861,0.992578,-0.024337,0.032815,-0.025771,0.011507,0.000712,0.004709,0.117871,0.209784,-0.970617
1760109106.872837,-0.106496,0.058639,0.009552,0.992536,-0.021597,0.031957,-0.028949,0.006565,0.008248,0.006764,0.118437,0.210283,-0.970440
1760109106.875153,-0.106688,0.058889,0.009286,0.992504,-0.015262,0.010963,-0.021827,0.003486,0.012119,0.015250,0.118876,0.210682,-0.970300
1760109106.906142,-0.106854,0.058987,0.009089,0.992482,-0.018014,0.000685,-0.019640,0.003694,0.013655,0.013593,0.119029,0.211030,-0.970205
1760109106.937292,-0.107069,0.059016,0.008935,0.992458,-0.024641,-0.005999,-0.020293,0.004953,0.012599,0.013592,0.119054,0.211468,-0.970107
1760109106.938683,-0.107415,0.058920,0.008726,0.992428,-0.033485,-0.018759,-0.025976,0.003976,0.013527,0.014124,0.118822,0.212176,-0.969981
1760109106.968566,-0.107953,0.058616,0.008508,0.992390,-0.053276,-0.036714,-0.030974,0.004557,0.018344,0.006380,0.118177,0.213265,-0.969821
1760109106.973432,-0.108728,0.058235,0.008258,0.992330,-0.082698,-0.036021,-0.037520,0.007803,0.022343,-0.006809,0.117372,0.214827,-0.969574
1760109107.013671,-0.109804,0.057925,0.007953,0.992232,-0.104653,-0.031525,-0.046091,0.007375,0.023241,-0.006979,0.116696,0.216980,-0.969176
1760109107.015761,-0.111036,0.057589,0.007572,0.992118,-0.119514,-0.040740,-0.050763,0.002622,0.025555,0.001750,0.115952,0.219449,-0.968709
1760109107.044319,-0.112358,0.057072,0.007131,0.992002,-0.126340,-0.045045,-0.063615,0.006083,0.027749,-0.001901,0.114833,0.222106,-0.968237
1760109107.075393,-0.113760,0.056621,0.006627,0.991871,-0.131786,-0.038922,-0.059553,0.006060,0.033035,-0.008415,0.113830,0.224920,-0.967705
1760109107.078372,-0.115259,0.056295,0.006177,0.991720,-0.140696,-0.028113,-0.053497,0.002052,0.037369,-0.012597,0.113081,0.227914,-0.967092
1760109107.106780,-0.116793,0.055935,0.005776,0.991563,-0.143688,-0.037087,-0.051154,-0.003433,0.040392,-0.007372,0.112275,0.230968,-0.966462
1760109107.114385,-0.118388,0.055542,0.005419,0.991398,-0.149630,-0.036476,-0.043582,-0.002798,0.041968,-0.002762,0.111411,0.234137,-0.965799
1760109107.144553,-0.120017,0.055115,0.005127,0.991227,-0.151073,-0.049707,-0.035530,-0.004872,0.041176,0.002585,0.110494,0.237364,-0.965116
1760109107.174136,-0.121679,0.054576,0.004948,0.991056,-0.152086,-0.052193,-0.031686,-0.006537,0.040710,-0.001739,0.109381,0.240641,-0.964431
1760109107.174473,-0.123344,0.053917,0.004815,0.990886,-0.148265,-0.062522,-0.021433,-0.008755,0.042806,-0.004655,0.108040,0.243920,-0.963759
1760109107.207597,-0.124973,0.053279,0.004790,0.990717,-0.141055,-0.065876,-0.012298,-0.009471,0.042699,-0.004892,0.106766,0.247115,-0.963086
1760109107.214393,-0.126509,0.052587,0.004842,0.990559,-0.134650,-0.063091,-0.006651,-0.010054,0.042760,-0.006734,0.105406,0.250121,-0.962460
1760109107.244357,-0.127944,0.051905,0.004921,0.990410,-0.116435,-0.061918,-0.007120,-0.010050,0.040046,-0.003038,0.104073,0.252924,-0.961872
1760109107.273994,-0.129182,0.051242,0.005003,0.990283,-0.095069,-0.054683,-0.002907,-0.008958,0.036848,-0.004717,0.102781,0.255340,-0.961373
1760109107.275244,-0.130176,0.050738,0.005074,0.990179,-0.061971,-0.040564,-0.004845,-0.008247,0.031504,-0.003850,0.101800,0.257281,-0.960960
1760109107.304177,-0.130814,0.050331,0.005118,0.990115,-0.029240,-0.026539,-0.000426,-0.009259,0.027622,-0.003193,0.101005,0.258527,-0.960709
1760109107.334879,-0.131177,0.050072,0.005191,0.990080,-0.002146,-0.017839,0.005903,-0.009757,0.024360,-0.002011,0.100513,0.259232,-0.960571
1760109107.336921,-0.131268,0.049916,0.005279,0.990075,0.019145,-0.003774,0.011197,-0.008990,0.017866,-0.002428,0.100226,0.259403,-0.960554
1760109107.365414,-0.131173,0.049894,0.005367,0.990089,0.033505,0.005008,0.014021,-0.008012,0.011991,-0.001889,0.100207,0.259210,-0.960609
1760109107.396087,-0.130960,0.049952,0.005489,0.990113,0.041075,0.009518,0.020528,-0.007385,0.006503,-0.001912,0.100353,0.258781,-0.960709
1760109107.397406,-0.130676,0.050027,0.005623,0.990146,0.048406,0.009795,0.016897,-0.006063,0.001783,-0.002055,0.100537,0.258214,-0.960842
1760109107.428752,-0.130311,0.050137,0.005711,0.990188,0.046308,0.022318,0.015851,-0.002570,0.000321,-0.003827,0.100779,0.257491,-0.961011
1760109107.441022,-0.129943,0.050358,0.005754,0.990225,0.045267,0.026315,0.007674,-0.001933,-0.003157,-0.002309,0.101228,0.256767,-0.961158
1760109107.471080,-0.129620,0.050612,0.005782,0.990254,0.031262,0.033276,0.011708,-0.000500,-0.001734,0.000482,0.101737,0.256129,-0.961274
1760109107.473197,-0.129373,0.050905,0.005890,0.990271,0.020037,0.034282,0.014162,-0.000070,-0.003859,0.000795,0.102343,0.255629,-0.961343
1760109107.501662,-0.129171,0.051226,0.005944,0.990280,0.016211,0.036334,0.008132,0.001077,-0.006801,-0.001435,0.102992,0.255222,-0.961381
1760109107.541225,-0.129011,0.051620,0.005951,0.990281,0.011276,0.035555,0.007996,-0.000134,-0.006470,0.002616,0.103772,0.254900,-0.961383
1760109107.543163,-0.128914,0.051872,0.005985,0.990280,0.007023,0.017917,0.003214,-0.002195,-0.006266,0.006078,0.104279,0.254700,-0.961381
1760109107.571758,-0.128821,0.051966,0.006008,0.990287,0.001452,0.006212,0.007164,0.000816,-0.003356,0.002149,0.104471,0.254515,-0.961409
1760109107.573749,-0.128764,0.052013,0.006114,0.990291,-0.001192,0.000168,0.008649,0.001952,-0.005899,-0.002646,0.104591,0.254392,-0.961429
1760109107.618642,-0.128732,0.052084,0.006175,0.990291,-0.000859,0.011143,0.004368,0.005790,-0.007528,-0.010461,0.104747,0.254320,-0.961431
1760109107.619969,-0.128719,0.052175,0.006208,0.990288,-0.005772,0.007796,0.002364,0.002528,-0.004747,-0.009888,0.104935,0.254289,-0.961419
1760109107.651309,-0.128775,0.052248,0.006209,0.990277,-0.010191,0.005582,-0.000491,0.000951,-0.002219,-0.008485,0.105080,0.254396,-0.961374
1760109107.653348,-0.128842,0.052248,0.006175,0.990268,-0.012307,-0.006079,-0.004609,0.000183,0.000152,-0.004098,0.105070,0.254532,-0.961340
1760109107.696278,-0.128929,0.052175,0.006168,0.990261,-0.012203,-0.010706,-0.004220,0.000272,0.000448,-0.001943,0.104923,0.254704,-0.961310
1760109107.698333,-0.128983,0.052106,0.006130,0.990258,-0.006419,-0.004213,-0.006255,0.001931,-0.001827,0.000107,0.104777,0.254814,-0.961297
1760109107.727407,-0.128979,0.052031,0.006043,0.990263,0.001743,-0.005667,-0.011200,0.001229,-0.002693,0.004647,0.104608,0.254817,-0.961314
1760109107.734479,-0.128888,0.051954,0.005861,0.990280,0.010781,-0.005432,-0.023661,0.001684,-0.003249,0.005551,0.104410,0.254662,-0.961377
1760109107.763453,-0.128793,0.051808,0.005597,0.990301,0.006798,-0.017710,-0.025179,0.000610,0.004826,0.002169,0.104052,0.254508,-0.961457
1760109107.794768,-0.128802,0.051717,0.005404,0.990306,-0.007125,-0.005089,-0.012481,0.003231,0.010945,-0.002767,0.103824,0.254547,-0.961471
1760109107.795018,-0.128883,0.051613,0.005352,0.990301,-0.011193,-0.012899,0.000944,0.000002,0.010391,-0.001058,0.103605,0.254713,-0.961451
1760109107.823719,-0.128912,0.051431,0.005413,0.990307,0.000830,-0.021165,0.001913,0.001724,0.007369,-0.003424,0.103260,0.254768,-0.961473
1760109107.853508,-0.128907,0.051314,0.005449,0.990313,0.006317,-0.006850,0.006048,0.004370,0.005601,-0.005727,0.103039,0.254758,-0.961500
1760109107.856043,-0.128888,0.051323,0.005560,0.990315,0.008002,0.004007,0.012589,0.003264,0.004248,-0.003702,0.103085,0.254708,-0.961508
1760109107.887161,-0.128791,0.051373,0.005694,0.990324,0.025293,0.003272,0.009678,0.000656,-0.001090,0.000505,0.103219,0.254504,-0.961547
1760109107.918934,-0.128476,0.051389,0.005720,0.990364,0.042467,0.003102,-0.000453,0.001776,-0.004639,0.002422,0.103258,0.253888,-0.961706
1760109107.920169,-0.128004,0.051464,0.005688,0.990421,0.053440,0.006112,-0.002622,0.001666,-0.005279,0.003451,0.103398,0.252971,-0.961933
1760109107.951061,-0.127507,0.051547,0.005625,0.990481,0.053758,0.003724,-0.004682,-0.000894,-0.006074,0.005709,0.103546,0.252007,-0.962170
1760109107.952406,-0.127040,0.051526,0.005518,0.990543,0.039190,-0.006288,-0.008118,-0.001494,-0.004119,0.005103,0.103478,0.251108,-0.962412
1760109107.984893,-0.126743,0.051446,0.005477,0.990585,0.016675,-0.008789,-0.000328,-0.002030,-0.000960,-0.000247,0.103312,0.250536,-0.962579
1760109107.991877,-0.126617,0.051328,0.005478,0.990608,0.003916,-0.009970,-0.001887,-0.001172,-0.003945,-0.004495,0.103078,0.250293,-0.962667
1760109108.020874,-0.126625,0.051266,0.005506,0.990610,-0.006650,-0.007433,-0.000799,-0.000782,-0.003621,-0.003795,0.102963,0.250306,-0.962676
1760109108.049538,-0.126697,0.051141,0.005510,0.990607,-0.010114,-0.006625,-0.002181,-0.000718,-0.003954,-0.003990,0.102718,0.250449,-0.962665
1760109108.051204,-0.126806,0.051064,0.005528,0.990597,-0.012175,-0.007953,-0.000900,-0.001513,-0.001438,-0.002045,0.102570,0.250663,-0.962625
1760109108.083507,-0.126872,0.050984,0.005525,0.990592,-0.004228,-0.008467,-0.003666,-0.000825,-0.002295,-0.002490,0.102411,0.250793,-0.962608
1760109108.111768,-0.126827,0.050907,0.005472,0.990602,0.004953,-0.003189,-0.007570,-0.000584,-0.002596,-0.002647,0.102245,0.250714,-0.962647
1760109108.113704,-0.126697,0.050841,0.005399,0.990623,0.013009,-0.004872,-0.004361,-0.000414,-0.001307,-0.000475,0.102096,0.250469,-0.962726
1760109108.146451,-0.126525,0.050834,0.005343,0.990646,0.019222,-0.001840,-0.000157,-0.000777,-0.001671,0.001171,0.102070,0.250140,-0.962815
1760109108.153367,-0.126270,0.050767,0.005306,0.990682,0.024672,-0.003793,0.000124,-0.000841,-0.002292,0.000402,0.101928,0.249648,-0.962957
1760109108.183147,-0.126017,0.050752,0.005312,0.990715,0.022258,-0.003992,0.002291,-0.001113,-0.001944,-0.001307,0.101900,0.249154,-0.963088
1760109108.213805,-0.125787,0.050711,0.005297,0.990746,0.015268,-0.002960,0.001118,-0.000531,-0.001572,-0.001345,0.101816,0.248708,-0.963212
1760109108.214060,-0.125649,0.050695,0.005302,0.990764,0.008201,-0.000091,0.000794,0.000947,-0.001393,-0.000704,0.101787,0.248439,-0.963285
1760109108.242007,-0.125591,0.050728,0.005289,0.990770,-0.000326,0.004856,-0.004142,0.001730,-0.001421,-0.002283,0.101848,0.248326,-0.963307
1760109108.272659,-0.125661,0.050795,0.005274,0.990758,-0.014938,0.010443,-0.002273,0.001606,-0.000819,-0.003374,0.101977,0.248464,-0.963258
1760109108.274729,-0.125815,0.050833,0.005234,0.990737,-0.020179,0.004733,-0.006854,-0.000553,-0.000396,0.001011,0.102041,0.248766,-0.963173
1760109108.305124,-0.126040,0.050741,0.005179,0.990713,-0.026663,-0.013970,-0.005511,-0.001097,0.002098,0.001944,0.101846,0.249214,-0.963078
1760109108.336103,-0.126342,0.050672,0.005196,0.990678,-0.032887,-0.003484,0.002775,0.001617,0.000531,-0.003213,0.101713,0.249802,-0.962940
1760109108.338286,-0.126582,0.050713,0.005231,0.990645,-0.017353,0.007731,-0.001419,0.003192,-0.004091,-0.004643,0.101802,0.250266,-0.962810
1760109108.366919,-0.126717,0.050857,0.005188,0.990621,-0.013748,0.019788,-0.001622,0.003172,-0.002066,-0.003055,0.102075,0.250529,-0.962713
1760109108.372939,-0.126879,0.051096,0.005145,0.990588,-0.018927,0.025947,-0.000909,0.001486,0.000142,-0.001925,0.102536,0.250844,-0.962582
1760109108.402995,-0.127057,0.051338,0.005091,0.990553,-0.017768,0.020231,-0.008260,0.000416,-0.000414,-0.001094,0.103000,0.251190,-0.962442
1760109108.431211,-0.127188,0.051515,0.004954,0.990528,-0.013832,0.010327,-0.014440,-0.000783,0.002119,0.001259,0.103314,0.251455,-0.962339
1760109108.460901,-0.127306,0.051562,0.004867,0.990510,-0.011992,0.005659,-0.007494,-0.001296,0.003297,0.002212,0.103385,0.251693,-0.962269
1760109108.460982,-0.127423,0.051610,0.004780,0.990493,-0.010152,0.000992,-0.000547,-0.001810,0.004476,0.003164,0.103457,0.251931,-0.962199
1760109108.469186,-0.127483,0.051567,0.004820,0.990487,-0.005927,-0.004695,0.005324,-0.001593,0.003265,0.002203,0.103383,0.252044,-0.962178
1760109108.500473,-0.127497,0.051531,0.004873,0.990487,0.003859,-0.008372,0.003906,-0.001276,0.001314,0.001531,0.103325,0.252066,-0.962178
1760109108.529259,-0.127458,0.051451,0.004905,0.990496,0.004314,-0.001768,0.001689,0.000860,0.001479,-0.000779,0.103175,0.251989,-0.962214
1760109108.544219,-0.127418,0.051359,0.004943,0.990506,0.002895,-0.007974,0.002093,-0.000264,0.001151,0.000105,0.103002,0.251909,-0.962254
1760109108.565416,-0.127379,0.051244,0.004944,0.990517,0.014736,-0.014078,-0.003275,-0.000536,-0.001453,-0.000893,0.102776,0.251835,-0.962297
1760109108.594873,-0.127242,0.051177,0.004861,0.990539,0.017011,0.002282,-0.009958,0.003244,-0.001105,-0.004958,0.102622,0.251578,-0.962381
1760109108.596993,-0.127115,0.051263,0.004747,0.990551,0.006817,0.019103,-0.008645,0.001761,0.000400,-0.004366,0.102765,0.251341,-0.962428
1760109108.625421,-0.127069,0.051423,0.004666,0.990549,0.006711,0.008539,-0.007899,-0.001308,-0.001736,0.001756,0.103060,0.251256,-0.962418
1760109108.631921,-0.127027,0.051491,0.004572,0.990551,0.005714,0.005496,-0.009737,-0.000126,-0.003135,0.002163,0.103170,0.251183,-0.962425
1760109108.662039,-0.126921,0.051538,0.004457,0.990563,0.007248,0.005906,-0.010105,0.000770,-0.002257,0.001828,0.103235,0.250988,-0.962470
1760109108.671850,-0.126811,0.051582,0.004350,0.990575,0.011207,0.004873,-0.007711,0.001274,-0.001554,0.001255,0.103295,0.250783,-0.962517
1760109108.701888,-0.126716,0.051627,0.004259,0.990585,0.008454,0.001881,-0.005517,0.000177,-0.000913,0.000861,0.103361,0.250606,-0.962556
1760109108.719479,-0.126664,0.051648,0.004189,0.990591,0.003370,0.001348,-0.004534,0.000356,0.000617,0.000270,0.103386,0.250512,-0.962577
1760109108.747967,-0.126682,0.051641,0.004155,0.990589,-0.007409,0.001232,-0.000819,0.001080,0.002379,-0.001323,0.103363,0.250551,-0.962570
1760109108.751878,-0.126771,0.051685,0.004146,0.990576,-0.012397,0.003754,-0.001973,0.001148,0.001976,-0.002761,0.103447,0.250724,-0.962516
1760109108.782074,-0.126911,0.051741,0.004106,0.990555,-0.015290,0.007006,-0.006532,0.001645,0.000686,-0.004044,0.103546,0.250999,-0.962433
1760109108.812463,-0.127074,0.051751,0.004003,0.990534,-0.013561,-0.002953,-0.010869,0.000584,0.000688,-0.000768,0.103540,0.251327,-0.962348
1760109108.812748,-0.127227,0.051693,0.003896,0.990518,-0.010489,-0.006862,-0.011770,0.000972,0.000955,0.000821,0.103397,0.251638,-0.962282
1760109108.840948,-0.127332,0.051615,0.003813,0.990509,-0.008093,-0.005513,-0.007083,0.001698,0.002860,0.001310,0.103222,0.251852,-0.962245
1760109108.874807,-0.127409,0.051538,0.003792,0.990503,-0.005340,-0.009841,-0.001207,0.001045,0.002213,-0.000076,0.103062,0.252007,-0.962222
1760109108.910969,-0.127427,0.051472,0.003786,0.990504,0.001584,-0.008098,-0.003525,0.001033,0.000936,0.000562,0.102931,0.252045,-0.962226
1760109108.913748,-0.127388,0.051381,0.003799,0.990514,0.004720,-0.011995,-0.001888,0.000390,0.000763,0.000646,0.102755,0.251969,-0.962265
1760109108.914067,-0.127309,0.051237,0.003805,0.990531,0.008546,-0.012093,0.000955,0.000649,0.001582,-0.000283,0.102473,0.251818,-0.962334
1760109108.943200,-0.127234,0.051153,0.003834,0.990545,0.007899,-0.008458,0.002331,0.000647,0.001343,-0.001040,0.102314,0.251671,-0.962390
1760109108.950707,-0.127154,0.051116,0.003882,0.990557,0.007648,-0.003247,0.002528,0.000258,-0.000137,-0.001749,0.102253,0.251511,-0.962438
1760109108.989876,-0.127057,0.051071,0.003881,0.990572,0.009135,-0.004275,-0.002973,0.000561,-0.001229,-0.001368,0.102165,0.251322,-0.962497
1760109108.991912,-0.126995,0.051052,0.003852,0.990581,0.003909,0.002457,-0.000865,0.000798,-0.001599,-0.002220,0.102121,0.251203,-0.962532
1760109109.020418,-0.126930,0.051048,0.003869,0.990590,0.007136,-0.004379,-0.002052,-0.001142,-0.003107,0.002249,0.102117,0.251076,-0.962566
1760109109.030608,-0.126861,0.050912,0.003849,0.990606,0.003675,-0.015243,-0.002631,-0.002115,-0.001862,0.004897,0.101843,0.250946,-0.962629
1760109109.060949,-0.126876,0.050750,0.003891,0.990612,-0.005786,-0.016626,0.006763,-0.000811,-0.003061,0.002005,0.101535,0.250975,-0.962654
1760109109.097482,-0.126921,0.050625,0.003949,0.990612,-0.005217,-0.007736,-0.000451,0.001576,-0.005630,-0.001901,0.101303,0.251058,-0.962656
1760109109.098682,-0.127013,0.050613,0.004010,0.990601,-0.017439,0.005186,0.003049,0.002001,-0.002119,-0.006275,0.101294,0.251233,-0.962612
1760109109.130191,-0.127276,0.050727,0.004060,0.990561,-0.035551,0.011672,0.007674,0.000879,0.002945,-0.005418,0.101530,0.251737,-0.962455
1760109109.131920,-0.127674,0.050796,0.004128,0.990506,-0.042481,0.004724,0.002138,-0.000612,0.001125,-0.004689,0.101681,0.252505,-0.962238
1760109109.161053,-0.128061,0.050823,0.004114,0.990455,-0.043766,0.005674,-0.006507,0.000825,0.001557,-0.004747,0.101730,0.253260,-0.962035
1760109109.190640,-0.128457,0.050852,0.004064,0.990402,-0.039386,0.007502,-0.007290,0.000778,0.001826,-0.001819,0.101773,0.254034,-0.961826
1760109109.194387,-0.128784,0.050911,0.004028,0.990357,-0.029856,0.003141,-0.003974,0.000244,0.002595,0.003428,0.101878,0.254673,-0.961646
1760109109.222795,-0.129016,0.050889,0.004011,0.990328,-0.015162,-0.003142,-0.003980,-0.000070,0.001814,0.003908,0.101828,0.255128,-0.961531
1760109109.229066,-0.129117,0.050793,0.003982,0.990320,-0.007046,-0.010450,-0.003085,0.000544,0.002946,0.002562,0.101631,0.255329,-0.961498
1760109109.257007,-0.129204,0.050724,0.003964,0.990312,-0.009730,0.000787,-0.001212,0.001804,0.005011,-0.000774,0.101489,0.255503,-0.961467
1760109109.288317,-0.129304,0.050685,0.004005,0.990301,-0.006892,-0.002607,0.001193,-0.000006,0.002593,0.000668,0.101422,0.255694,-0.961423
1760109109.291084,-0.129349,0.050622,0.004061,0.990298,0.006599,-0.016257,0.000364,-0.000555,-0.000702,0.000676,0.101313,0.255776,-0.961413
1760109109.342790,-0.129288,0.050595,0.004027,0.990307,0.003248,-0.006748,0.003536,0.000297,0.001851,-0.001400,0.101250,0.255663,-0.961449
1760109109.343087,-0.129228,0.050568,0.003993,0.990317,-0.000104,0.002761,0.006709,0.001148,0.004403,-0.003475,0.101188,0.255549,-0.961486
1760109109.349387,-0.129275,0.050603,0.004056,0.990308,-0.000109,-0.002438,0.005015,0.000557,0.002692,0.000570,0.101273,0.255634,-0.961455
1760109109.379449,-0.129241,0.050538,0.004088,0.990316,0.005874,-0.005824,0.001472,-0.000089,0.000260,0.000651,0.101153,0.255565,-0.961486
1760109109.409962,-0.129154,0.050505,0.004123,0.990329,0.006232,-0.000961,0.001079,0.000382,0.001539,0.000676,0.101099,0.255393,-0.961537
1760109109.410248,-0.129065,0.050496,0.004144,0.990341,0.011550,-0.002487,0.000886,0.000268,0.001420,0.001184,0.101086,0.255218,-0.961585
1760109109.438015,-0.128982,0.050460,0.004149,0.990354,0.011293,-0.002338,0.002619,0.000913,0.001164,0.001433,0.101017,0.255057,-0.961635
1760109109.468807,-0.128865,0.050433,0.004162,0.990370,0.012241,-0.004790,0.001283,0.000830,-0.000433,-0.000017,0.100968,0.254828,-0.961701
1760109109.471464,-0.128774,0.050394,0.004164,0.990384,0.008590,-0.003050,0.001255,0.000849,0.000758,-0.002024,0.100890,0.254652,-0.961755
1760109109.500767,-0.128697,0.050395,0.004162,0.990394,0.006116,-0.003169,0.000003,0.000218,0.000195,-0.000521,0.100894,0.254501,-0.961795
1760109109.530379,-0.128659,0.050393,0.004147,0.990399,0.004057,0.001610,-0.000779,0.001969,-0.000044,-0.002438,0.100886,0.254429,-0.961815
1760109109.546700,-0.128614,0.050387,0.004112,0.990405,0.005918,-0.000132,-0.002550,0.000742,0.000452,-0.001128,0.100865,0.254345,-0.961839
1760109109.546969,-0.128530,0.050395,0.004086,0.990416,0.008329,-0.002314,0.000518,-0.000241,0.001887,0.001129,0.100874,0.254184,-0.961881
1760109109.578614,-0.128436,0.050350,0.004093,0.990430,0.008940,-0.002867,0.001296,0.000195,0.002022,0.001817,0.100787,0.254002,-0.961938
1760109109.608395,-0.128339,0.050312,0.004152,0.990445,0.010554,-0.005684,0.006047,-0.000466,0.001768,0.001361,0.100729,0.253807,-0.961996
1760109109.610680,-0.128241,0.050277,0.004223,0.990459,0.012161,-0.007884,0.006444,0.000055,0.001475,0.001364,0.100678,0.253609,-0.962053
1760109109.653715,-0.128113,0.050147,0.004286,0.990482,0.015864,-0.012823,0.006216,0.000257,0.000832,-0.000176,0.100438,0.253357,-0.962145
1760109109.654925,-0.127964,0.050058,0.004373,0.990505,0.016170,-0.006149,0.006727,0.001313,0.000340,-0.002498,0.100285,0.253061,-0.962239
1760109109.697046,-0.127798,0.050022,0.004449,0.990528,0.022267,-0.005417,0.006765,0.001531,-0.001421,-0.001406,0.100234,0.252731,-0.962331
1760109109.697348,-0.127623,0.050011,0.004492,0.990551,0.017633,-0.002086,0.002496,0.002364,-0.001561,-0.000504,0.100223,0.252384,-0.962423
1760109109.725259,-0.127445,0.049984,0.004483,0.990575,0.013385,-0.002444,-0.001086,0.001871,-0.001362,-0.000403,0.100168,0.252040,-0.962519
1760109109.727296,-0.127358,0.050025,0.004508,0.990584,0.011231,-0.003268,0.003237,0.000897,-0.001031,0.000540,0.100256,0.251867,-0.962555
1760109109.764001,-0.127246,0.049905,0.004500,0.990605,0.008290,-0.023741,-0.002556,-0.001005,-0.001510,0.004805,0.100018,0.251653,-0.962636
1760109109.765278,-0.127208,0.049668,0.004565,0.990621,-0.000649,-0.023654,0.007381,0.000097,0.000645,0.001135,0.099566,0.251577,-0.962702
1760109109.796505,-0.127173,0.049490,0.004718,0.990634,0.004352,-0.020436,0.011733,0.000461,-0.001665,-0.001183,0.099252,0.251497,-0.962756
1760109109.825641,-0.127114,0.049413,0.004858,0.990645,0.002586,0.004760,0.012158,0.004286,-0.001213,-0.007643,0.099136,0.251369,-0.962801
1760109109.827267,-0.127122,0.049487,0.004994,0.990639,-0.008545,0.011961,0.021300,0.001985,0.001629,-0.003861,0.099318,0.251369,-0.962782
1760109109.856937,-0.127306,0.049635,0.005238,0.990607,-0.022944,0.006359,0.021966,-0.000249,0.000609,-0.001006,0.099671,0.251700,-0.962659
1760109109.888661,-0.127515,0.049674,0.005391,0.990577,-0.020610,-0.000166,0.007048,-0.000408,-0.001989,-0.002337,0.099787,0.252091,-0.962545
1760109109.890618,-0.127700,0.049707,0.005446,0.990551,-0.024236,0.003115,-0.000484,0.000982,0.000886,-0.004219,0.099866,0.252446,-0.962444
1760109109.910737,-0.127949,0.049741,0.005465,0.990518,-0.019535,0.003140,0.001944,0.000027,0.002520,-0.000009,0.099937,0.252928,-0.962310
1760109109.946175,-0.128093,0.049753,0.005472,0.990498,-0.007201,0.001649,-0.000050,-0.000068,0.001150,0.001587,0.099962,0.253207,-0.962234
1760109109.946461,-0.128087,0.049713,0.005520,0.990501,0.003093,-0.003470,0.003078,-0.000638,0.001029,0.000762,0.099895,0.253191,-0.962245
1760109109.974089,-0.127983,0.049707,0.005587,0.990514,0.010581,-0.007480,0.005806,-0.000052,0.000764,0.000700,0.099900,0.252983,-0.962299
1760109110.004814,-0.127877,0.049711,0.005675,0.990527,0.010768,-0.001052,0.010192,-0.000011,0.000167,0.000153,0.099932,0.252767,-0.962353
1760109110.006866,-0.127764,0.049670,0.005769,0.990543,0.011263,-0.008919,0.009492,-0.003627,-0.000467,0.001145,0.099875,0.252538,-0.962419
1760109110.038486,-0.127613,0.049474,0.005853,0.990572,0.016790,-0.013555,0.000477,-0.000433,-0.002495,-0.001763,0.099508,0.252242,-0.962534
1760109110.067698,-0.127473,0.049423,0.005852,0.990593,0.013097,-0.002675,0.002638,0.001995,-0.001232,-0.004410,0.099408,0.251970,-0.962616
1760109110.068819,-0.127435,0.049527,0.005878,0.990592,-0.001916,0.012424,0.005780,0.001265,0.000603,-0.004158,0.099620,0.251890,-0.962615
1760109110.098838,-0.127439,0.049564,0.005868,0.990590,0.004958,-0.003711,-0.004226,-0.002858,-0.002268,0.003153,0.099690,0.251899,-0.962605
1760109110.127925,-0.127359,0.049511,0.005804,0.990603,0.002312,-0.002354,-0.001726,-0.000351,0.000009,0.000132,0.099571,0.251750,-0.962657
1760109110.129780,-0.127348,0.049548,0.005788,0.990603,-0.001173,0.005803,0.002382,0.000692,0.001473,-0.001585,0.099640,0.251729,-0.962655
1760109110.178895,-0.127329,0.049543,0.005786,0.990606,-0.000755,0.002627,0.000725,0.000722,0.001676,-0.001185,0.099629,0.251692,-0.962666
1760109110.179207,-0.127310,0.049538,0.005784,0.990608,-0.000337,-0.000549,-0.000932,0.000752,0.001878,-0.000784,0.099617,0.251655,-0.962677
1760109110.209897,-0.127325,0.049539,0.005800,0.990606,-0.000069,-0.000113,-0.000192,0.000502,0.001427,-0.000160,0.099625,0.251683,-0.962668
1760109110.252354,-0.127338,0.049495,0.005804,0.990607,-0.002372,0.001362,0.000085,0.001089,0.002141,-0.002205,0.099539,0.251709,-0.962671
1760109110.252965,-0.127351,0.049451,0.005807,0.990607,-0.004675,0.002836,0.000361,0.001677,0.002856,-0.004250,0.099453,0.251734,-0.962673
1760109110.253531,-0.127365,0.049480,0.005839,0.990604,0.000707,0.001182,0.001413,0.001235,0.000274,-0.001818,0.099516,0.251759,-0.962660
1760109110.284855,-0.127349,0.049482,0.005828,0.990606,0.005572,0.000758,-0.001153,0.001146,-0.000245,-0.001329,0.099519,0.251729,-0.962667
1760109110.286953,-0.127262,0.049444,0.005809,0.990619,0.007827,-0.000923,-0.002510,0.000226,-0.000048,-0.000262,0.099439,0.251562,-0.962719
1760109110.321478,-0.127187,0.049427,0.005756,0.990630,0.006801,-0.000764,-0.003029,-0.000047,-0.000564,-0.000600,0.099392,0.251422,-0.962761
1760109110.325865,-0.127115,0.049415,0.005697,0.990640,0.007121,0.000268,-0.004228,-0.001007,-0.000364,0.000307,0.099353,0.251287,-0.962800
1760109110.354143,-0.127062,0.049406,0.005652,0.990647,0.006139,-0.001538,-0.002261,-0.000285,-0.000627,-0.000492,0.099324,0.251189,-0.962829
1760109110.384824,-0.126987,0.049368,0.005642,0.990659,0.005427,-0.002891,-0.000780,-0.000331,-0.001793,-0.001751,0.099248,0.251044,-0.962874
1760109110.386996,-0.126934,0.049355,0.005608,0.990667,0.000840,-0.001664,-0.001255,-0.000077,-0.001512,-0.002544,0.099212,0.250944,-0.962904
1760109110.415635,-0.126976,0.049374,0.005618,0.990660,-0.007182,-0.000235,0.003184,-0.000292,-0.001963,-0.002141,0.099252,0.251025,-0.962879
1760109110.447823,-0.127089,0.049335,0.005642,0.990648,-0.016135,0.002520,0.002748,0.000320,-0.002858,-0.002494,0.099182,0.251245,-0.962829
1760109110.448135,-0.127248,0.049389,0.005681,0.990624,-0.016862,-0.000842,-0.000422,0.000310,-0.004176,0.000905,0.099298,0.251549,-0.962737
1760109110.478621,-0.127471,0.049351,0.005633,0.990598,-0.023264,0.001831,-0.007855,0.002115,-0.002636,-0.000570,0.099210,0.251988,-0.962631
1760109110.508613,-0.127691,0.049365,0.005598,0.990569,-0.022835,-0.000608,-0.004231,0.000242,-0.002818,0.001140,0.099229,0.252420,-0.962516
1760109110.509980,-0.127919,0.049270,0.005538,0.990545,-0.023627,-0.011517,-0.008934,-0.001097,-0.001922,0.004122,0.099024,0.252873,-0.962419
1760109110.545265,-0.128121,0.049061,0.005541,0.990529,-0.024228,-0.025314,-0.000040,-0.000666,0.001614,0.002286,0.098612,0.253272,-0.962356
1760109110.546130,-0.128330,0.048893,0.005632,0.990509,-0.015825,-0.016184,0.004572,0.002084,-0.000446,-0.003843,0.098305,0.253674,-0.962282
1760109110.576147,-0.128427,0.048850,0.005651,0.990499,-0.012828,0.008988,0.002125,0.005572,0.000003,-0.010858,0.098224,0.253862,-0.962240
1760109110.605511,-0.128588,0.049126,0.005715,0.990464,-0.020493,0.029346,0.010078,0.003271,0.004061,-0.007504,0.098785,0.254162,-0.962104
1760109110.609367,-0.128834,0.049396,0.005807,0.990418,-0.021707,0.020723,0.007418,-0.000601,0.002284,-0.001530,0.099342,0.254625,-0.961924
1760109110.639103,-0.128956,0.049494,0.005808,0.990397,-0.007732,0.001221,-0.009748,-0.000544,-0.000077,0.001445,0.099536,0.254860,-0.961841
1760109110.668931,-0.128992,0.049480,0.005695,0.990394,-0.005474,-0.005675,-0.008969,0.000620,0.005818,0.002391,0.099478,0.254943,-0.961825
1760109110.669303,-0.129087,0.049431,0.005682,0.990384,-0.006565,-0.001477,0.000023,0.000145,0.007630,0.002989,0.099379,0.255129,-0.961786
1760109110.700098,-0.129122,0.049300,0.005766,0.990386,0.001216,-0.020524,0.008397,-0.001225,0.008355,0.006383,0.099141,0.255193,-0.961794
1760109110.704626,-0.129087,0.049168,0.005864,0.990396,0.006601,-0.015224,0.012322,0.000266,0.003020,0.001599,0.098906,0.255117,-0.961838
1760109110.732887,-0.129006,0.049019,0.005964,0.990414,0.017398,-0.011545,0.001392,0.000666,0.000887,-0.002613,0.098636,0.254954,-0.961909
1760109110.766023,-0.128898,0.048990,0.005977,0.990429,0.015802,-0.003721,0.002321,0.001563,0.003338,-0.002705,0.098583,0.254742,-0.961971
1760109110.767526,-0.128847,0.048967,0.005978,0.990437,0.007825,0.000089,0.001152,-0.001064,0.004030,-0.001386,0.098537,0.254643,-0.962002
1760109110.796681,-0.128744,0.048871,0.005961,0.990455,0.013358,-0.001561,-0.012093,0.001834,0.003657,-0.005981,0.098344,0.254447,-0.962073
1760109110.849913,-0.128760,0.048941,0.005769,0.990450,0.000298,0.004817,-0.011095,0.001980,0.012026,-0.009047,0.098434,0.254497,-0.962051
1760109110.850212,-0.128777,0.049012,0.005578,0.990446,-0.012762,0.011195,-0.010097,0.002127,0.020394,-0.012113,0.098524,0.254546,-0.962029
1760109110.851977,-0.128879,0.049085,0.005334,0.990430,-0.002967,0.010738,-0.029536,0.000784,0.023343,-0.011674,0.098605,0.254768,-0.961962
1760109110.880352,-0.128944,0.048976,0.004903,0.990429,-0.001042,-0.021793,-0.057010,-0.000729,0.039768,-0.014401,0.098279,0.254940,-0.961949
1760109110.883518,-0.129203,0.048665,0.004240,0.990414,-0.046756,-0.014925,-0.072259,-0.000912,0.072103,-0.040242,0.097493,0.255516,-0.961877
1760109110.913770,-0.130001,0.048451,0.003675,0.990322,-0.081448,-0.017081,-0.052206,-0.004628,0.096093,-0.031694,0.096920,0.257129,-0.961505
1760109110.942844,-0.130861,0.048194,0.003225,0.990223,-0.060335,-0.027324,-0.053279,-0.005393,0.092049,-0.012097,0.096289,0.258852,-0.961106
1760109110.944934,-0.131299,0.047750,0.002766,0.990188,-0.002397,-0.048368,-0.045217,-0.006527,0.082400,-0.000008,0.095289,0.259757,-0.960961
1760109110.974482,-0.131160,0.047183,0.002408,0.990235,0.067328,-0.058054,-0.028246,-0.003470,0.073706,0.000110,0.094077,0.259531,-0.961142
1760109111.004800,-0.130498,0.046595,0.002167,0.990351,0.118820,-0.049454,-0.009080,-0.000248,0.069701,-0.005964,0.092856,0.258275,-0.961599
1760109111.006154,-0.129569,0.046143,0.002133,0.990494,0.127490,-0.029949,0.008630,0.003295,0.064967,-0.006701,0.091962,0.256478,-0.962165
1760109111.035317,-0.128537,0.045887,0.002289,0.990640,0.135697,-0.028463,0.020633,0.000859,0.055167,0.002945,0.091504,0.254457,-0.962745
1760109111.066268,-0.127379,0.045611,0.002433,0.990802,0.156667,-0.042513,0.016213,0.001078,0.046090,0.007116,0.091002,0.252192,-0.963389
1760109111.068856,-0.126037,0.045236,0.002468,0.990990,0.181086,-0.035016,0.002628,0.003858,0.034470,0.003097,0.090279,0.249579,-0.964137
1760109111.102744,-0.124377,0.044822,0.002290,0.991219,0.227673,-0.043442,-0.026244,0.003834,0.023563,0.002389,0.089426,0.246364,-0.965043
1760109111.102998,-0.122381,0.044441,0.001846,0.991486,0.244495,-0.020036,-0.046562,0.008543,0.021287,-0.011048,0.088578,0.242513,-0.966096
1760109111.144702,-0.120329,0.044285,0.001187,0.991745,0.239944,-0.000850,-0.064421,0.005316,0.024835,-0.009781,0.088125,0.238566,-0.967119
1760109111.145028,-0.118370,0.044359,0.000394,0.991978,0.222766,0.010853,-0.058499,-0.005184,0.032468,0.004492,0.088099,0.234806,-0.968042
1760109111.172985,-0.116550,0.044390,0.000092,0.992192,0.202042,-0.007360,0.024365,-0.014507,0.036683,0.027648,0.088109,0.231271,-0.968891
1760109111.213779,-0.114635,0.044337,0.000825,0.992417,0.217568,-0.011410,0.069066,-0.011779,0.017358,0.025972,0.088191,0.227458,-0.969786
1760109111.214067,-0.112719,0.044284,0.001557,0.992638,0.233094,-0.015461,0.113767,-0.009044,-0.001964,0.024281,0.088266,0.223640,-0.970667
1760109111.245983,-0.110557,0.044268,0.002631,0.992880,0.251042,-0.016144,0.121300,-0.007998,-0.017335,0.021129,0.088488,0.219306,-0.971635
1760109111.247273,-0.108382,0.044310,0.003636,0.993115,0.253041,0.005875,0.099826,-0.004581,-0.027920,0.016741,0.088798,0.214949,-0.972580
1760109111.277451,-0.106180,0.044422,0.004347,0.993345,0.238546,0.009298,0.076429,-0.007991,-0.025857,0.017399,0.089175,0.210561,-0.973505
1760109111.284178,-0.104032,0.044653,0.005058,0.993558,0.210787,0.022302,0.088081,-0.007009,-0.023473,0.013808,0.089784,0.206271,-0.974367
1760109111.322451,-0.101930,0.044926,0.005855,0.993759,0.205766,0.026987,0.086293,-0.008519,-0.040325,0.005874,0.090484,0.202061,-0.975184
1760109111.324370,-0.099762,0.045377,0.006404,0.993955,0.216035,0.042259,0.051773,-0.009728,-0.054137,-0.001422,0.091484,0.197737,-0.975977
1760109111.352879,-0.097540,0.045908,0.006621,0.994150,0.217323,0.059498,0.022329,-0.009664,-0.052292,-0.007965,0.092571,0.193331,-0.976757
1760109111.383454,-0.095505,0.046623,0.006665,0.994314,0.173927,0.090173,0.032816,-0.006661,-0.030062,-0.016204,0.093990,0.189302,-0.977410
1760109111.385516,-0.093921,0.047532,0.007080,0.994419,0.114559,0.099594,0.082081,-0.005531,-0.021621,-0.009573,0.095863,0.186121,-0.977839
1760109111.460625,-0.092679,0.048264,0.007849,0.994495,0.112665,0.080605,0.077019,-0.002352,-0.029688,-0.004603,0.097452,0.183580,-0.978162
1760109111.460934,-0.091436,0.048997,0.008618,0.994567,0.110770,0.061616,0.071958,0.000830,-0.037752,0.000359,0.099037,0.181035,-0.978477
1760109111.461274,-0.090194,0.049729,0.009388,0.994638,0.108876,0.042628,0.066897,0.004017,-0.045812,0.005313,0.100618,0.178487,-0.978784
1760109111.461600,-0.088939,0.050141,0.009932,0.994725,0.114462,0.036396,0.057326,0.004501,-0.041919,0.002348,0.101519,0.175944,-0.979152
1760109111.501519,-0.087611,0.050496,0.010309,0.994821,0.110837,0.053268,0.047314,0.008921,-0.036358,-0.007757,0.102276,0.173274,-0.979549
1760109111.501827,-0.086407,0.051062,0.010814,0.994892,0.082629,0.057258,0.069074,0.005291,-0.027878,-0.003180,0.103470,0.170827,-0.979853
1760109111.556376,-0.085576,0.051586,0.011465,0.994929,0.055841,0.050597,0.071771,0.003750,-0.029510,0.001263,0.104611,0.169101,-0.980031
1760109111.556655,-0.084745,0.052110,0.012115,0.994965,0.029053,0.043936,0.074468,0.002211,-0.031139,0.005703,0.105748,0.167374,-0.980206
1760109111.562996,-0.084168,0.052365,0.012776,0.994993,0.026470,-0.002156,0.056183,-0.001141,-0.038949,0.015636,0.106356,0.166155,-0.980347
1760109111.593105,-0.083776,0.052383,0.013239,0.995019,0.009469,-0.004070,0.043065,0.005803,-0.037880,0.005743,0.106462,0.165331,-0.980475
1760109111.622753,-0.083475,0.052403,0.013636,0.995038,0.009734,0.003405,0.036756,0.013075,-0.042757,0.001103,0.106562,0.164692,-0.980572
1760109111.623049,-0.083224,0.052739,0.013965,0.995036,0.009863,0.045925,0.038136,0.015266,-0.049763,0.000710,0.107278,0.164148,-0.980585
1760109111.656043,-0.082688,0.053171,0.014197,0.995055,0.049733,0.039668,0.014777,0.006466,-0.060183,0.010904,0.108163,0.163048,-0.980671
1760109111.663088,-0.081762,0.053600,0.014181,0.995108,0.087967,0.032852,-0.001945,0.004325,-0.057634,0.009875,0.108995,0.161205,-0.980884
1760109111.696676,-0.080583,0.053962,0.014100,0.995186,0.108909,0.026241,0.002746,0.003678,-0.045690,0.007175,0.109676,0.158869,-0.981189
1760109111.742362,-0.079060,0.054255,0.014110,0.995292,0.117201,0.020655,0.007050,0.007771,-0.037488,0.001226,0.110231,0.155845,-0.981612
1760109111.742719,-0.077538,0.054549,0.014120,0.995396,0.125494,0.015070,0.011353,0.011865,-0.029286,-0.004733,0.110785,0.152821,-0.982025
1760109111.743369,-0.075987,0.054879,0.014184,0.995496,0.121926,0.035347,0.017883,0.015047,-0.023597,-0.012154,0.111418,0.149732,-0.982429
1760109111.773552,-0.074448,0.055323,0.014246,0.995587,0.134821,0.037638,0.001647,0.014688,-0.030000,-0.010987,0.112280,0.146662,-0.982794
1760109111.803033,-0.072868,0.055757,0.014064,0.995682,0.144585,0.030611,-0.020044,0.012406,-0.026134,-0.006833,0.113082,0.143538,-0.983163
1760109111.804854,-0.071311,0.056140,0.013780,0.995778,0.136669,0.028904,-0.021035,0.010256,-0.019034,0.001375,0.113771,0.140473,-0.983526
1760109111.834015,-0.069920,0.056404,0.013504,0.995865,0.120812,0.017317,-0.022885,0.008512,-0.011900,0.007187,0.114229,0.137738,-0.983860
1760109111.864720,-0.068640,0.056516,0.013221,0.995952,0.107064,-0.015083,-0.020702,0.005899,-0.009344,0.014983,0.114390,0.135229,-0.984189
1760109111.866138,-0.067592,0.056462,0.013015,0.996029,0.073045,-0.016525,-0.012323,0.008191,-0.004437,0.004722,0.114235,0.133178,-0.984487
1760109111.882991,-0.066923,0.056319,0.012914,0.996084,0.043534,-0.032404,-0.007435,0.003431,-0.001215,0.003403,0.113925,0.131867,-0.984699
1760109111.912349,-0.066617,0.056060,0.012844,0.996120,0.006191,-0.027957,-0.009011,0.004878,-0.000221,-0.004530,0.113396,0.131277,-0.984839
1760109111.940302,-0.066703,0.055847,0.012837,0.996126,-0.029842,-0.019051,-0.001313,0.003973,0.000142,-0.010389,0.112974,0.131456,-0.984864
1760109111.941421,-0.067111,0.055771,0.012848,0.996103,-0.051697,-0.010450,-0.005988,0.003209,-0.005248,-0.005011,0.112831,0.132266,-0.984772
1760109111.971438,-0.067659,0.055605,0.012777,0.996076,-0.057964,-0.023843,-0.023967,-0.000253,-0.007105,0.000148,0.112503,0.133366,-0.984661
1760109112.001439,-0.068311,0.055426,0.012520,0.996045,-0.072989,-0.010772,-0.030166,0.001423,-0.004203,-0.004342,0.112123,0.134694,-0.984523
1760109112.002492,-0.069102,0.055310,0.012188,0.996001,-0.083619,-0.005571,-0.044430,0.001264,-0.004059,-0.003132,0.111863,0.136304,-0.984331
1760109112.042032,-0.069882,0.055224,0.011775,0.995956,-0.080779,-0.012166,-0.052176,-0.000249,-0.003558,0.000747,0.111647,0.137899,-0.984134
1760109112.042475,-0.070537,0.054978,0.011301,0.995929,-0.062737,-0.026872,-0.054345,-0.001179,-0.003247,0.000679,0.111102,0.139256,-0.984004
1760109112.073758,-0.071026,0.054757,0.010890,0.995911,-0.043820,-0.011901,-0.037167,0.002060,-0.002888,-0.005718,0.110613,0.140278,-0.983914
1760109112.107151,-0.071315,0.054555,0.010640,0.995904,-0.018443,-0.025775,-0.018536,-0.003330,-0.001788,-0.001889,0.110181,0.140884,-0.983876
1760109112.107477,-0.071387,0.054352,0.010571,0.995911,-0.003367,-0.015080,0.001419,-0.004707,-0.002052,-0.006859,0.109769,0.141041,-0.983900
1760109112.135556,-0.071257,0.054195,0.010722,0.995927,0.007603,-0.008487,0.023779,-0.002365,-0.000679,-0.005931,0.109476,0.140771,-0.983971
1760109112.141879,-0.071079,0.054271,0.011019,0.995932,0.023399,0.003687,0.028570,-0.004193,-0.006557,-0.006607,0.109667,0.140383,-0.984005
1760109112.201460,-0.070761,0.054406,0.011249,0.995945,0.028243,0.032771,0.020887,-0.001594,-0.009647,-0.009556,0.109963,0.139724,-0.984066
1760109112.216904,-0.070636,0.054787,0.011334,0.995932,0.011509,0.034723,0.006297,-0.002721,-0.008185,-0.003138,0.110730,0.139456,-0.984018
1760109112.247181,-0.070628,0.055091,0.011268,0.995916,-0.003917,0.024913,-0.011369,-0.003132,-0.004948,0.001018,0.111324,0.139438,-0.983953
1760109112.247474,-0.070807,0.055308,0.011107,0.995894,-0.031165,0.025810,-0.017139,-0.001905,0.000220,-0.001439,0.111734,0.139803,-0.983855
1760109112.275254,-0.071222,0.055492,0.010947,0.995856,-0.055698,0.020381,-0.016472,-0.002127,0.002703,-0.001025,0.112083,0.140638,-0.983696
1760109112.281997,-0.071837,0.055620,0.010804,0.995806,-0.069430,0.013788,-0.014771,-0.002544,0.001836,-0.000055,0.112326,0.141869,-0.983492
1760109112.345064,-0.072571,0.055626,0.010713,0.995753,-0.072248,0.008105,-0.014710,-0.001595,0.002410,-0.000314,0.112335,0.143334,-0.983278
1760109112.345440,-0.073305,0.055632,0.010623,0.995700,-0.075066,0.002422,-0.014650,-0.000646,0.002984,-0.000576,0.112343,0.144798,-0.983063
1760109112.346845,-0.074095,0.055666,0.010544,0.995641,-0.077294,0.005041,-0.011477,0.000345,0.003463,-0.000280,0.112409,0.146370,-0.982823
1760109112.375305,-0.074876,0.055667,0.010462,0.995583,-0.074568,-0.000102,-0.013964,-0.002187,0.003598,0.001889,0.112409,0.147925,-0.982590
1760109112.382967,-0.075570,0.055602,0.010373,0.995535,-0.064578,-0.001830,-0.014616,-0.000596,0.004936,0.001202,0.112275,0.149311,-0.982395
1760109112.413231,-0.076137,0.055558,0.010294,0.995495,-0.052491,0.002323,-0.009820,0.001089,0.006038,-0.000443,0.112183,0.150444,-0.982233
1760109112.442814,-0.076599,0.055604,0.010235,0.995458,-0.037330,0.005745,-0.008962,0.001638,0.005563,-0.001602,0.112270,0.151364,-0.982082
1760109112.443071,-0.076886,0.055643,0.010129,0.995434,-0.018261,0.003552,-0.009417,0.000316,0.004374,-0.000942,0.112336,0.151942,-0.981985
1760109112.471699,-0.077002,0.055644,0.010026,0.995426,0.000182,0.002415,-0.006814,0.001096,0.004430,-0.001502,0.112322,0.152185,-0.981949
1760109112.502779,-0.076963,0.055696,0.009978,0.995427,0.013405,0.007898,0.000525,0.003046,0.004306,-0.001886,0.112418,0.152111,-0.981949
1760109112.505057,-0.076826,0.055775,0.009985,0.995433,0.019512,0.003249,0.004427,0.002158,0.004114,-0.000918,0.112574,0.151835,-0.981974
1760109112.560092,-0.076707,0.055835,0.010054,0.995438,0.012143,0.003381,0.005596,0.002783,0.003005,0.000300,0.112704,0.151592,-0.981997
1760109112.560422,-0.076589,0.055896,0.010123,0.995443,0.004773,0.003514,0.006765,0.003407,0.001897,0.001517,0.112833,0.151349,-0.982019
1760109112.561040,-0.076577,0.055943,0.010179,0.995441,-0.004554,0.000258,0.003023,0.002792,0.000166,0.002028,0.112935,0.151317,-0.982013
1760109112.590325,-0.076702,0.055968,0.010194,0.995430,-0.014569,0.003502,-0.001320,0.003817,-0.000740,0.000683,0.112988,0.151562,-0.981969
1760109112.644968,-0.076979,0.055978,0.010187,0.995408,-0.022008,0.002483,-0.002783,0.003321,-0.000508,-0.000140,0.113010,0.152110,-0.981881
1760109112.645297,-0.077255,0.055988,0.010180,0.995386,-0.029448,0.001464,-0.004246,0.002826,-0.000275,-0.000962,0.113033,0.152657,-0.981794
1760109112.645538,-0.077562,0.056020,0.010166,0.995360,-0.031772,0.001297,-0.005498,0.003423,-0.000443,-0.000495,0.113097,0.153266,-0.981692
1760109112.672781,-0.077855,0.056025,0.010128,0.995338,-0.029400,-0.003721,-0.004596,0.002489,-0.000495,0.000629,0.113105,0.153849,-0.981599
1760109112.704161,-0.078103,0.055985,0.010098,0.995321,-0.022885,-0.003405,-0.004923,0.003263,-0.000549,0.000273,0.113024,0.154345,-0.981531
1760109112.708105,-0.078270,0.055916,0.010068,0.995312,-0.011550,-0.008254,-0.005753,0.001519,0.000129,0.001194,0.112884,0.154681,-0.981494
1760109112.738551,-0.078335,0.055835,0.010013,0.995312,-0.002828,-0.007135,-0.005824,0.001986,0.001160,-0.001471,0.112714,0.154817,-0.981492
1760109112.740996,-0.078303,0.055743,0.009955,0.995320,0.006387,-0.011305,-0.006308,0.000177,0.001950,0.000199,0.112523,0.154764,-0.981523
1760109112.770558,-0.078196,0.055624,0.009904,0.995336,0.013690,-0.012753,-0.003208,0.000341,0.002747,-0.001050,0.112277,0.154561,-0.981583
1760109112.811508,-0.078058,0.055504,0.009925,0.995353,0.011647,-0.011764,0.000873,-0.000118,0.003918,-0.000847,0.112042,0.154290,-0.981652
1760109112.811753,-0.077921,0.055384,0.009946,0.995370,0.009604,-0.010775,0.004954,-0.000577,0.005089,-0.000645,0.111806,0.154019,-0.981722
1760109112.840488,-0.077842,0.055260,0.010018,0.995383,0.004339,-0.010396,0.006250,-0.000496,0.004405,-0.001539,0.111569,0.153858,-0.981774
1760109112.842443,-0.077826,0.055174,0.010076,0.995388,-0.001416,-0.001493,0.004467,0.000204,0.001952,-0.003592,0.111407,0.153822,-0.981798
1760109112.881111,-0.077860,0.055159,0.010105,0.995386,-0.001849,-0.006429,-0.002184,-0.002053,-0.001036,0.000635,0.111382,0.153888,-0.981791
1760109112.883878,-0.077914,0.055070,0.010032,0.995387,-0.003898,-0.010451,-0.010697,-0.002536,-0.000734,-0.000663,0.111196,0.154004,-0.981793
1760109112.942994,-0.078018,0.055001,0.009888,0.995384,-0.003173,-0.004611,-0.015906,-0.002349,-0.003266,-0.001850,0.111038,0.154228,-0.981776
1760109112.943357,-0.078122,0.054933,0.009744,0.995382,-0.002448,0.001229,-0.021115,-0.002162,-0.005798,-0.003037,0.110880,0.154452,-0.981759
1760109112.943598,-0.078160,0.054988,0.009538,0.995378,-0.002035,0.017813,-0.022780,-0.000011,-0.007295,-0.006594,0.110958,0.154548,-0.981735
1760109112.973627,-0.078205,0.055189,0.009291,0.995365,-0.002913,0.030631,-0.026941,0.000450,-0.005892,-0.007354,0.111321,0.154659,-0.981676
1760109113.002836,-0.078317,0.055539,0.009005,0.995339,-0.014980,0.045191,-0.028152,-0.000688,-0.002465,-0.007316,0.111971,0.154904,-0.981564
1760109113.004790,-0.078471,0.055954,0.008660,0.995307,-0.018837,0.044492,-0.034747,-0.001748,-0.001456,-0.002153,0.112742,0.155236,-0.981423
1760109113.034063,-0.078671,0.056350,0.008301,0.995272,-0.024756,0.041656,-0.031661,-0.001489,0.001474,0.000640,0.113474,0.155662,-0.981271
1760109113.038032,-0.078891,0.056713,0.007987,0.995237,-0.023699,0.036718,-0.027210,-0.001822,0.002223,0.003401,0.114145,0.156124,-0.981120
1760109113.066838,-0.079073,0.057015,0.007726,0.995207,-0.014344,0.025238,-0.023307,-0.002811,0.002075,0.005337,0.114705,0.156508,-0.980994
1760109113.105554,-0.079169,0.057177,0.007510,0.995192,-0.007710,0.019109,-0.016617,-0.000632,0.004627,0.002410,0.114993,0.156717,-0.980926
1760109113.107457,-0.079235,0.057306,0.007387,0.995180,-0.001963,0.013023,-0.009186,0.000935,0.006024,0.001491,0.115230,0.156859,-0.980876
1760109113.136398,-0.079300,0.057422,0.007319,0.995169,-0.004317,0.005629,-0.004770,0.001013,0.007280,0.002805,0.115450,0.156994,-0.980828
1760109113.137317,-0.079398,0.057405,0.007274,0.995162,-0.011151,0.000204,-0.005747,0.000978,0.006719,0.001587,0.115410,0.157192,-0.980801
1760109113.171425,-0.079536,0.057318,0.007230,0.995156,-0.012503,-0.005265,-0.009530,0.002916,0.005027,-0.000109,0.115230,0.157473,-0.980777
1760109113.200465,-0.079703,0.057248,0.007154,0.995148,-0.012048,-0.002687,-0.007612,0.004152,0.004132,-0.003095,0.115080,0.157813,-0.980740
1760109113.202181,-0.079877,0.057223,0.007103,0.995136,-0.011426,-0.002418,-0.004355,0.002970,0.004692,-0.002159,0.115024,0.158163,-0.980691
1760109113.240825,-0.080027,0.057174,0.007065,0.995127,-0.005502,-0.005736,-0.003321,0.001612,0.002879,-0.001001,0.114920,0.158467,-0.980654
1760109113.247128,-0.080089,0.057085,0.007049,0.995127,0.000953,-0.008515,-0.000708,0.001738,0.001782,0.001168,0.114743,0.158593,-0.980654
1760109113.275334,-0.080052,0.057020,0.007070,0.995133,0.009289,-0.006892,0.001179,0.002831,0.000538,0.001242,0.114617,0.158518,-0.980681
1760109113.278527,-0.079934,0.056894,0.007088,0.995150,0.016170,-0.014982,-0.000055,0.001861,0.000455,0.001025,0.114369,0.158287,-0.980747
1760109113.308006,-0.079806,0.056786,0.007104,0.995166,0.012716,-0.013374,0.002613,0.002570,0.002388,-0.002013,0.114157,0.158033,-0.980813
1760109113.346340,-0.079716,0.056672,0.007144,0.995180,0.007418,-0.009825,0.004647,0.003042,0.002446,-0.002596,0.113937,0.157853,-0.980867
1760109113.347598,-0.079669,0.056602,0.007194,0.995187,0.002630,-0.009765,0.003034,0.002386,0.000794,-0.001024,0.113805,0.157757,-0.980898
1760109113.377885,-0.079671,0.056486,0.007232,0.995193,-0.001982,-0.013661,0.002118,0.001765,0.000535,-0.000754,0.113582,0.157758,-0.980924
1760109113.378993,-0.079760,0.056390,0.007268,0.995191,-0.012258,-0.012729,0.001825,0.002407,0.001689,-0.003584,0.113397,0.157933,-0.980917
1760109113.409155,-0.079943,0.056298,0.007316,0.995181,-0.021811,-0.009897,0.001587,0.002671,0.001041,-0.003689,0.113224,0.158291,-0.980879
1760109113.439249,-0.080212,0.056235,0.007371,0.995163,-0.027821,-0.007262,0.000399,0.002587,-0.000772,-0.002172,0.113109,0.158819,-0.980807
1760109113.440049,-0.080505,0.056176,0.007365,0.995143,-0.029386,-0.009612,-0.007398,0.000123,-0.002380,0.001234,0.112992,0.159401,-0.980726
1760109113.470259,-0.080805,0.056069,0.007301,0.995125,-0.030100,-0.010684,-0.010957,-0.000120,-0.001421,0.000933,0.112772,0.160004,-0.980653
1760109113.477562,-0.081122,0.055944,0.007221,0.995107,-0.030485,-0.013540,-0.010179,0.000008,-0.000270,0.000796,0.112512,0.160643,-0.980579
1760109113.507699,-0.081406,0.055832,0.007164,0.995090,-0.027104,-0.010457,-0.008733,0.000971,0.000353,-0.001043,0.112282,0.161212,-0.980512
1760109113.569080,-0.081617,0.055730,0.007051,0.995079,-0.023450,-0.009233,-0.011659,0.001055,0.000910,-0.001482,0.112063,0.161645,-0.980466
1760109113.569404,-0.081829,0.055628,0.006937,0.995068,-0.019797,-0.008010,-0.014584,0.001139,0.001468,-0.001922,0.111843,0.162079,-0.980419
1760109113.569620,-0.082040,0.055526,0.006824,0.995057,-0.016144,-0.006787,-0.017510,0.001223,0.002026,-0.002362,0.111624,0.162512,-0.980372
1760109113.598638,-0.082192,0.055472,0.006670,0.995049,-0.006186,-0.001805,-0.018546,0.001734,0.000918,-0.001267,0.111492,0.162830,-0.980335
1760109113.600782,-0.082187,0.055420,0.006435,0.995054,0.008747,-0.003031,-0.026476,0.001313,0.001438,-0.001694,0.111349,0.162848,-0.980348
1760109113.629129,-0.082080,0.055400,0.006183,0.995065,0.014800,-0.001765,-0.022531,0.000934,0.003739,-0.000091,0.111267,0.162664,-0.980388
1760109113.662184,-0.081908,0.055332,0.005968,0.995085,0.021626,-0.010598,-0.022746,-0.001098,0.005392,0.002629,0.111097,0.162350,-0.980459
1760109113.663999,-0.081712,0.055178,0.005782,0.995111,0.019473,-0.018466,-0.013398,-0.001579,0.008000,0.004983,0.110761,0.161986,-0.980557
1760109113.697316,-0.081548,0.054959,0.005722,0.995136,0.016086,-0.022801,-0.003348,-0.001256,0.006979,0.001971,0.110317,0.161675,-0.980659
1760109113.699289,-0.081408,0.054738,0.005739,0.995160,0.015158,-0.017678,0.004761,0.000546,0.006378,-0.002604,0.109880,0.161400,-0.980753
1760109113.727839,-0.081304,0.054578,0.005822,0.995177,0.010300,-0.009873,0.011305,0.001160,0.004962,-0.005782,0.109576,0.161188,-0.980822
1760109113.757647,-0.081278,0.054524,0.005979,0.995181,0.001465,-0.003366,0.018489,0.000999,0.005688,-0.005389,0.109495,0.161120,-0.980842
1760109113.772718,-0.081350,0.054525,0.006173,0.995174,-0.004947,-0.000446,0.015852,0.000506,0.002906,-0.002010,0.109527,0.161241,-0.980819
1760109113.777921,-0.081481,0.054563,0.006307,0.995160,-0.012298,0.003169,0.011534,0.000415,0.002438,0.000252,0.109626,0.161484,-0.980767
1760109113.808633,-0.081656,0.054599,0.006416,0.995143,-0.014383,0.000319,0.007680,-0.000253,0.002439,0.001928,0.109715,0.161818,-0.980703
1760109113.843569,-0.081815,0.054616,0.006502,0.995129,-0.009706,-0.001183,0.006847,-0.000165,0.001499,0.001994,0.109763,0.162122,-0.980647
1760109113.844852,-0.081898,0.054600,0.006607,0.995122,-0.003673,-0.003985,0.006412,-0.000574,0.001640,0.002318,0.109749,0.162275,-0.980623
1760109113.882415,-0.081871,0.054501,0.006697,0.995129,0.004883,-0.008819,0.005736,-0.000553,0.002456,-0.000682,0.109568,0.162213,-0.980654
1760109113.884918,-0.081831,0.054426,0.006769,0.995136,0.002546,0.000076,0.007878,0.002565,0.005051,-0.005563,0.109430,0.162129,-0.980683
1760109113.914010,-0.081817,0.054400,0.006856,0.995138,0.000025,-0.002061,0.005746,-0.000163,0.004276,-0.001164,0.109393,0.162092,-0.980693
1760109113.916007,-0.081802,0.054320,0.006896,0.995143,0.006221,-0.018543,0.000408,-0.002397,0.001412,0.001913,0.109240,0.162061,-0.980716
1760109113.945280,-0.081738,0.054181,0.006859,0.995156,0.009049,-0.010194,-0.006631,0.001284,0.001073,-0.001591,0.108959,0.161941,-0.980767
1760109113.975903,-0.081646,0.054141,0.006783,0.995167,0.008880,0.003785,-0.008858,0.000590,0.001691,-0.001934,0.108866,0.161769,-0.980805
1760109113.977956,-0.081575,0.054168,0.006680,0.995172,0.012107,0.001373,-0.011270,-0.001855,0.002671,0.001507,0.108902,0.161639,-0.980823
1760109114.018381,-0.081449,0.054144,0.006520,0.995184,0.016726,-0.001572,-0.014108,-0.002046,0.002809,0.000777,0.108829,0.161408,-0.980869
1760109114.020487,-0.081257,0.054179,0.006374,0.995199,0.021965,0.007626,-0.013781,-0.000499,0.002330,-0.003229,0.108873,0.161043,-0.980924
1760109114.049601,-0.080970,0.054290,0.006239,0.995217,0.035544,0.019410,-0.009115,-0.000324,0.000635,-0.004968,0.109071,0.160488,-0.980993
1760109114.056596,-0.080557,0.054507,0.006113,0.995240,0.051340,0.025341,-0.008001,0.000499,0.000061,-0.002829,0.109480,0.159681,-0.981079
1760109114.142683,-0.080025,0.054809,0.005982,0.995267,0.051257,0.024139,-0.006294,-0.000202,0.000428,-0.001247,0.110057,0.158636,-0.981184
1760109114.143018,-0.079492,0.055111,0.005852,0.995294,0.051173,0.022937,-0.004587,-0.000904,0.000794,0.000334,0.110634,0.157591,-0.981288
1760109114.143599,-0.078959,0.055413,0.005721,0.995320,0.051090,0.021735,-0.002880,-0.001606,0.001161,0.001913,0.111211,0.156545,-0.981390
1760109114.144343,-0.078468,0.055631,0.005668,0.995347,0.043958,0.013586,0.003545,-0.001080,0.001460,0.001511,0.111635,0.155575,-0.981496
1760109114.173092,-0.078054,0.055759,0.005710,0.995372,0.036345,0.006601,0.012185,-0.000485,0.002299,0.000559,0.111893,0.154750,-0.981597
1760109114.174769,-0.077734,0.055851,0.005863,0.995391,0.030269,0.004548,0.020216,0.000132,0.000449,0.000718,0.112099,0.154097,-0.981676
1760109114.219986,-0.077445,0.055901,0.006042,0.995410,0.029185,0.001502,0.017557,-0.000237,-0.002638,0.000000,0.112225,0.153503,-0.981755
1760109114.220909,-0.077156,0.055915,0.006187,0.995431,0.030629,0.000411,0.012682,-0.000437,-0.006033,-0.000611,0.112273,0.152915,-0.981841
1760109114.251078,-0.076873,0.055915,0.006251,0.995452,0.029969,-0.000457,0.003179,-0.001235,-0.007659,-0.000568,0.112283,0.152348,-0.981928
1760109114.255897,-0.076584,0.055927,0.006233,0.995474,0.028875,-0.000552,-0.002608,-0.001224,-0.005944,-0.001424,0.112303,0.151778,-0.982014
1760109114.286302,-0.076306,0.055947,0.006192,0.995494,0.021581,0.001684,-0.002987,-0.000340,-0.002984,-0.002572,0.112334,0.151232,-0.982095
1760109114.326592,-0.076111,0.056058,0.006184,0.995503,0.020368,0.005774,-0.000582,-0.000682,-0.004405,-0.001574,0.112553,0.150843,-0.982129
1760109114.326841,-0.075915,0.056169,0.006176,0.995512,0.019154,0.009864,0.001823,-0.001023,-0.005827,-0.000576,0.112772,0.150455,-0.982164
1760109114.355994,-0.075680,0.056325,0.006147,0.995521,0.019522,0.018065,-0.003855,0.000659,-0.007876,-0.003053,0.113076,0.149990,-0.982200
1760109114.358469,-0.075466,0.056561,0.006099,0.995524,0.018502,0.022744,-0.004038,-0.000940,-0.007545,-0.002472,0.113536,0.149567,-0.982211
1760109114.386913,-0.075263,0.056755,0.005999,0.995529,0.015815,0.017833,-0.011455,-0.002198,-0.006788,-0.001127,0.113905,0.149172,-0.982229
1760109114.442589,-0.075155,0.056870,0.005938,0.995531,0.008503,0.016580,-0.006175,-0.001457,-0.005871,-0.001159,0.114124,0.148963,-0.982235
1760109114.442938,-0.075047,0.056985,0.005877,0.995533,0.001191,0.015328,-0.000895,-0.000715,-0.004955,-0.001190,0.114343,0.148753,-0.982241
1760109114.444353,-0.074976,0.057138,0.005869,0.995530,-0.000005,0.017596,0.003085,0.001311,-0.005996,-0.003325,0.114646,0.148612,-0.982228
1760109114.472939,-0.074950,0.057358,0.005883,0.995519,-0.006825,0.026618,0.007464,0.002196,-0.004310,-0.003901,0.115083,0.148553,-0.982185
1760109114.475325,-0.075022,0.057631,0.005955,0.995497,-0.017185,0.026886,0.010759,0.001219,-0.001455,-0.002811,0.115637,0.148682,-0.982101
1760109114.506195,-0.075213,0.057886,0.006036,0.995468,-0.025387,0.022322,0.004352,0.000179,-0.001775,-0.001561,0.116155,0.149045,-0.981985
1760109114.535331,-0.075483,0.058090,0.006043,0.995435,-0.038304,0.019337,-0.002172,0.001183,0.000187,-0.001752,0.116563,0.149575,-0.981856
1760109114.537257,-0.075902,0.058310,0.006025,0.995391,-0.052632,0.020256,-0.005524,0.001663,0.001402,-0.001429,0.116998,0.150401,-0.981678
1760109114.555734,-0.076445,0.058492,0.005968,0.995339,-0.056898,0.016657,-0.009759,0.001288,0.000800,-0.000090,0.117351,0.151479,-0.981470
1760109114.585763,-0.076972,0.058606,0.005915,0.995292,-0.053304,0.010811,-0.007975,0.000335,-0.000040,0.000367,0.117571,0.152526,-0.981281
1760109114.595508,-0.077411,0.058681,0.005849,0.995254,-0.039824,0.001829,-0.010873,0.000271,0.000800,0.000958,0.117711,0.153400,-0.981128
1760109114.625575,-0.077780,0.058715,0.005787,0.995223,-0.037877,0.009705,-0.004878,0.001688,0.005417,-0.002527,0.117769,0.154136,-0.981006
1760109114.659615,-0.078137,0.058803,0.005806,0.995190,-0.037782,0.009679,0.002605,-0.000530,0.008226,-0.000266,0.117948,0.154839,-0.980874
1760109114.661771,-0.078455,0.058843,0.005894,0.995162,-0.027148,-0.001668,0.008672,-0.001281,0.005415,0.002955,0.118042,0.155458,-0.980765
1760109114.693967,-0.078695,0.058876,0.005971,0.995141,-0.020485,0.005968,0.006713,0.000481,0.003157,0.000882,0.118119,0.155923,-0.980681
1760109114.695196,-0.078893,0.058955,0.006064,0.995120,-0.017951,0.013454,0.008182,0.001419,0.003908,-0.001676,0.118292,0.156301,-0.980600
1760109114.742241,-0.079069,0.059062,0.006139,0.995099,-0.008427,0.006681,0.005551,0.000911,0.003631,0.001366,0.118516,0.156638,-0.980520
1760109114.744303,-0.079154,0.059108,0.006182,0.995089,-0.000531,0.004343,0.003419,0.000366,0.001457,0.000548,0.118614,0.156800,-0.980482
1760109114.774618,-0.079134,0.059167,0.006183,0.995087,0.007685,0.008712,-0.001961,0.002430,0.000697,-0.001952,0.118731,0.156760,-0.980474
1760109114.776733,-0.079034,0.059258,0.006128,0.995090,0.014963,0.006514,-0.005830,0.001908,0.000841,-0.001504,0.118904,0.156565,-0.980484
1760109114.805566,-0.078915,0.059366,0.006063,0.995094,0.013836,0.013110,-0.005847,0.001927,0.002577,-0.003057,0.119106,0.156335,-0.980496
1760109114.835960,-0.078764,0.059510,0.005968,0.995098,0.015245,0.015129,-0.010594,0.002419,0.000472,-0.000934,0.119377,0.156045,-0.980510
1760109114.838049,-0.078611,0.059664,0.005814,0.995101,0.018128,0.014282,-0.014578,0.001937,-0.000140,0.000640,0.119658,0.155759,-0.980521
1760109114.866689,-0.078463,0.059797,0.005627,0.995106,0.015771,0.017755,-0.017733,0.003978,-0.000685,-0.001336,0.119891,0.155486,-0.980536
1760109114.897885,-0.078336,0.059961,0.005437,0.995107,0.012694,0.018080,-0.015873,0.002388,0.000338,-0.000432,0.120187,0.155254,-0.980536
1760109114.898702,-0.078183,0.060156,0.005232,0.995109,0.018268,0.016823,-0.013178,0.002049,-0.000237,0.000019,0.120542,0.154972,-0.980537
1760109114.928827,-0.077999,0.060295,0.005070,0.995115,0.022206,0.010443,-0.011555,0.000783,-0.000532,0.002999,0.120792,0.154625,-0.980561
1760109114.933614,-0.077774,0.060377,0.004960,0.995129,0.023759,0.003496,-0.004739,0.001557,0.000258,0.002195,0.120937,0.154191,-0.980612
1760109114.962684,-0.077531,0.060407,0.004931,0.995146,0.021819,-0.001045,0.001896,0.000678,0.000521,0.001274,0.120992,0.153713,-0.980680
1760109114.992803,-0.077330,0.060402,0.004962,0.995162,0.016135,-0.004737,0.007247,0.000786,0.000919,-0.001166,0.120986,0.153313,-0.980743
1760109114.993754,-0.077196,0.060366,0.005043,0.995174,0.010563,-0.005059,0.008766,0.000853,-0.000712,-0.002025,0.120928,0.153039,-0.980793
1760109115.042683,-0.077098,0.060331,0.005133,0.995183,0.010747,-0.006859,0.007235,0.001113,-0.001873,-0.001014,0.120871,0.152834,-0.980832
1760109115.043611,-0.077015,0.060278,0.005190,0.995193,0.007712,-0.006519,0.004396,0.002043,-0.001709,-0.000525,0.120777,0.152664,-0.980870
1760109115.074903,-0.076953,0.060223,0.005248,0.995200,0.002324,-0.003196,0.004207,0.003316,-0.003289,-0.001401,0.120675,0.152534,-0.980903
1760109115.077357,-0.076908,0.060178,0.005294,0.995206,0.003194,-0.005579,0.002190,0.002426,-0.003441,-0.000255,0.120593,0.152442,-0.980928
1760109115.106705,-0.076872,0.060120,0.005301,0.995213,0.001485,-0.002227,-0.000838,0.002341,-0.003583,-0.001492,0.120479,0.152370,-0.980953
1760109115.114265,-0.076843,0.060048,0.005316,0.995219,-0.001067,-0.011985,0.002572,0.000569,-0.001714,0.000689,0.120339,0.152312,-0.980979
1760109115.144546,-0.076858,0.059927,0.005340,0.995225,-0.005808,-0.020768,0.000962,0.000088,-0.000613,0.001106,0.120102,0.152341,-0.981003
1760109115.174810,-0.076955,0.059710,0.005397,0.995230,-0.018112,-0.021539,0.006396,0.001329,0.000688,-0.001589,0.119681,0.152532,-0.981025
1760109115.175119,-0.077133,0.059567,0.005515,0.995224,-0.021163,-0.015170,0.011859,0.000824,-0.000292,-0.003562,0.119416,0.152873,-0.981004
1760109115.202839,-0.077332,0.059487,0.005642,0.995213,-0.025170,-0.003657,0.010445,0.003563,-0.000737,-0.006465,0.119277,0.153252,-0.980962
1760109115.233561,-0.077608,0.059549,0.005760,0.995187,-0.034468,0.012362,0.009872,0.003040,0.000521,-0.007009,0.119418,0.153783,-0.980862
1760109115.234929,-0.077980,0.059680,0.005853,0.995150,-0.041212,0.009542,0.003506,0.000946,-0.000190,-0.002220,0.119694,0.154505,-0.980715
1760109115.264827,-0.078406,0.059744,0.005869,0.995112,-0.044493,0.002375,-0.006560,0.000569,0.001218,0.000442,0.119824,0.155344,-0.980566
1760109115.298565,-0.078859,0.059738,0.005808,0.995077,-0.050158,0.002060,-0.010280,0.001638,0.004076,-0.001107,0.119805,0.156247,-0.980425
1760109115.300506,-0.079336,0.059727,0.005768,0.995040,-0.047636,-0.001438,-0.007293,0.001243,0.004501,0.001723,0.119777,0.157196,-0.980277
1760109115.349587,-0.079680,0.059616,0.005755,0.995019,-0.035875,-0.006536,-0.005213,0.000727,0.003059,0.001847,0.119555,0.157880,-0.980194
1760109115.349873,-0.080024,0.059505,0.005741,0.994999,-0.024113,-0.011634,-0.003133,0.000212,0.001618,0.001972,0.119334,0.158564,-0.980111
1760109115.353332,-0.080247,0.059320,0.005723,0.994992,-0.015237,-0.021423,-0.005662,-0.000006,0.002913,0.001923,0.118964,0.159010,-0.980083
1760109115.381600,-0.080475,0.059138,0.005705,0.994984,-0.020897,-0.023002,-0.003693,0.001202,0.006170,-0.000233,0.118601,0.159468,-0.980053
1760109115.412487,-0.080782,0.058955,0.005716,0.994970,-0.027727,-0.021101,-0.001169,-0.001403,0.006112,-0.001001,0.118241,0.160077,-0.979997
1760109115.414563,-0.081052,0.058739,0.005723,0.994961,-0.020091,-0.016442,-0.005919,0.000969,0.002224,-0.001462,0.117814,0.160614,-0.979961
1760109115.443104,-0.081189,0.058557,0.005695,0.994961,-0.009302,-0.016458,-0.003721,-0.000725,0.001641,-0.000305,0.117449,0.160893,-0.979959
1760109115.473903,-0.081307,0.058429,0.005753,0.994958,-0.004304,-0.014978,0.009553,-0.002256,0.004488,-0.000169,0.117205,0.161121,-0.979950
1760109115.475551,-0.081319,0.058251,0.005864,0.994967,0.004945,-0.019670,0.014957,-0.002999,0.003292,0.000408,0.116869,0.161136,-0.979988
1760109115.506412,-0.081244,0.058097,0.006065,0.994981,0.011022,-0.017670,0.016281,-0.001135,0.002143,-0.001677,0.116595,0.160967,-0.980049
1760109115.535774,-0.081091,0.057989,0.006232,0.994999,0.017840,-0.010139,0.010912,-0.000220,0.000258,-0.002777,0.116408,0.160647,-0.980123
1760109115.537328,-0.080931,0.057905,0.006326,0.995016,0.017785,-0.005605,0.004020,-0.000164,-0.001265,-0.003181,0.116257,0.160322,-0.980194
1760109115.566843,-0.080784,0.057864,0.006343,0.995030,0.012154,0.001634,-0.001414,-0.000071,-0.001380,-0.002893,0.116177,0.160032,-0.980251
1760109115.574289,-0.080717,0.057876,0.006273,0.995036,0.007819,0.005966,-0.010075,-0.000038,-0.001422,-0.002788,0.116189,0.159906,-0.980270
1760109115.604092,-0.080694,0.057941,0.006120,0.995035,0.002451,0.006945,-0.015556,0.000705,-0.000752,-0.001778,0.116293,0.159877,-0.980263
1760109115.644827,-0.080732,0.058021,0.005956,0.995028,-0.002140,0.005450,-0.014469,0.000876,-0.000039,-0.000489,0.116426,0.159970,-0.980232
1760109115.645122,-0.080770,0.058101,0.005793,0.995021,-0.006730,0.003955,-0.013383,0.001047,0.000674,0.000800,0.116559,0.160063,-0.980201
1760109115.674028,-0.080854,0.058111,0.005638,0.995015,-0.010479,-0.002428,-0.012125,0.001108,0.000930,0.001263,0.116555,0.160246,-0.980172
1760109115.678056,-0.080979,0.058081,0.005553,0.995007,-0.013245,-0.002374,-0.006609,0.001473,0.001378,0.000114,0.116482,0.160505,-0.980138
1760109115.706498,-0.081135,0.058041,0.005504,0.994996,-0.013765,-0.005325,-0.005320,0.001113,0.000293,0.000141,0.116394,0.160820,-0.980097
1760109115.712923,-0.081297,0.058005,0.005444,0.994986,-0.015059,-0.003183,-0.007899,0.001784,0.000111,-0.000189,0.116313,0.161147,-0.980052
1760109115.742959,-0.081446,0.057919,0.005393,0.994979,-0.011625,-0.005607,-0.006250,0.002404,-0.000553,0.000235,0.116136,0.161449,-0.980024
1760109115.771525,-0.081573,0.057879,0.005342,0.994971,-0.006167,-0.006935,-0.007708,0.002105,-0.000144,0.000726,0.116047,0.161707,-0.979992
1760109115.773403,-0.081651,0.057787,0.005304,0.994970,-0.003745,-0.008517,-0.005370,0.002345,0.000359,-0.000426,0.115859,0.161868,-0.979988
1760109115.803011,-0.081721,0.057707,0.005295,0.994969,-0.004896,-0.008412,0.000565,0.002220,0.000133,-0.000389,0.115699,0.162009,-0.979983
1760109115.833402,-0.081757,0.057643,0.005306,0.994970,-0.003120,-0.006260,0.001967,0.001965,-0.000351,0.000067,0.115574,0.162079,-0.979986
1760109115.845281,-0.081786,0.057557,0.005314,0.994972,0.000186,-0.012089,-0.002271,0.001592,-0.001374,0.000225,0.115405,0.162137,-0.979997
1760109115.890824,-0.081787,0.057421,0.005327,0.994980,-0.001340,-0.018338,0.000060,0.000435,-0.000656,0.001153,0.115137,0.162140,-0.980028
1760109115.891206,-0.081787,0.057285,0.005341,0.994988,-0.002865,-0.024588,0.002392,-0.000721,0.000061,0.002080,0.114869,0.162143,-0.980059
1760109115.891358,-0.081804,0.057076,0.005404,0.994998,-0.004092,-0.027479,0.005877,-0.000460,-0.000385,0.001164,0.114464,0.162173,-0.980101
1760109115.942493,-0.081854,0.056847,0.005497,0.995007,-0.003355,-0.023794,0.004326,0.000048,-0.002360,-0.000528,0.114027,0.162265,-0.980137
1760109115.942832,-0.081903,0.056619,0.005590,0.995015,-0.002618,-0.020108,0.002774,0.000557,-0.004335,-0.002220,0.113590,0.162357,-0.980172
1760109115.971452,-0.081942,0.056468,0.005651,0.995020,-0.004303,-0.008613,0.001433,0.000517,-0.003022,-0.005696,0.113299,0.162430,-0.980194
1760109115.972693,-0.082046,0.056427,0.005690,0.995014,-0.017444,0.008149,0.003015,0.001430,-0.000480,-0.008231,0.113224,0.162632,-0.980169
1760109116.003626,-0.082274,0.056516,0.005737,0.994989,-0.024743,0.008085,0.000641,0.000522,0.001268,-0.004248,0.113409,0.163075,-0.980074
1760109116.032839,-0.082519,0.056596,0.005709,0.994965,-0.026547,0.006882,-0.006480,0.000177,0.000430,-0.001439,0.113565,0.163561,-0.979975
1760109116.036671,-0.082760,0.056643,0.005631,0.994942,-0.026098,0.005157,-0.009593,-0.000471,0.000804,-0.000137,0.113645,0.164045,-0.979885
1760109116.067535,-0.082994,0.056706,0.005547,0.994920,-0.021146,0.006835,-0.010022,-0.000158,0.000270,-0.000046,0.113757,0.164515,-0.979793
1760109116.069554,-0.083128,0.056723,0.005444,0.994908,-0.007624,0.001511,-0.009912,-0.002052,-0.000697,0.002041,0.113773,0.164792,-0.979744
1760109116.106310,-0.083142,0.056703,0.005343,0.994909,0.003999,-0.006521,-0.006614,-0.003248,0.001588,0.002992,0.113718,0.164832,-0.979744
1760109116.111228,-0.083089,0.056606,0.005270,0.994919,0.001180,-0.003092,-0.003114,-0.002319,0.006284,-0.000880,0.113512,0.164736,-0.979784
1760109116.141316,-0.083125,0.056555,0.005276,0.994919,-0.005628,-0.013608,0.001473,-0.000316,0.007285,-0.000949,0.113413,0.164808,-0.979783
1760109116.170596,-0.083247,0.056466,0.005261,0.994914,-0.018532,-0.003803,-0.006787,0.002542,0.005923,-0.008975,0.113234,0.165054,-0.979763
1760109116.172650,-0.083513,0.056552,0.005147,0.994887,-0.031306,0.024733,-0.016779,0.007816,0.005492,-0.012378,0.113385,0.165589,-0.979655
1760109116.204841,-0.083901,0.056822,0.004987,0.994840,-0.035600,0.031249,-0.017129,0.003232,0.004027,-0.003608,0.113895,0.166370,-0.979464
1760109116.242335,-0.084059,0.056984,0.004735,0.994819,-0.010077,0.012020,-0.020008,0.001257,0.002625,0.002234,0.114173,0.166708,-0.979374
1760109116.242629,-0.084218,0.057145,0.004484,0.994797,0.015446,-0.007208,-0.022887,-0.000718,0.001224,0.008076,0.114450,0.167046,-0.979284
1760109116.271452,-0.084035,0.057096,0.004313,0.994816,0.036647,-0.015845,-0.004748,-0.000531,0.003439,0.006205,0.114325,0.166707,-0.979356
1760109116.275541,-0.083611,0.056952,0.004372,0.994860,0.053990,-0.026096,0.016372,-0.002865,0.005452,0.005636,0.114049,0.165865,-0.979531
1760109116.304860,-0.083025,0.056663,0.004639,0.994924,0.060944,-0.036780,0.034218,-0.003454,0.004080,0.004632,0.113521,0.164680,-0.979792
1760109116.334620,-0.082427,0.056314,0.005056,0.994992,0.058467,-0.039652,0.043981,-0.003670,0.001674,0.000606,0.112898,0.163460,-0.980069
1760109116.336696,-0.081927,0.056031,0.005471,0.995047,0.047570,-0.033241,0.037610,-0.003143,-0.001274,-0.004293,0.112403,0.162429,-0.980297
1760109116.365600,-0.081630,0.055853,0.005772,0.995080,0.024429,-0.006782,0.023715,-0.000395,-0.003075,-0.010188,0.112098,0.161813,-0.980434
1760109116.395916,-0.081496,0.055836,0.005891,0.995091,0.012550,0.004196,0.000339,-0.001978,-0.007300,-0.008934,0.112084,0.161534,-0.980482
1760109116.398097,-0.081472,0.055931,0.005740,0.995088,-0.000797,0.021842,-0.023617,-0.001119,-0.007113,-0.009356,0.112248,0.161502,-0.980468
1760109116.429289,-0.081546,0.056151,0.005394,0.995072,-0.010198,0.035175,-0.036259,-0.000390,-0.005211,-0.008554,0.112629,0.161683,-0.980395
1760109116.459797,-0.081707,0.056495,0.004961,0.995042,-0.015884,0.043286,-0.041816,-0.000135,-0.002626,-0.004554,0.113241,0.162043,-0.980265
1760109116.460127,-0.081861,0.056890,0.004511,0.995009,-0.019579,0.043457,-0.037000,-0.002035,0.001348,-0.002317,0.113950,0.162391,-0.980125
1760109116.489833,-0.082005,0.057264,0.004204,0.994977,-0.018862,0.034842,-0.021279,-0.002840,0.003160,0.000732,0.114641,0.162704,-0.979992
1760109116.492691,-0.082105,0.057568,0.004023,0.994951,-0.007252,0.030362,-0.010681,-0.001354,0.002141,0.001062,0.115216,0.162919,-0.979889
1760109116.552699,-0.082022,0.057824,0.003960,0.994944,0.005187,0.026096,-0.005836,-0.000425,0.001140,0.000691,0.115713,0.162757,-0.979858
1760109116.553132,-0.081939,0.058080,0.003897,0.994936,0.017626,0.021831,-0.000990,0.000503,0.000139,0.000320,0.116210,0.162595,-0.979826
1760109116.553976,-0.081775,0.058311,0.003863,0.994936,0.019336,0.028295,0.002700,0.002096,0.000912,-0.001103,0.116663,0.162272,-0.979825
1760109116.579251,-0.081582,0.058562,0.003851,0.994937,0.025425,0.023364,0.000169,0.002745,-0.000429,0.002940,0.117160,0.161886,-0.979830
1760109116.609241,-0.081306,0.058764,0.003788,0.994948,0.029965,0.019954,-0.003020,0.002862,0.001222,0.000162,0.117550,0.161345,-0.979872
1760109116.612881,-0.081050,0.058990,0.003766,0.994956,0.024434,0.025271,0.006343,0.003043,0.001676,-0.001633,0.117995,0.160837,-0.979902
1760109116.676231,-0.080804,0.059084,0.003820,0.994970,0.022345,0.009801,0.007512,0.002221,0.001740,0.000508,0.118192,0.160343,-0.979960
1760109116.676546,-0.080558,0.059179,0.003875,0.994984,0.020256,-0.005669,0.008681,0.001399,0.001803,0.002650,0.118388,0.159849,-0.980017
1760109116.679510,-0.080402,0.059185,0.003997,0.994996,0.015059,-0.007779,0.015073,0.002489,-0.000152,0.000162,0.118420,0.159527,-0.980065
1760109116.707172,-0.080245,0.059147,0.004138,0.995010,0.017995,-0.000698,0.014340,0.002977,-0.003856,-0.003350,0.118368,0.159200,-0.980125
1760109116.709341,-0.080064,0.059194,0.004293,0.995021,0.016672,0.000093,0.015820,0.002236,-0.002104,-0.002213,0.118487,0.158822,-0.980172
1760109116.739372,-0.079995,0.059253,0.004475,0.995022,0.000430,0.002532,0.018648,0.001115,0.000255,-0.001613,0.118632,0.158664,-0.980180
1760109116.773446,-0.080071,0.059269,0.004659,0.995015,-0.013998,-0.001756,0.014301,0.001202,0.000298,-0.000844,0.118692,0.158791,-0.980152
1760109116.774831,-0.080276,0.059304,0.004806,0.994995,-0.027707,0.000151,0.005471,0.001484,-0.001320,-0.000993,0.118785,0.159178,-0.980078
1760109116.804951,-0.080585,0.059310,0.004850,0.994970,-0.034206,-0.001549,-0.004326,0.000271,-0.001361,-0.001257,0.118805,0.159784,-0.979977
1760109116.811859,-0.080903,0.059242,0.004810,0.994948,-0.029088,-0.007487,-0.006828,0.000120,-0.001445,0.001682,0.118664,0.160418,-0.979890
1760109116.843518,-0.081165,0.059137,0.004784,0.994933,-0.019470,-0.009855,-0.004282,-0.000425,-0.001301,0.001454,0.118451,0.160941,-0.979830
1760109116.872975,-0.081311,0.059029,0.004784,0.994928,-0.010958,-0.015566,-0.003412,-0.000693,0.000335,0.000793,0.118237,0.161232,-0.979808
1760109116.888750,-0.081436,0.058933,0.004778,0.994923,-0.020029,-0.000893,0.000249,0.001580,0.004185,-0.002202,0.118046,0.161481,-0.979790
1760109116.890052,-0.081663,0.058834,0.004846,0.994910,-0.027929,-0.011592,0.003229,-0.001024,0.004804,0.001970,0.117860,0.161925,-0.979739
1760109116.919015,-0.081917,0.058669,0.004896,0.994899,-0.021357,-0.021754,-0.000228,-0.001601,0.001798,0.000335,0.117542,0.162423,-0.979695
1760109116.949585,-0.082120,0.058539,0.004837,0.994890,-0.014718,-0.008450,-0.006307,0.002584,0.000546,-0.004464,0.117275,0.162834,-0.979659
1760109116.951564,-0.082283,0.058485,0.004828,0.994880,-0.010381,0.001809,-0.000925,0.001573,0.001445,-0.003703,0.117165,0.163158,-0.979618
1760109116.980204,-0.082370,0.058447,0.004842,0.994875,-0.000204,-0.004592,0.000410,-0.000837,-0.000223,0.000818,0.117092,0.163329,-0.979598
1760109117.012177,-0.082341,0.058283,0.004934,0.994886,0.005899,-0.017997,0.011964,0.000027,0.002475,0.003676,0.116783,0.163265,-0.979646
1760109117.013609,-0.082219,0.058197,0.005068,0.994901,0.013816,-0.008004,0.014439,0.001357,0.000765,-0.002322,0.116634,0.163010,-0.979706
1760109117.043020,-0.082019,0.058196,0.005179,0.994917,0.027407,-0.000590,0.010560,0.000043,-0.001787,-0.002618,0.116650,0.162600,-0.979772
1760109117.049422,-0.081720,0.058159,0.005225,0.994943,0.031901,0.000157,0.002559,0.000857,-0.002885,-0.001483,0.116584,0.162006,-0.979879
1760109117.079716,-0.081442,0.058189,0.005238,0.994964,0.027813,0.002139,-0.000543,0.000899,-0.001008,-0.000291,0.116644,0.161454,-0.979963
1760109117.108607,-0.081188,0.058220,0.005216,0.994983,0.021895,0.001101,-0.003067,0.001146,-0.000043,-0.000462,0.116702,0.160954,-0.980038
1760109117.152130,-0.081038,0.058293,0.005170,0.994991,0.014010,0.003260,-0.004648,0.000381,-0.001161,-0.000844,0.116840,0.160660,-0.980070
1760109117.152479,-0.080887,0.058366,0.005124,0.995000,0.006126,0.005418,-0.006228,-0.000384,-0.002278,-0.001226,0.116977,0.160367,-0.980101
1760109117.152806,-0.080836,0.058406,0.005053,0.995002,0.003197,0.003068,-0.007657,0.000918,-0.002016,-0.000101,0.117046,0.160273,-0.980109
1760109117.182636,-0.080788,0.058389,0.004961,0.995007,0.000321,-0.004344,-0.009049,0.000441,-0.001672,0.001087,0.116997,0.160189,-0.980128
1760109117.187271,-0.080788,0.058379,0.004880,0.995008,-0.002633,-0.002378,-0.006865,0.001448,-0.001955,-0.001491,0.116963,0.160199,-0.980130
1760109117.219189,-0.080796,0.058325,0.004804,0.995011,-0.005099,-0.003438,-0.008528,0.000887,-0.001755,-0.001283,0.116844,0.160225,-0.980141
1760109117.249273,-0.080847,0.058292,0.004715,0.995009,-0.004708,-0.004068,-0.006723,0.002090,-0.002153,-0.000999,0.116765,0.160338,-0.980132
1760109117.250078,-0.080881,0.058246,0.004622,0.995010,-0.003757,-0.007744,-0.009049,0.001658,-0.001471,0.000474,0.116659,0.160415,-0.980131
1760109117.281341,-0.080927,0.058201,0.004544,0.995009,-0.006052,-0.006775,-0.009105,0.001616,-0.001855,-0.000659,0.116557,0.160517,-0.980127
1760109117.287508,-0.081007,0.058119,0.004501,0.995007,-0.011682,-0.007009,-0.007791,0.000416,-0.000477,-0.000169,0.116386,0.160682,-0.980120
1760109117.316518,-0.081113,0.058030,0.004483,0.995004,-0.011937,-0.013976,-0.000678,0.000035,0.000441,0.001479,0.116208,0.160896,-0.980106
1760109117.346435,-0.081245,0.057888,0.004519,0.995001,-0.016235,-0.013269,0.003500,0.000691,-0.000115,0.000493,0.115932,0.161154,-0.980096
1760109117.347701,-0.081370,0.057718,0.004582,0.995001,-0.013172,-0.018827,0.005491,0.002580,-0.001920,0.000588,0.115605,0.161398,-0.980095
1760109117.377666,-0.081519,0.057570,0.004624,0.994997,-0.016480,-0.011242,0.001779,0.002488,-0.001093,-0.002680,0.115317,0.161689,-0.980081
1760109117.408236,-0.081691,0.057430,0.004676,0.994991,-0.014307,-0.020153,-0.001302,0.000053,-0.001721,-0.000161,0.115049,0.162027,-0.980057
1760109117.409496,-0.081811,0.057159,0.004674,0.994996,-0.010750,-0.033233,-0.004223,-0.001402,-0.001598,0.001377,0.114511,0.162269,-0.980080
1760109117.442766,-0.081904,0.056861,0.004715,0.995006,-0.012279,-0.024743,0.004620,0.001989,-0.000074,-0.003528,0.113927,0.162454,-0.980117
1760109117.448479,-0.081963,0.056739,0.004789,0.995007,-0.000344,-0.010276,0.004921,0.002043,-0.003826,-0.003604,0.113695,0.162565,-0.980125
1760109117.478525,-0.081923,0.056718,0.004803,0.995012,0.001581,0.003530,0.003271,0.001421,-0.001789,-0.003339,0.113656,0.162483,-0.980144
1760109117.511132,-0.081910,0.056811,0.004862,0.995007,-0.007186,0.005574,0.007898,-0.000763,0.002158,-0.003226,0.113852,0.162450,-0.980126
1760109117.511385,-0.082061,0.056890,0.004958,0.994990,-0.017999,0.006756,0.005504,-0.001911,0.002760,-0.004877,0.114024,0.162735,-0.980059
1760109117.538934,-0.082227,0.056951,0.004972,0.994973,-0.019472,0.005569,-0.004439,-0.001150,0.000885,-0.001271,0.114147,0.163061,-0.979990
1760109117.570064,-0.082405,0.056955,0.004909,0.994958,-0.019613,-0.000348,-0.009692,-0.000256,0.001315,0.001790,0.114145,0.163421,-0.979931
1760109117.599388,-0.082591,0.056860,0.004854,0.994948,-0.015620,-0.008175,-0.005170,-0.000742,0.002206,0.002063,0.113948,0.163795,-0.979891
1760109117.599695,-0.082776,0.056765,0.004800,0.994939,-0.011627,-0.016003,-0.000648,-0.001227,0.003098,0.002337,0.113751,0.164169,-0.979852
1760109117.629603,-0.082895,0.056601,0.004827,0.994938,-0.008766,-0.015106,0.003794,-0.000489,0.001904,-0.000631,0.113430,0.164404,-0.979849
1760109117.631703,-0.082961,0.056434,0.004886,0.994942,-0.004847,-0.010369,0.004013,0.000886,0.002352,-0.002245,0.113108,0.164531,-0.979865
1760109117.663568,-0.083051,0.056332,0.004952,0.994939,-0.006830,-0.018453,0.002997,-0.000035,0.001171,0.002127,0.112917,0.164704,-0.979858
1760109117.669420,-0.083187,0.056153,0.004995,0.994938,-0.009375,-0.021848,0.002523,-0.000716,0.000500,0.000358,0.112568,0.164970,-0.979854
1760109117.697671,-0.083321,0.055977,0.004970,0.994937,-0.012595,-0.007023,-0.008544,0.003164,0.001837,-0.006555,0.112215,0.165241,-0.979849
1760109117.742313,-0.083491,0.056029,0.004956,0.994920,-0.010884,-0.001402,-0.004287,0.001828,0.001334,-0.003384,0.112317,0.165578,-0.979780
1760109117.742619,-0.083661,0.056082,0.004942,0.994903,-0.009173,0.004220,-0.000030,0.000492,0.000831,-0.000214,0.112419,0.165914,-0.979711
1760109117.746865,-0.083725,0.056044,0.004897,0.994900,-0.000154,-0.011061,-0.005681,-0.001052,-0.000576,0.005278,0.112335,0.166047,-0.979698
1760109117.775175,-0.083740,0.055955,0.004875,0.994903,0.000294,-0.002509,-0.003368,0.000278,0.000847,0.000080,0.112156,0.166082,-0.979713
1760109117.806128,-0.083726,0.055851,0.004841,0.994911,0.006736,-0.013038,-0.006760,-0.001525,0.001849,0.002983,0.111944,0.166059,-0.979741
1760109117.807652,-0.083699,0.055755,0.004774,0.994919,0.002734,-0.011225,-0.006325,0.000526,0.002402,-0.000431,0.111743,0.166015,-0.979772
1760109117.858666,-0.083704,0.055674,0.004769,0.994923,0.001022,-0.004180,-0.001865,0.000713,0.001526,-0.002346,0.111581,0.166026,-0.979788
1760109117.858966,-0.083708,0.055592,0.004764,0.994927,-0.000689,0.002866,0.002595,0.000901,0.000650,-0.004260,0.111418,0.166038,-0.979805
1760109117.889624,-0.083722,0.055590,0.004748,0.994926,-0.002195,0.002440,-0.003185,0.000912,-0.000106,-0.000767,0.111411,0.166067,-0.979801
1760109117.891669,-0.083816,0.055659,0.004716,0.994914,-0.011030,0.006347,-0.004793,0.001080,-0.000318,-0.001116,0.111542,0.166254,-0.979754
1760109117.930792,-0.083966,0.055706,0.004623,0.994899,-0.012829,0.000212,-0.009221,0.000131,-0.000613,-0.000772,0.111620,0.166560,-0.979693
1760109117.932106,-0.084122,0.055700,0.004518,0.994887,-0.014720,0.004093,-0.010623,0.001650,-0.000665,-0.000995,0.111591,0.166880,-0.979642
1760109117.962518,-0.084247,0.055664,0.004410,0.994879,-0.006040,-0.006274,-0.007844,-0.000349,-0.001071,0.001973,0.111501,0.167140,-0.979608
1760109117.967113,-0.084279,0.055623,0.004374,0.994879,-0.002244,-0.003244,0.000605,0.000188,0.000282,-0.000149,0.111414,0.167209,-0.979606
1760109117.997260,-0.084240,0.055581,0.004381,0.994885,0.005481,-0.007290,0.001362,-0.000954,-0.000197,0.000391,0.111331,0.167132,-0.979629
1760109118.042810,-0.084148,0.055494,0.004441,0.994897,0.006676,-0.008503,0.003407,-0.000937,0.000027,0.000147,0.111170,0.166945,-0.979679
1760109118.043426,-0.084057,0.055408,0.004501,0.994909,0.007870,-0.009715,0.005453,-0.000919,0.000251,-0.000096,0.111009,0.166759,-0.979729
1760109118.044820,-0.083966,0.055326,0.004558,0.994921,0.005924,-0.011573,0.005599,-0.000915,0.000295,-0.000144,0.110855,0.166575,-0.979778
1760109118.075262,-0.083962,0.055204,0.004621,0.994928,-0.001476,-0.007239,0.006577,0.000255,0.000503,-0.001680,0.110624,0.166562,-0.979806
1760109118.108452,-0.083960,0.055142,0.004714,0.994931,-0.003053,-0.005179,0.010079,-0.000320,-0.002137,-0.002531,0.110517,0.166549,-0.979820
1760109118.110508,-0.083959,0.055092,0.004812,0.994933,0.001780,-0.006495,0.007077,-0.000615,-0.003758,-0.003801,0.110433,0.166536,-0.979832
1760109118.139156,-0.083924,0.055085,0.004876,0.994936,0.002746,0.003897,0.007126,-0.000408,-0.003559,-0.004594,0.110431,0.166462,-0.979845
1760109118.146738,-0.083878,0.055037,0.004936,0.994943,0.004956,-0.009079,0.005910,-0.002138,-0.002940,0.001800,0.110345,0.166364,-0.979871
1760109118.176909,-0.083850,0.054901,0.004998,0.994952,-0.004063,-0.014283,0.005520,-0.000034,0.000533,0.000331,0.110086,0.166304,-0.979910
1760109118.207370,-0.083924,0.054747,0.005099,0.994954,-0.011490,-0.009741,0.010016,0.000150,-0.001143,-0.003291,0.109798,0.166443,-0.979919
1760109118.207653,-0.083991,0.054682,0.005170,0.994952,-0.005593,-0.001764,0.002403,0.000217,-0.003848,-0.003823,0.109680,0.166568,-0.979911
1760109118.235151,-0.084050,0.054706,0.005168,0.994945,-0.009553,0.008533,-0.002479,0.000993,-0.000396,-0.005724,0.109727,0.166684,-0.979886
1760109118.265904,-0.084253,0.054864,0.005190,0.994919,-0.030418,0.017078,0.007058,0.001818,0.004789,-0.006185,0.110045,0.167080,-0.979783
1760109118.270390,-0.084596,0.054998,0.005272,0.994882,-0.035756,0.010726,0.003097,-0.001101,0.001906,-0.000769,0.110325,0.167747,-0.979637
1760109118.299387,-0.084919,0.055046,0.005285,0.994852,-0.034789,0.001763,-0.003859,-0.000569,0.002863,0.001999,0.110423,0.168382,-0.979517
1760109118.342339,-0.085287,0.055055,0.005288,0.994820,-0.031927,-0.003977,-0.002576,-0.001643,0.002666,0.002738,0.110442,0.169107,-0.979390
1760109118.342667,-0.085654,0.055064,0.005290,0.994788,-0.029065,-0.009716,-0.001293,-0.002717,0.002470,0.003476,0.110460,0.169833,-0.979263
1760109118.344294,-0.085927,0.054940,0.005340,0.994771,-0.015402,-0.016300,0.002394,-0.002136,0.002182,0.003730,0.110224,0.170369,-0.979196
1760109118.372673,-0.086043,0.054726,0.005360,0.994773,-0.006378,-0.014779,-0.000760,0.000473,0.003124,0.001187,0.109802,0.170599,-0.979203
1760109118.402739,-0.086143,0.054621,0.005420,0.994770,-0.010410,-0.006601,0.005673,0.002432,0.005821,-0.003223,0.109605,0.170794,-0.979192
1760109118.403759,-0.086282,0.054543,0.005521,0.994761,-0.009817,-0.010573,0.009528,0.001091,0.005590,-0.000644,0.109467,0.171058,-0.979161
1760109118.442557,-0.086393,0.054448,0.005628,0.994756,-0.001000,-0.022691,0.008532,-0.001093,0.001925,-0.000937,0.109298,0.171267,-0.979143
1760109118.444504,-0.086322,0.054325,0.005660,0.994769,0.013740,0.000388,-0.000259,0.005301,0.000938,-0.005234,0.109059,0.171126,-0.979195
1760109118.474743,-0.086145,0.054342,0.005671,0.994783,0.024917,-0.000176,0.010560,0.001754,0.003523,0.000343,0.109095,0.170775,-0.979252
1760109118.504003,-0.085893,0.054427,0.005805,0.994800,0.031687,0.000519,0.015346,-0.000023,0.003716,0.002810,0.109285,0.170261,-0.979320
1760109118.506095,-0.085542,0.054389,0.005926,0.994831,0.044564,-0.007027,0.014720,-0.000262,0.001263,0.003319,0.109230,0.169555,-0.979449
1760109118.535417,-0.085050,0.054355,0.006036,0.994875,0.052090,-0.008789,0.011942,0.000835,0.000515,0.001209,0.109179,0.168572,-0.979624
1760109118.567731,-0.084547,0.054372,0.006142,0.994916,0.052266,0.003580,0.010753,0.000756,0.000490,-0.002696,0.109229,0.167567,-0.979791
1760109118.567974,-0.084034,0.054385,0.006166,0.994959,0.054976,-0.000334,0.004157,0.000019,-0.000510,-0.000989,0.109258,0.166549,-0.979961
1760109118.596857,-0.083532,0.054414,0.006160,0.994999,0.049244,-0.003826,0.002351,-0.000774,0.000183,-0.000281,0.109312,0.165559,-0.980123
1760109118.647518,-0.083187,0.054433,0.006159,0.995027,0.036008,-0.001194,0.003962,0.000125,0.000925,-0.001719,0.109350,0.164876,-0.980234
1760109118.647847,-0.082842,0.054452,0.006158,0.995055,0.022771,0.001438,0.005573,0.001024,0.001667,-0.003158,0.109387,0.164193,-0.980344
1760109118.648155,-0.082664,0.054500,0.006199,0.995067,0.012452,0.003373,0.005643,-0.000046,-0.000936,-0.001625,0.109487,0.163837,-0.980393
1760109118.675279,-0.082568,0.054553,0.006215,0.995072,0.003671,0.007335,0.003153,0.000387,-0.002757,-0.002439,0.109595,0.163643,-0.980413
1760109118.709551,-0.082540,0.054609,0.006198,0.995071,0.002058,-0.001971,-0.003973,0.000515,-0.003047,0.002261,0.109703,0.163588,-0.980410
1760109118.709848,-0.082537,0.054593,0.006146,0.995073,-0.003322,0.003439,-0.003701,0.003204,-0.002720,-0.001497,0.109663,0.163589,-0.980415
1760109118.737685,-0.082551,0.054608,0.006123,0.995071,-0.001673,0.000883,-0.003129,0.002332,-0.002888,-0.000394,0.109688,0.163619,-0.980407
1760109118.745509,-0.082567,0.054626,0.006103,0.995069,-0.000621,-0.002262,-0.002784,0.000910,-0.001847,-0.001099,0.109721,0.163652,-0.980397
