quat_x,quat_y,quat_z,quat_w,rot_x,rot_y,rot_z,acc_x,acc_y,acc_z,grav_x,grav_y,grav_z,pitch_rad
-0.727466,-0.0,0.663828,-0.173566,-0.010442,-0.003576,0.025561,-1.221499,0.373037,-1.015103,0.965825,-0.252526,0.058414,1.3086061144873904
-0.446674,-0.042792,0.893651,0.006242,-0.014421,-0.000628,0.027402,-1.053241,0.036705,-0.359279,0.797807,0.082059,-0.597303,0.9236492689107495
-0.091811,-0.078489,0.975285,0.185014,-0.018401,0.00232,0.029243,-0.405236,-0.070052,0.014346,0.150041,0.187071,-0.97082,0.1506093927126033
0.108157,-0.092693,0.952392,0.269555,-0.005911,-0.006294,0.012852,0.000579,0.001847,0.001415,-0.255987,0.118251,-0.95942,-0.2588690472563645
0.108176,-0.092766,0.952409,0.269463,-0.007087,0.006537,0.010039,0.001447,0.001043,-0.000901,-0.256049,0.118403,-0.959385,-0.25893334515058136
0.107487,-0.093103,0.952488,0.269343,-0.002125,0.001503,0.00502,-0.002356,-0.001228,0.002629,-0.254913,0.119456,-0.959557,-0.2577581827465791
0.107889,-0.092689,0.952462,0.269414,0.009868,-0.010621,-0.007243,-0.000133,-0.00019,0.001388,-0.255464,0.118431,-0.959537,-0.25832736355326086
0.108178,-0.092773,0.952408,0.269463,0.011012,-0.004868,-0.011282,0.000202,-0.001324,0.001496,-0.256057,0.118415,-0.959381,-0.2589409649358862
0.108089,-0.092712,0.952415,0.269492,0.015646,-0.009071,-0.012419,-0.000418,-0.002071,0.000632,-0.255862,0.118342,-0.959443,-0.25873871493090544
0.108369,-0.092654,0.952346,0.269646,0.01311,0.011364,-0.012703,0.000977,-0.002503,-0.005223,-0.256378,0.118034,-0.959343,-0.2592721824894414
0.108296,-0.092581,0.952336,0.269734,0.008967,0.019933,-0.014753,-0.000405,-0.002048,-0.000527,-0.256212,0.117915,-0.959402,-0.25910222311442627
0.108232,-0.092565,0.952358,0.269688,-0.003941,0.019572,0.00261,-0.000292,-0.001023,0.000413,-0.256078,0.117933,-0.959435,-0.2589633042610499
0.108168,-0.092549,0.95238,0.269643,-0.01685,0.019211,0.019973,-0.000179,1e-06,0.001353,-0.255944,0.117951,-0.959469,-0.2588245792150219
0.107871,-0.092525,0.952462,0.26948,-0.011951,0.002658,0.004135,-0.001739,-0.000483,0.003699,-0.255352,0.118115,-0.959606,-0.25821313172710986
0.10792,-0.092519,0.952448,0.269511,-0.008119,0.002391,-0.002012,8.4e-05,0.001922,0.001931,-0.255446,0.118068,-0.959587,-0.25830913764505736
0.107913,-0.092594,0.952424,0.269572,-0.006656,0.004504,-0.004917,9.3e-05,0.001568,0.001573,-0.25548,0.118197,-0.959562,-0.25834348639651833
0.107906,-0.09267,0.9524,0.269634,-0.005194,0.006617,-0.007822,0.000101,0.001215,0.001215,-0.255513,0.118327,-0.959537,-0.25837860456780576
0.107899,-0.092745,0.952376,0.269696,-0.003731,0.008729,-0.010727,0.00011,0.000861,0.000857,-0.255547,0.118457,-0.959512,-0.25841318533871127
0.107792,-0.092873,0.952362,0.269745,-0.005842,0.00998,0.013004,0.000409,0.002807,0.000489,-0.255418,0.118744,-0.959511,-0.2582800853325435
0.107654,-0.093057,0.952398,0.269609,-0.014277,0.021094,0.023136,0.001662,-0.000208,0.000332,-0.255237,0.119206,-0.959502,-0.2580927291747348
0.107529,-0.093163,0.952425,0.269526,-0.004476,0.010656,0.013555,0.000838,-0.000144,0.002675,-0.255045,0.119498,-0.959517,-0.257895604181417
0.107392,-0.093221,0.952479,0.269371,0.000445,0.013932,0.014392,0.000496,0.001176,-0.000608,-0.2548,0.119725,-0.959553,-0.2576401652282807
0.107281,-0.093249,0.952511,0.269293,0.002291,0.011281,0.00695,-0.000172,0.000883,0.002742,-0.254596,0.119862,-0.959591,-0.25742916002979743
0.107139,-0.093143,0.952556,0.269227,0.004166,0.001199,0.002517,0.001266,0.002057,0.00023,-0.254265,0.119759,-0.959691,-0.2570876662562147
0.10713,-0.093113,0.952571,0.269185,-0.000562,0.012048,0.008184,0.002671,4.1e-05,0.001042,-0.254228,0.119718,-0.959706,-0.25704847106522294
0.107107,-0.093133,0.952574,0.269179,0.002315,-0.003003,0.002382,-0.000287,-0.00259,0.003274,-0.254194,0.11977,-0.959709,-0.2570138064772669
0.107277,-0.09312,0.952562,0.269158,0.010607,-0.009671,0.01096,0.000952,0.000903,-0.001113,-0.254504,0.119655,-0.959641,-0.25733475238697223
0.107236,-0.093158,0.952597,0.269036,0.00301,0.010561,0.016842,0.001784,-0.003565,-0.003001,-0.25443,0.119783,-0.959644,-0.2572593935658199
0.107126,-0.093153,0.95263,0.268965,0.001704,0.005412,0.006785,0.000496,-0.004715,0.001085,-0.254213,0.119855,-0.959693,-0.25703354858882643
0.107145,-0.093113,0.952633,0.26896,-0.001818,-0.001394,0.000318,0.000207,-0.000432,0.000228,-0.254228,0.119769,-0.9597,-0.25704843204313477
0.107144,-0.093157,0.952622,0.268985,-0.008158,-0.002214,-0.005327,0.001325,-0.002769,0.001458,-0.25425,0.119846,-0.959684,-0.25707331350939633
0.107154,-0.093136,0.95259,0.269102,-0.00711,-0.00233,-0.011751,0.000462,-0.00271,0.000885,-0.254275,0.119771,-0.959687,-0.25709677562393174
0.107165,-0.093116,0.952558,0.269219,-0.006062,-0.002445,-0.018174,-0.0004,-0.002652,0.000311,-0.2543,0.119695,-0.95969,-0.2571227530115732
0.107219,-0.093103,0.952479,0.269482,-0.003576,0.001825,-0.001246,0.000612,0.001271,-0.000442,-0.254427,0.119569,-0.959672,-0.257255011285378
0.107101,-0.093121,0.9525,0.269447,-0.00331,0.003782,-0.003266,0.000133,-0.000869,0.000328,-0.254209,0.11968,-0.959716,-0.257030526431095
0.106982,-0.093139,0.952521,0.269412,-0.003045,0.00574,-0.005286,-0.000346,-0.003009,0.001097,-0.253992,0.11979,-0.95976,-0.25680407233478747
0.106809,-0.093096,0.952507,0.269547,-0.008117,0.015135,-0.009073,0.001042,-0.001075,-0.000486,-0.25366,0.119768,-0.95985,-0.25646228229435325
0.106693,-0.093126,0.952496,0.269622,-0.011839,0.018316,-0.013519,0.001649,-0.001278,-0.000383,-0.253467,0.11987,-0.959888,-0.2562625682353852
0.10656,-0.093165,0.952482,0.269711,-0.013813,0.012613,-0.007561,0.001764,-0.000853,5.9e-05,-0.253248,0.119995,-0.95993,-0.2560364571087077
0.106334,-0.093291,0.952451,0.269865,-0.017441,0.014741,-0.006997,0.003682,-0.002564,0.002928,-0.252907,0.120318,-0.95998,-0.2556845885621281
0.106258,-0.093324,0.952428,0.269965,-0.008835,0.003588,-0.015984,0.002942,-0.001943,0.005319,-0.252794,0.120396,-0.96,-0.25556760259364275
0.106299,-0.093335,0.952336,0.270268,-0.001692,-0.005239,-0.015081,0.00296,0.003958,0.001383,-0.252916,0.120315,-0.959978,-0.2556927083310293
0.106308,-0.093336,0.952302,0.270383,-0.00386,-0.004523,-0.009551,0.001943,0.003784,0.00271,-0.252948,0.120279,-0.959974,-0.25572570207022166
0.106326,-0.093288,0.952267,0.270516,0.002662,-0.009351,-0.007266,0.001122,0.004123,0.001492,-0.252973,0.120145,-0.959984,-0.2557522638406033
0.106382,-0.093268,0.952251,0.270559,0.003992,-0.008855,-0.006182,0.001196,0.004568,0.001933,-0.253074,0.120063,-0.959968,-0.255856092499443
0.106483,-0.093258,0.95222,0.270632,0.004937,-0.011182,-0.00866,0.00158,0.003015,0.001904,-0.253267,0.119969,-0.959929,-0.25605658134524645
0.106583,-0.093248,0.952189,0.270704,0.005881,-0.01351,-0.011137,0.001963,0.001462,0.001874,-0.25346,0.119874,-0.95989,-0.25625490329489814
0.106684,-0.093238,0.952158,0.270777,0.006826,-0.015837,-0.013615,0.002347,-9.1e-05,0.001845,-0.253653,0.11978,-0.959851,-0.25645538123629813
0.10692,-0.093226,0.95212,0.270823,0.006889,-0.01205,0.010771,0.000902,0.002401,-0.000588,-0.254098,0.119613,-0.959754,-0.2569137702407939
0.106975,-0.093286,0.952149,0.270677,-0.007331,0.000849,0.033503,0.000969,0.001869,-0.002025,-0.254212,0.119733,-0.959708,-0.2570339122807252
0.106918,-0.093361,0.9522,0.270496,-0.00284,-0.004349,0.02012,-0.000499,-0.000956,0.001057,-0.254122,0.119955,-0.959705,-0.2569399935242073
0.107016,-0.093386,0.95225,0.270272,0.003524,-0.006011,0.014309,0.000567,0.001445,-0.000498,-0.254291,0.120006,-0.959653,-0.2571147551306596
0.10697,-0.093456,0.952306,0.270067,-0.013006,0.010608,0.033304,0.000937,0.00183,-0.001919,-0.254216,0.12022,-0.959647,-0.257036063916309
0.106875,-0.093544,0.952341,0.269953,-0.00652,0.003168,0.017309,-0.0009,-0.001717,0.00192,-0.254069,0.12047,-0.959654,-0.25688381190377096
0.106929,-0.093555,0.952355,0.269876,0.007245,-0.004194,0.006685,-0.001589,0.000531,-0.00027,-0.254166,0.12048,-0.959627,-0.2569844953132172
0.106903,-0.093574,0.952381,0.269789,-0.002385,0.003532,0.014962,-0.000642,0.000214,-0.000109,-0.254116,0.120554,-0.959631,-0.25693280819773645
0.106818,-0.093618,0.952435,0.269616,0.002983,-0.003266,0.002387,8.9e-05,-0.00365,0.00367,-0.253957,0.120731,-0.959651,-0.25676839579939026
0.106872,-0.093576,0.952439,0.269595,0.005725,-0.001314,-0.001871,0.000972,-0.000603,0.000446,-0.254033,0.120627,-0.959644,-0.25684815135622646
0.107005,-0.093525,0.952415,0.269646,-0.001363,-0.002042,-0.005311,0.00016,0.000528,0.001565,-0.254263,0.120442,-0.959606,-0.25708622174191537
0.107027,-0.093544,0.952403,0.269673,-0.000607,-0.005173,-0.007808,-2.7e-05,-0.001813,0.002115,-0.254319,0.120458,-0.95959,-0.25714271431488556
0.107078,-0.09352,0.95238,0.269742,0.001225,-0.006944,-0.013735,0.00052,-0.00222,0.002262,-0.254411,0.120366,-0.959576,-0.25723803038078397
0.10727,-0.093441,0.952274,0.270068,0.006261,-0.013359,-0.02766,0.001274,-0.001796,0.000531,-0.254773,0.120022,-0.959524,-0.2576116175025667
0.107374,-0.09339,0.952214,0.270256,0.006487,-0.012516,-0.031178,0.000957,-0.001463,0.001124,-0.254965,0.119817,-0.959498,-0.25781095631777284
0.107478,-0.093338,0.952154,0.270444,0.006713,-0.011674,-0.034697,0.00064,-0.00113,0.001717,-0.255157,0.119611,-0.959473,-0.2580096807271959
0.107709,-0.093225,0.952039,0.270796,-0.000251,-0.004386,0.005922,0.000577,0.00375,-1.7e-05,-0.255577,0.119173,-0.959416,-0.2584437031642171
0.107639,-0.093281,0.952069,0.270696,-0.009875,0.006328,0.020171,0.001576,0.001065,0.000722,-0.25546,0.119345,-0.959425,-0.2583245950991347
0.107605,-0.093398,0.952105,0.270545,-0.003099,-0.009786,0.000809,-0.000204,-0.001398,0.002842,-0.255438,0.119625,-0.959396,-0.2583019886018097
0.10768,-0.093442,0.952096,0.27053,-0.006676,-0.006524,0.002086,0.000754,0.00191,-0.000657,-0.2556,0.119669,-0.959348,-0.25846942921728144
0.107696,-0.093523,0.952084,0.270538,-0.009409,-0.003714,-0.000279,0.000649,7.2e-05,0.000311,-0.255674,0.119812,-0.95931,-0.25854514980800697
0.107797,-0.093659,0.952021,0.270673,-0.000905,-0.014596,-0.017224,-0.000757,-0.001571,0.001365,-0.255952,0.119976,-0.959215,-0.25883231777665633
0.107967,-0.093655,0.951959,0.270824,0.002972,-0.016898,-0.027313,-0.000156,-0.000747,-0.000547,-0.256289,0.119831,-0.959144,-0.2591803438624488
0.108073,-0.093631,0.951902,0.27099,0.005809,-0.013682,-0.029901,-6.6e-05,-0.000316,-0.000231,-0.256497,0.119682,-0.959107,-0.25939510359566187
0.108347,-0.093503,0.951776,0.271367,0.00982,-0.020086,-0.024623,0.000358,0.001336,-1.2e-05,-0.256991,0.119185,-0.959036,-0.25990775457680515
0.108454,-0.093472,0.951745,0.271444,0.009338,-0.016769,-0.02061,-3.9e-05,0.001469,-7.9e-05,-0.257185,0.119044,-0.959002,-0.26010904628040665
0.10856,-0.093441,0.951714,0.271522,0.008857,-0.013453,-0.016597,-0.000436,0.001602,-0.000147,-0.257379,0.118904,-0.958967,-0.2603085487646371
0.108692,-0.093216,0.951652,0.271764,0.012932,-0.007683,-0.014019,-0.001309,-0.001198,0.000715,-0.257539,0.118341,-0.958994,-0.2604748616360684
0.108678,-0.09308,0.951635,0.271874,0.011618,-0.001242,-0.017232,-0.001262,-0.001415,0.001694,-0.257456,0.118063,-0.95905,-0.26038815425667494
0.108665,-0.092945,0.951618,0.271984,0.010305,0.005198,-0.020444,-0.001214,-0.001632,0.002673,-0.257374,0.117785,-0.959107,-0.26030392045858736
0.108595,-0.092801,0.951612,0.272085,-0.008745,0.004346,0.021061,0.000411,0.002488,0.002464,-0.25718,0.117527,-0.95919,-0.26010304320729966
0.108521,-0.092885,0.951642,0.271981,-0.006875,0.001264,0.010118,0.000148,0.001461,0.001997,-0.257072,0.117755,-0.959191,-0.2599913507499785
0.108447,-0.092969,0.951671,0.271878,-0.005006,-0.001817,-0.000825,-0.000116,0.000433,0.00153,-0.256964,0.117983,-0.959192,-0.2598795842328244
0.108447,-0.092995,0.951662,0.271902,-0.002246,0.001502,-0.002751,0.000941,0.002618,-0.000395,-0.256982,0.118026,-0.959182,-0.2598968121380338
0.108362,-0.093008,0.951654,0.271961,-0.00473,0.00741,-0.006692,0.000551,0.001999,0.000684,-0.256835,0.118082,-0.959214,-0.25974628798495125
0.108352,-0.092897,0.951612,0.272149,0.005843,0.004817,-0.019908,0.000851,0.000982,0.000781,-0.256781,0.117827,-0.95926,-0.2596908479346463
0.108354,-0.09281,0.951567,0.272333,0.007254,0.003222,-0.027843,0.001374,0.00055,0.000883,-0.256762,0.117613,-0.959292,-0.25967103850514767
0.108356,-0.092723,0.951523,0.272517,0.008665,0.001627,-0.035778,0.001896,0.000118,0.000985,-0.256744,0.117398,-0.959323,-0.25965138678281957
0.108405,-0.092632,0.951456,0.272761,0.013591,-0.00102,-0.038078,0.000672,4.2e-05,0.000349,-0.256818,0.117132,-0.959336,-0.2597282948416178
0.108546,-0.092313,0.951313,0.273311,0.018747,-0.002546,-0.032741,-0.000419,0.001569,0.000894,-0.256983,0.116305,-0.959392,-0.2598988068002835
0.108604,-0.092184,0.951264,0.273504,0.021042,-0.005311,-0.026512,0.00066,0.003199,0.001935,-0.257048,0.115975,-0.959414,-0.2599658364026092
0.108687,-0.092068,0.951237,0.273603,0.015684,-0.004557,-0.01423,0.00086,0.003266,0.001176,-0.257154,0.115684,-0.959421,-0.26007636927665606
0.108705,-0.091919,0.951296,0.27344,0.003842,0.004115,0.035804,0.00062,0.003514,-0.00159,-0.25709,0.115436,-0.959468,-0.26000970022470443
0.108599,-0.091999,0.951389,0.273133,0.003818,-0.002206,0.027995,-0.000447,-0.000887,0.000496,-0.256895,0.11573,-0.959485,-0.25980873825337075
0.108492,-0.092079,0.951482,0.272825,0.003794,-0.008526,0.020185,-0.001515,-0.005288,0.002582,-0.256699,0.116023,-0.959502,-0.2596054850873832
0.108514,-0.092178,0.951636,0.272243,-0.004329,-0.001,0.04782,0.002886,-0.004127,-0.002612,-0.256721,0.116356,-0.959456,-0.2596282599887259
0.108396,-0.092243,0.951729,0.271943,-0.004803,0.013646,0.027166,0.0002,-0.007363,-0.00187,-0.256496,0.116626,-0.959483,-0.2593961077846232
0.10835,-0.092185,0.951751,0.271904,-0.004664,0.008167,0.017097,0.00011,-0.004044,-0.001027,-0.256375,0.116552,-0.959525,-0.25927037597440017
0.108304,-0.092126,0.951773,0.271865,-0.004525,0.002688,0.007028,2e-05,-0.000724,-0.000184,-0.256254,0.116478,-0.959566,-0.25914409101728325
0.108267,-0.092154,0.951781,0.271844,-0.006578,0.0018,0.002901,-0.000639,-0.001816,0.000738,-0.256197,0.116558,-0.959572,-0.2590847656149366
0.108253,-0.092202,0.951744,0.271962,-0.003443,-0.000288,-0.015012,-0.00051,-0.003471,0.001271,-0.256208,0.116625,-0.95956,-0.25909841737415434
0.108271,-0.092187,0.951709,0.272084,-0.001162,-0.00104,-0.021911,-0.001378,-0.003184,0.002945,-0.256251,0.116554,-0.959558,-0.25914085261735786
0.10832,-0.092175,0.951657,0.272247,0.001332,-0.0069,-0.025611,-0.001143,-0.002423,0.002425,-0.256355,0.116459,-0.959541,-0.25925002044046735
0.108464,-0.092152,0.951581,0.272466,-0.005378,0.001508,0.020596,0.000365,0.004794,-0.002901,-0.256641,0.116275,-0.959487,-0.25954533002951674
0.108295,-0.09223,0.951648,0.272272,-0.014792,0.020518,0.029647,0.000525,-0.00072,-0.002125,-0.256341,0.116569,-0.959532,-0.2592345293064327
0.108041,-0.092331,0.951712,0.272114,-0.004426,0.002663,-0.003232,-0.001104,-0.00534,0.0038,-0.255897,0.116947,-0.959604,-0.2587754306154258
0.108024,-0.092334,0.951704,0.272149,-0.007016,0.006107,-0.002975,0.001087,-0.002626,-0.000131,-0.25587,0.116952,-0.959611,-0.25874854499818317
0.107944,-0.092406,0.951704,0.272157,-0.015838,0.010231,0.004464,0.000987,-0.001286,3.5e-05,-0.25576,0.117131,-0.959618,-0.25863309892445574
0.107685,-0.092655,0.951711,0.27215,-0.016497,0.00982,0.002687,0.000698,-0.000748,0.001463,-0.255402,0.117748,-0.959638,-0.25826358857343146
0.107627,-0.092699,0.951705,0.272179,-0.011555,0.002464,-0.006393,0.001104,-6.9e-05,0.003847,-0.255319,0.117856,-0.959647,-0.25817839995459535
0.107623,-0.092784,0.951669,0.272277,-0.00609,-0.004457,0.001437,0.000299,0.00486,0.001649,-0.255368,0.117992,-0.959617,-0.25822917679522006
0.107673,-0.092855,0.951669,0.272233,-0.013723,1e-06,0.022394,0.001084,0.006055,-0.000619,-0.255494,0.118111,-0.959569,-0.2583591472861536
0.107621,-0.092982,0.951715,0.272048,-0.013124,0.000852,0.026495,0.000531,0.003036,0.000662,-0.255441,0.118429,-0.959544,-0.25830295406299697
0.107584,-0.093165,0.951794,0.271724,-0.002601,-0.010098,0.014094,-0.000579,0.000541,0.001283,-0.255426,0.118881,-0.959492,-0.2582882358209812
0.107627,-0.09321,0.951809,0.271638,-0.004508,-0.007467,0.01367,0.000973,0.001021,0.001497,-0.255519,0.118964,-0.959457,-0.2583849513365323
0.107645,-0.093275,0.951825,0.271555,-0.005626,-0.007841,0.010976,0.000742,-0.000158,0.001097,-0.255577,0.119099,-0.959425,-0.2584444665139758
0.107713,-0.093445,0.951827,0.271463,-0.005467,-0.00667,-0.003472,0.00052,-0.00114,0.000836,-0.255782,0.119407,-0.959332,-0.2586565290038808
0.107721,-0.093473,0.951812,0.271501,-0.002192,-0.006791,-0.014907,0.000233,-0.002,0.000835,-0.255816,0.119444,-0.959318,-0.25869201303752976
0.107913,-0.093457,0.951676,0.271908,0.003669,-0.011317,-0.035727,6.6e-05,-0.001678,0.000335,-0.25622,0.119197,-0.959241,-0.25910945498618804
0.107986,-0.093418,0.951604,0.272143,0.002953,-0.009364,-0.035743,4e-05,-0.001012,0.000202,-0.256366,0.11902,-0.959224,-0.25926059555455555
0.108059,-0.09338,0.951533,0.272377,0.002237,-0.007412,-0.035759,1.4e-05,-0.000346,6.9e-05,-0.256512,0.118842,-0.959207,-0.2594122764893457
0.108215,-0.093321,0.951369,0.272906,-0.002254,-0.001325,-0.022729,0.000231,0.001533,-4.1e-05,-0.25684,0.118501,-0.959161,-0.25975162237997185
0.108207,-0.093281,0.951338,0.273031,-0.005468,0.001641,0.010121,0.000785,0.005221,-0.00014,-0.256819,0.118396,-0.95918,-0.25973046988358406
0.108017,-0.093432,0.951414,0.272789,-0.007333,0.002908,0.009276,-0.000249,0.001948,0.001805,-0.256512,0.118854,-0.959206,-0.2594119437129628
0.107827,-0.093584,0.95149,0.272548,-0.009198,0.004176,0.008431,-0.001284,-0.001326,0.003751,-0.256205,0.119312,-0.959231,-0.2590939910437975
0.107697,-0.093782,0.951517,0.272437,-0.007106,0.003437,-0.000238,0.000223,-7.5e-05,3.8e-05,-0.256051,0.119789,-0.959213,-0.25893419847955257
0.107661,-0.093866,0.951511,0.272444,-0.011554,0.007848,0.001673,0.000837,-0.000279,0.000142,-0.256027,0.119966,-0.959197,-0.25891069749184364
0.107413,-0.094073,0.951587,0.272202,-0.017895,0.013704,0.021727,0.001612,-0.001027,0.000768,-0.25564,0.120561,-0.959225,-0.25850896601140166
0.10734,-0.094143,0.951597,0.272175,-0.012799,0.007767,0.009437,0.00138,-0.000465,0.000796,-0.255535,0.120742,-0.959231,-0.25840164096649115
0.107266,-0.094213,0.951606,0.272148,-0.007702,0.001829,-0.002853,0.001147,9.7e-05,0.000824,-0.25543,0.120923,-0.959236,-0.25829211771880034
0.107105,-0.094382,0.951639,0.272035,-0.016306,0.010005,0.016468,0.002029,0.002623,0.000775,-0.255201,0.121362,-0.959241,-0.258055586035891
0.106988,-0.094484,0.951672,0.271932,-0.013157,0.003417,0.008394,0.002843,-0.001352,0.003764,-0.255022,0.121649,-0.959252,-0.2578698494490531
0.10701,-0.094542,0.95166,0.271944,0.002276,-0.006199,-0.004209,0.000198,0.000851,0.000506,-0.255094,0.121742,-0.959222,-0.2579454689545555
0.107072,-0.094527,0.95165,0.271961,-0.000126,-0.00347,-0.001002,0.000627,0.001675,-0.000398,-0.255205,0.121674,-0.959201,-0.25806018591364177
0.107146,-0.094546,0.951644,0.271947,0.000323,-0.007052,-0.003477,0.000688,1.7e-05,0.001424,-0.255353,0.121672,-0.959162,-0.2582124774028795
0.107248,-0.094556,0.951597,0.272066,0.002247,-0.007988,-0.016613,0.00049,-0.001521,0.000228,-0.255565,0.121601,-0.959114,-0.2584317502138602
0.107384,-0.094492,0.951523,0.272296,0.009084,-0.013016,-0.031943,0.000388,-0.000895,0.002089,-0.255816,0.121342,-0.95908,-0.2586919841544575
0.107539,-0.094449,0.951416,0.27262,0.00546,-0.010466,-0.034468,0.000487,-0.000911,0.00148,-0.256125,0.121086,-0.95903,-0.25901240338835857
0.107693,-0.094406,0.95131,0.272945,0.001836,-0.007917,-0.036994,0.000586,-0.000926,0.00087,-0.256434,0.12083,-0.95898,-0.25933117327874544
0.107792,-0.094325,0.951199,0.273322,0.004907,-0.010254,-0.037831,0.000137,0.000609,0.000692,-0.256625,0.12052,-0.958968,-0.25952913119584553
0.107969,-0.094252,0.951087,0.273665,0.006837,-0.008198,-0.03238,0.000115,0.000685,0.000683,-0.256963,0.12019,-0.958918,-0.25987812558092
0.108014,-0.094174,0.951055,0.273786,0.002752,-0.001213,0.017628,-0.000727,0.007221,0.000895,-0.257022,0.119983,-0.958928,-0.25993895182434373
0.107925,-0.094249,0.95116,0.273429,-0.012631,0.00832,0.045222,0.000804,0.002821,4.2e-05,-0.256849,0.120272,-0.958939,-0.25976009803521133
0.107835,-0.094363,0.95124,0.273147,-0.00377,-0.001383,0.017555,-0.002135,-0.00405,0.00457,-0.256704,0.120613,-0.958934,-0.25961023928101323
0.107908,-0.094346,0.951275,0.273002,0.007945,-0.005568,0.01296,-0.000412,-0.002145,-0.001787,-0.256814,0.120579,-0.958909,-0.2597238347725298
0.107776,-0.094276,0.951373,0.272739,0.001166,0.02048,0.035948,0.001031,-0.003224,-0.006483,-0.256496,0.120594,-0.958993,-0.2593949978085894
0.107501,-0.094213,0.951454,0.272586,0.001391,0.018029,0.010453,0.000255,-0.004415,-0.001135,-0.255927,0.120671,-0.959135,-0.25880631371096036
0.107226,-0.094149,0.951535,0.272433,0.001616,0.015578,-0.015043,-0.000521,-0.005606,0.004212,-0.255358,0.120748,-0.959277,-0.2582171055190547
0.107147,-0.094138,0.95149,0.272624,-0.009076,0.006371,-0.018429,0.000151,-0.000939,0.003583,-0.255228,0.12072,-0.959315,-0.2580826309953269
0.10708,-0.0942,0.951435,0.272822,-0.01114,-0.001813,-0.023841,0.001114,0.001015,0.00158,-0.255159,0.120823,-0.959321,-0.25801212672306817
0.107131,-0.094262,0.951336,0.273125,-0.009198,-0.001301,-0.022364,0.000677,0.002644,0.001373,-0.255325,0.120829,-0.959275,-0.25818462758390437
0.107125,-0.094277,0.951282,0.273312,-0.006065,0.003362,-0.019354,0.000515,0.004869,0.000553,-0.255345,0.120811,-0.959272,-0.2582057971196351
0.107094,-0.094236,0.951236,0.273498,-0.000522,0.005184,-0.017868,0.000353,0.004589,0.000879,-0.255289,0.120701,-0.959301,-0.25814768312923725
0.107063,-0.094194,0.95119,0.273685,0.005021,0.007007,-0.016381,0.000191,0.004309,0.001206,-0.255233,0.12059,-0.95933,-0.25808917310410595
0.107078,-0.09413,0.951157,0.273814,0.00405,0.003116,-0.017695,0.001555,0.002417,0.001517,-0.255245,0.120425,-0.959348,-0.2581002628296088
0.107122,-0.094083,0.951096,0.274023,0.004409,6.6e-05,-0.025775,0.001467,0.001705,0.00085,-0.25533,0.120257,-0.959346,-0.25818737019860283
0.107145,-0.094051,0.951031,0.274252,0.002726,-0.002299,-0.020524,0.001824,-0.00058,0.000318,-0.255384,0.120121,-0.959349,-0.2582446279114419
0.107226,-0.093969,0.950968,0.274467,0.007599,-0.001082,-0.022531,0.000453,0.001289,5e-06,-0.25552,0.119862,-0.959345,-0.2583852803960332
0.107274,-0.093858,0.950923,0.274642,0.012676,-0.002748,-0.018925,0.000983,0.003291,0.00068,-0.255573,0.119579,-0.959366,-0.25844067662468445
0.107379,-0.093696,0.950881,0.274801,0.013517,-0.001595,-0.009102,0.00078,0.003377,0.00204,-0.255706,0.119172,-0.959381,-0.25857668105411563
0.107443,-0.093538,0.950874,0.274857,0.014926,-0.00206,-0.006012,0.000874,0.002623,1.2e-05,-0.255748,0.118823,-0.959413,-0.25862203688186497
0.107434,-0.093389,0.950886,0.274867,0.014434,0.003912,-0.003581,0.000819,0.000456,0.002197,-0.255654,0.118544,-0.959473,-0.2585242077088724
0.107508,-0.093315,0.950883,0.274875,0.009416,-0.010418,-0.002231,-0.000533,-0.000553,0.002044,-0.255755,0.11836,-0.959469,-0.25862857624698465
0.107667,-0.093193,0.950869,0.274901,0.013248,-0.005122,-0.008217,0.000767,-0.002807,-0.000799,-0.255992,0.118033,-0.959446,-0.25887388517220317
0.107765,-0.093022,0.95086,0.274953,0.018354,9.6e-05,-0.000316,-2e-05,-0.0009,-0.000133,-0.256091,0.117642,-0.959467,-0.25897742531953616
0.107732,-0.092896,0.950925,0.274782,0.007257,0.010141,0.030672,-0.000604,0.000483,-0.000907,-0.255942,0.11747,-0.959528,-0.2588224501496014
0.107653,-0.092868,0.951012,0.274523,0.007569,0.006805,0.020819,-0.000713,-0.001283,0.000132,-0.255747,0.117531,-0.959573,-0.25862072847272416
0.107574,-0.092839,0.951098,0.274264,0.007882,0.003468,0.010966,-0.000822,-0.003048,0.00117,-0.255552,0.117591,-0.959617,-0.25841822922358215
0.107504,-0.09278,0.951152,0.274126,0.005231,0.005682,0.005444,-0.000435,-0.002604,0.001688,-0.255373,0.117557,-0.959669,-0.2582325546601569
0.107485,-0.092728,0.951172,0.274081,0.005553,0.000362,-0.000962,-0.00057,-0.003011,0.002633,-0.255303,0.117481,-0.959697,-0.2581615003457839
0.107513,-0.092664,0.95118,0.274062,0.006195,-0.001716,0.006509,-0.000282,-0.00149,0.001303,-0.255319,0.11735,-0.959709,-0.2581784441224658
0.10746,-0.092672,0.951229,0.273913,-0.004747,0.011304,0.023346,0.000555,-0.002439,-0.00058,-0.255206,0.117435,-0.959729,-0.25806102909202644
0.107273,-0.092717,0.951299,0.273726,-0.006167,0.012011,0.015575,-1.2e-05,-0.004796,0.000558,-0.254855,0.117676,-0.959792,-0.25769826822869096
0.107177,-0.092734,0.951329,0.273654,-0.006537,0.007091,0.005665,0.000314,-0.004317,0.000776,-0.254675,0.117782,-0.959827,-0.2575118512070717
0.107091,-0.092792,0.951324,0.273687,-0.01258,0.006624,-0.004484,0.001103,-0.003921,0.000618,-0.254549,0.117931,-0.959842,-0.2573806974553058
0.107025,-0.092879,0.951286,0.273812,-0.012693,0.003225,-0.013866,0.000922,-0.003536,0.001153,-0.254486,0.1181,-0.959838,-0.2573156892448922
0.107003,-0.092939,0.951226,0.274009,-0.010559,0.001561,-0.018861,0.000589,-0.002524,0.001338,-0.2545,0.118173,-0.959825,-0.2573309708596321
0.107017,-0.092983,0.951163,0.27421,-0.004927,-0.004494,-0.021066,0.000521,0.000165,0.002047,-0.254575,0.118195,-0.959803,-0.25740815523561383
0.107079,-0.092994,0.951098,0.274406,0.000522,-0.006892,-0.011779,0.000409,0.002627,0.00197,-0.254721,0.118126,-0.959772,-0.2575596599882603
0.107107,-0.093063,0.951107,0.274341,-0.010379,-0.000609,0.024602,0.000159,0.004273,0.000809,-0.254803,0.118258,-0.959735,-0.257643381739929
0.107055,-0.093217,0.95118,0.274056,-0.01241,-0.000857,0.03524,-0.000467,0.001524,0.002485,-0.25475,0.118655,-0.9597,-0.25758968808807403
0.107056,-0.093364,0.951249,0.273767,-0.00765,-0.008843,0.028837,-0.000558,0.000108,0.00191,-0.254794,0.119008,-0.959644,-0.25763444931887647
0.107088,-0.093491,0.951307,0.273507,-0.006244,-0.007216,0.02314,-0.000272,5.3e-05,0.000932,-0.254888,0.119299,-0.959583,-0.2577318901657489
0.107124,-0.093615,0.951359,0.273272,-0.005811,-0.007092,0.02681,-0.001129,-1.4e-05,-5.6e-05,-0.254991,0.119575,-0.959522,-0.2578388915033315
0.107128,-0.093747,0.951422,0.273004,-0.009163,-0.001357,0.029207,-0.000608,-0.000361,-0.000378,-0.255034,0.119893,-0.95947,-0.2578833663636509
0.107073,-0.093856,0.951477,0.272795,-0.006057,-0.001623,0.015431,-0.000794,-0.001133,0.000867,-0.254963,0.120186,-0.959453,-0.2578082890982006
0.107076,-0.093917,0.951497,0.272704,-0.002639,-0.00089,0.011853,-0.000405,0.000959,0.000341,-0.254988,0.120323,-0.959429,-0.2578353639847959
0.107021,-0.093991,0.951532,0.27258,-0.007828,0.006254,0.013061,8.8e-05,0.001496,0.000518,-0.254907,0.120528,-0.959424,-0.2577525030495192
0.106919,-0.09407,0.95156,0.272493,-0.006402,0.003898,0.004419,0.000132,0.000314,0.002092,-0.254746,0.120757,-0.959439,-0.2575855662951606
0.106891,-0.094106,0.951556,0.272505,-0.002439,0.00167,-0.002101,0.000123,0.000508,0.001363,-0.254715,0.120837,-0.959437,-0.2575522012033262
0.106894,-0.094135,0.951534,0.272571,-0.001697,-0.000359,-0.003713,-0.000264,0.000698,0.001543,-0.254743,0.120872,-0.959425,-0.257582435672482
0.106897,-0.094164,0.951512,0.272637,-0.000954,-0.002388,-0.005326,-0.000651,0.000887,0.001723,-0.254772,0.120908,-0.959413,-0.25761267802670434
0.106875,-0.094214,0.951511,0.272634,-0.004674,0.001764,0.00246,0.00025,0.001752,0.000122,-0.254757,0.121016,-0.959403,-0.25759677128985375
0.106811,-0.094266,0.951526,0.272585,-0.005749,0.002012,0.004949,1.1e-05,0.000876,0.000767,-0.254659,0.121164,-0.95941,-0.2574939053674635
0.106757,-0.094328,0.951543,0.272526,-0.004144,0.001424,0.00505,0.000481,0.000261,0.000449,-0.254582,0.121326,-0.95941,-0.25741483404368515
0.106727,-0.094374,0.95156,0.272465,-0.00538,0.002568,0.006906,0.000539,-0.000358,0.000651,-0.254542,0.121446,-0.959406,-0.25737356955290974
0.10664,-0.094466,0.951599,0.272331,-0.01122,0.004097,0.014973,0.000675,-0.00069,3.6e-05,-0.254409,0.121705,-0.959408,-0.25723662437013894
0.106551,-0.094582,0.951636,0.272196,-0.012941,0.002963,0.008858,0.000374,-0.002631,0.001602,-0.254285,0.12201,-0.959402,-0.25710855640101377
0.106518,-0.094699,0.951638,0.27216,-0.012446,-0.001823,0.00269,0.000797,-0.002224,0.001639,-0.254279,0.122259,-0.959372,-0.25710286288718676
0.106503,-0.094828,0.951627,0.272159,-0.012252,-0.001044,-0.000414,0.000231,-0.002917,0.001217,-0.254319,0.12251,-0.95933,-0.257143328592006
0.106509,-0.094955,0.951612,0.272165,-0.010838,-0.00265,0.005744,0.00011,-0.001387,0.000579,-0.254398,0.122745,-0.959279,-0.2572244900848084
0.106435,-0.095103,0.951644,0.27203,-0.019271,0.006484,0.02368,5.2e-05,-0.000659,0.000275,-0.254317,0.123102,-0.959254,-0.2571426548331617
0.106275,-0.095311,0.951704,0.271811,-0.021396,0.007144,0.026797,-0.000344,-0.002105,0.002002,-0.254098,0.123643,-0.959243,-0.2569148153900004
0.10617,-0.09552,0.951754,0.271601,-0.019958,0.004351,0.020708,-0.000142,-0.002537,0.001028,-0.253983,0.124152,-0.959208,-0.25679514728256214
0.106064,-0.095739,0.951791,0.271437,-0.024475,0.00322,0.022911,-0.000237,-0.001527,0.000845,-0.253876,0.124667,-0.959169,-0.25668517855874656
0.105889,-0.096015,0.951844,0.271224,-0.028064,0.006238,0.026507,3e-05,-0.001538,0.0012,-0.253663,0.125344,-0.959137,-0.2564649991565963
0.105756,-0.09631,0.951883,0.271034,-0.027886,0.002435,0.019887,0.000408,-0.002396,0.001449,-0.253542,0.126025,-0.95908,-0.25633937516246236
0.105654,-0.096545,0.951907,0.270904,-0.022122,0.001832,0.011653,2.1e-05,-0.001457,0.001043,-0.253454,0.12656,-0.959033,-0.25624961476472674
0.105584,-0.096732,0.951925,0.270804,-0.018291,-0.000378,0.016928,-0.000414,-0.000159,0.00077,-0.253407,0.126978,-0.95899,-0.2562005176586157
0.105485,-0.096935,0.951965,0.270627,-0.019762,0.00353,0.022372,-0.000344,-0.001955,0.000803,-0.253302,0.127464,-0.958953,-0.25609258528117207
0.105397,-0.097149,0.952004,0.270447,-0.018044,-6.7e-05,0.019631,-0.000512,-0.004281,0.002348,-0.253224,0.127964,-0.958907,-0.25601147057200646
0.105301,-0.097301,0.95203,0.27034,-0.019482,0.006065,0.014725,0.000244,-0.00602,0.000324,-0.253109,0.128333,-0.958888,-0.255891651565892
0.105206,-0.097453,0.952055,0.270233,-0.020919,0.012197,0.00982,0.000999,-0.007758,-0.0017,-0.252993,0.128702,-0.958869,-0.2557735094044855
0.105002,-0.097642,0.952076,0.270169,-0.028173,0.018815,0.007816,0.00042,-0.008265,0.000176,-0.252699,0.129189,-0.958881,-0.25546924426635725
0.104745,-0.097918,0.952078,0.270163,-0.039894,0.014595,0.002233,4.7e-05,-0.007693,0.003237,-0.252358,0.129854,-0.958881,-0.25511683255522694
0.104519,-0.098301,0.952055,0.270194,-0.048884,0.007569,0.003823,-0.000881,-0.007173,0.003043,-0.252137,0.130696,-0.958825,-0.2548873025821614
0.104257,-0.098805,0.952032,0.270191,-0.063391,0.010062,0.010925,-0.000111,-0.00733,0.001661,-0.251905,0.131793,-0.958736,-0.2546476573748248
0.103955,-0.099402,0.952018,0.270136,-0.068308,0.009831,0.013834,-0.000589,-0.007905,0.001664,-0.251638,0.133101,-0.958625,-0.25437253040790353
0.103673,-0.100037,0.951998,0.270081,-0.07133,0.011529,0.016484,0.000283,-0.008536,0.0011,-0.251429,0.13447,-0.958489,-0.2541565705628484
0.103343,-0.100715,0.951986,0.27,-0.078421,0.014989,0.023469,0.00034,-0.009496,0.00157,-0.251148,0.135954,-0.958353,-0.2538663738751729
0.10291,-0.101475,0.951996,0.269844,-0.086317,0.018126,0.030436,-0.000194,-0.012886,0.002602,-0.250705,0.137667,-0.958225,-0.2534080897203545
0.102491,-0.102287,0.952001,0.269678,-0.090728,0.013569,0.026314,0.000442,-0.017101,0.002594,-0.250313,0.139476,-0.958066,-0.25300268271425724
0.102125,-0.103143,0.951981,0.269563,-0.095047,0.01223,0.019495,-0.000228,-0.020298,0.002504,-0.25005,0.141322,-0.957864,-0.2527310610312639
0.101726,-0.104021,0.951945,0.269502,-0.099653,0.013271,0.015109,-7.3e-05,-0.023108,0.003734,-0.249743,0.143213,-0.957663,-0.252414680064913
0.101313,-0.104966,0.951906,0.26943,-0.111592,0.011509,0.020008,0.001016,-0.023561,0.003281,-0.249443,0.145242,-0.957436,-0.25210491082757697
0.100892,-0.106071,0.951849,0.269356,-0.131351,0.012305,0.023021,0.000848,-0.023941,0.003357,-0.24921,0.147576,-0.957139,-0.25186403924537953
0.100382,-0.107469,0.951766,0.269287,-0.150976,0.014049,0.025671,0.002282,-0.02711,0.003766,-0.24896,0.150508,-0.956748,-0.251606666538444
0.099871,-0.108867,0.95168,0.269218,-0.170602,0.015794,0.028322,0.003714,-0.030278,0.004167,-0.248708,0.15344,-0.956347,-0.251346503526025
0.099237,-0.11049,0.951584,0.269131,-0.188402,0.010044,0.028511,0.001505,-0.032753,0.005863,-0.248338,0.156865,-0.955888,-0.25096335527026825
0.098643,-0.112239,0.951458,0.269073,-0.194199,0.001097,0.022425,-2.4e-05,-0.032128,0.006472,-0.248109,0.160497,-0.955344,-0.25072908389826154
0.098119,-0.114069,0.951297,0.269062,-0.20575,0.004728,0.027035,0.002491,-0.030928,0.003008,-0.248063,0.164227,-0.954722,-0.2506811610822811
0.097486,-0.11605,0.951126,0.269051,-0.223958,0.005944,0.024121,0.00125,-0.029191,0.004436,-0.247889,0.168298,-0.954058,-0.2505013326462798
0.096861,-0.118163,0.950923,0.269073,-0.236463,-0.002429,0.023356,0.001628,-0.026329,0.003601,-0.247804,0.172602,-0.953311,-0.25041253781495865
0.096217,-0.120422,0.950703,0.269082,-0.2504,0.001288,0.025955,0.001448,-0.025707,0.003967,-0.247754,0.177192,-0.952482,-0.2503616665818491
0.095511,-0.122774,0.950479,0.269061,-0.257743,-0.002267,0.029537,0.001406,-0.023447,0.004424,-0.24763,0.181991,-0.951608,-0.25023308343347517
0.094835,-0.125214,0.950244,0.269005,-0.2656,-0.004767,0.035876,0.000194,-0.018033,0.003463,-0.2476,0.186944,-0.950656,-0.25020147268591125
0.094131,-0.127728,0.95002,0.268863,-0.269116,-0.002724,0.044734,-8.2e-05,-0.015676,0.00461,-0.247535,0.192072,-0.94965,-0.25013558995132235
0.093415,-0.130259,0.949813,0.268629,-0.269526,-0.008603,0.055406,-0.000763,-0.012023,0.003377,-0.247437,0.197256,-0.948612,-0.25003332963245756
0.092665,-0.132825,0.949632,0.268273,-0.278496,-0.002736,0.074609,0.000259,-0.009214,0.000658,-0.247262,0.202551,-0.947541,-0.24985351040269027
0.091754,-0.135554,0.94947,0.267794,-0.296448,0.009366,0.0822,0.000776,-0.010377,0.001106,-0.246837,0.208267,-0.946413,-0.24941431203820474
0.090767,-0.138429,0.949278,0.267338,-0.308991,0.00908,0.073625,0.000146,-0.011417,0.001975,-0.246341,0.214284,-0.945198,-0.24890298223140042
0.08973,-0.141417,0.949021,0.267036,-0.316257,0.01229,0.068429,-0.000326,-0.008512,0.001548,-0.245838,0.220494,-0.9439,-0.24838430358027988
0.088691,-0.144404,0.948755,0.266732,-0.323524,0.0155,0.063233,-0.000805,-0.005599,0.001082,-0.245327,0.226695,-0.942563,-0.24785636193785623
0.087613,-0.147405,0.94846,0.266494,-0.32179,0.01528,0.055555,-0.001177,-0.006261,0.001335,-0.244759,0.232919,-0.941192,-0.2472721023542904
0.086568,-0.150358,0.948146,0.266303,-0.314401,0.015404,0.047698,0.000791,-0.004847,0.002466,-0.244239,0.239017,-0.939797,-0.24673565140330933
0.085566,-0.153252,0.947811,0.266172,-0.306831,0.01242,0.040341,0.001794,-0.00345,0.003728,-0.243784,0.244956,-0.938385,-0.2462652274986708
0.084606,-0.156093,0.947455,0.266094,-0.301914,0.008955,0.037412,0.000924,-0.000767,0.002427,-0.243392,0.250755,-0.936954,-0.245861055599865
0.083648,-0.158931,0.947109,0.26595,-0.30527,0.013297,0.052892,0.000706,0.003206,0.002905,-0.242983,0.256557,-0.935488,-0.24543977778603107
0.082662,-0.161814,0.946788,0.265661,-0.307964,0.008306,0.066941,-4.8e-05,0.003966,0.005018,-0.242502,0.262488,-0.933966,-0.24494412441562172
0.081685,-0.164752,0.946494,0.265206,-0.309899,0.005518,0.083235,0.000333,0.002845,0.005745,-0.242014,0.268546,-0.932369,-0.24444221867704655
0.080717,-0.167676,0.946216,0.264658,-0.303996,-0.002036,0.086312,-9e-06,0.00252,0.005979,-0.241505,0.274592,-0.930739,-0.24391648406280217
0.079858,-0.170589,0.945935,0.264064,-0.298401,-0.010443,0.087599,0.000255,0.002648,0.004174,-0.241173,0.280556,-0.929044,-0.24357515307246796
0.079013,-0.173495,0.945648,0.26345,-0.299037,-0.008216,0.090532,0.000244,0.001931,0.002612,-0.240852,0.286499,-0.927313,-0.24324306836651757
0.078126,-0.176388,0.945373,0.262782,-0.300303,-0.003646,0.097776,0.000175,0.001229,0.001542,-0.24042,0.292445,-0.925567,-0.24279811204276813
0.077171,-0.179264,0.945114,0.262045,-0.29741,-0.001971,0.100716,-0.000517,-8.8e-05,0.002988,-0.239821,0.298406,-0.923818,-0.24218172848353062
0.076286,-0.182102,0.944841,0.261331,-0.28979,-0.008262,0.092302,-0.000693,0.00011,0.004389,-0.239334,0.304244,-0.922038,-0.24167993672567822
0.075452,-0.184898,0.944553,0.260652,-0.289462,-0.010019,0.09442,2.3e-05,0.001986,0.003851,-0.238924,0.309958,-0.92024,-0.24125852697888975
0.074603,-0.187731,0.944234,0.260026,-0.290265,-0.012305,0.087891,7.8e-05,0.002552,0.004707,-0.238515,0.315726,-0.918383,-0.24083669856250953
0.073753,-0.190562,0.943907,0.259397,-0.291067,-0.014592,0.081361,0.000123,0.003129,0.00553,-0.238094,0.321482,-0.916493,-0.24040332108588602
0.072953,-0.193381,0.943551,0.25883,-0.292024,-0.012083,0.075083,0.000475,0.004921,0.003486,-0.237776,0.327164,-0.914563,-0.2400748811507817
0.072173,-0.196202,0.943173,0.258304,-0.293218,-0.009085,0.073727,0.001005,0.007224,0.003373,-0.237502,0.33282,-0.912592,-0.23979425418486328
0.071388,-0.19899,0.942783,0.25781,-0.286686,-0.010955,0.067233,0.001653,0.0118,0.0044,-0.23721,0.3384,-0.910613,-0.23949287839276015
0.070594,-0.201716,0.942388,0.257355,-0.282475,-0.006436,0.066753,0.002614,0.015623,0.004459,-0.236879,0.343854,-0.908654,-0.23915228084021653
0.069772,-0.204388,0.941986,0.256943,-0.278423,-0.005218,0.058963,0.00304,0.018099,0.006038,-0.23648,0.349207,-0.906715,-0.23874213447904769
0.069008,-0.207035,0.941555,0.256611,-0.275654,-0.006689,0.052669,0.004514,0.019566,0.006896,-0.236205,0.354454,-0.904748,-0.2384580312717196
0.068272,-0.209635,0.94112,0.256293,-0.269527,-0.005648,0.052229,0.00556,0.02297,0.006791,-0.235959,0.359587,-0.902785,-0.23820660803961136
0.067542,-0.21217,0.940688,0.255983,-0.257315,-0.006728,0.04879,0.006171,0.026459,0.00627,-0.235697,0.364593,-0.900844,-0.23793439895254456
0.066848,-0.214581,0.94027,0.255693,-0.243445,-0.004234,0.044489,0.006715,0.029948,0.004788,-0.235445,0.369342,-0.898973,-0.23767544447623132
0.066131,-0.216785,0.939895,0.255397,-0.230306,-0.001902,0.045182,0.006386,0.031582,0.006328,-0.235046,0.373732,-0.897262,-0.2372647308970342
0.065414,-0.218989,0.939515,0.255099,-0.217166,0.000429,0.045874,0.006053,0.033224,0.007848,-0.234643,0.378112,-0.89553,-0.23685090596986644
0.064774,-0.22103,0.939153,0.254836,-0.199977,-0.003266,0.03934,0.00578,0.033134,0.007712,-0.234317,0.382149,-0.8939,-0.23651717869598096
0.064221,-0.222925,0.938807,0.254602,-0.187702,-0.004817,0.035706,0.006255,0.033316,0.008135,-0.234096,0.385865,-0.892361,-0.23628919304349988
0.063811,-0.224588,0.938493,0.2544,-0.174674,-0.007876,0.033002,0.006193,0.033595,0.008007,-0.234043,0.389082,-0.890977,-0.23623383277808238
0.063401,-0.226251,0.938176,0.254198,-0.161647,-0.010936,0.030299,0.006129,0.033879,0.007868,-0.233987,0.392293,-0.889582,-0.23617722957527723
0.062991,-0.227913,0.937857,0.253994,-0.148619,-0.013996,0.027595,0.006063,0.034167,0.007718,-0.23393,0.3955,-0.888176,-0.2361180604950074
0.062656,-0.229381,0.937578,0.253785,-0.134318,-0.014012,0.026929,0.005319,0.034107,0.007957,-0.233916,0.398323,-0.886917,-0.23610419467617985
0.0624,-0.230703,0.937327,0.253575,-0.122432,-0.017659,0.027727,0.004596,0.034219,0.007178,-0.23398,0.400842,-0.885765,-0.23616873322323334
0.062173,-0.231925,0.937103,0.253344,-0.112852,-0.016498,0.02782,0.004006,0.032249,0.008123,-0.234039,0.403174,-0.88469,-0.23622961153261227
0.061967,-0.233046,0.93691,0.25308,-0.102006,-0.019135,0.031499,0.003052,0.028698,0.007329,-0.234074,0.405321,-0.883699,-0.2362655531413086
0.06178,-0.234065,0.936749,0.252781,-0.088438,-0.017315,0.028585,0.002598,0.024264,0.005099,-0.234079,0.407286,-0.882794,-0.23627121922517982
0.061661,-0.234916,0.936608,0.252541,-0.070685,-0.017177,0.01947,0.002619,0.021065,0.003857,-0.234156,0.408906,-0.882025,-0.2363505632506156
0.061598,-0.235617,0.936474,0.2524,-0.058914,-0.010071,0.011079,0.001293,0.021869,0.004658,-0.23431,0.410204,-0.881381,-0.2365080418351707
0.061543,-0.236224,0.936355,0.252288,-0.053175,-0.011645,0.015286,0.000339,0.023188,0.005698,-0.234446,0.411326,-0.880821,-0.23664777402395246
0.061485,-0.236773,0.936263,0.25213,-0.047463,-0.014257,0.015191,-0.000291,0.02126,0.006219,-0.234527,0.41236,-0.880316,-0.2367323948366136
0.061489,-0.237263,0.936183,0.251965,-0.038929,-0.019104,0.014646,0.000106,0.02024,0.005728,-0.234694,0.413258,-0.879851,-0.2369036161975234
0.061534,-0.237707,0.936112,0.251799,-0.032842,-0.019405,0.017187,-0.000333,0.019592,0.005033,-0.234914,0.414052,-0.879418,-0.23713029845321779
0.061547,-0.238112,0.93607,0.251572,-0.032876,-0.014407,0.0217,-0.000558,0.0172,0.004433,-0.235029,0.414811,-0.879029,-0.23724863491894624
0.061509,-0.238487,0.936042,0.25133,-0.026504,-0.012756,0.021275,-0.000627,0.014491,0.004275,-0.235027,0.415549,-0.878682,-0.23724726192734474
0.061511,-0.238795,0.936016,0.251133,-0.020467,-0.011492,0.016649,-0.000498,0.012463,0.005104,-0.23509,0.416136,-0.878387,-0.23731030804891462
0.061518,-0.239031,0.936003,0.250955,-0.013984,-0.010587,0.01369,-0.001265,0.012761,0.005262,-0.235134,0.416591,-0.878159,-0.23735654874697543
0.061559,-0.239247,0.935987,0.250797,-0.014605,-0.009986,0.017743,-0.000479,0.012949,0.002601,-0.235242,0.416986,-0.877943,-0.23746724669948374
0.061529,-0.239472,0.935982,0.250609,-0.017905,-0.005276,0.01706,-0.000841,0.009379,0.002001,-0.235208,0.417444,-0.877735,-0.2374323090523945
0.061522,-0.239655,0.935973,0.25047,-0.009349,-0.006646,0.010179,-0.001846,0.007772,0.002874,-0.235218,0.417803,-0.877561,-0.23744351099635658
0.061509,-0.239758,0.935969,0.250389,-0.00176,-0.004243,0.003693,-0.002041,0.005746,0.002917,-0.235206,0.418009,-0.877466,-0.23743109119986108
0.06159,-0.239781,0.935956,0.250395,0.004978,-0.010536,-0.005509,-0.002109,0.005783,0.004557,-0.235371,0.418005,-0.877424,-0.23760026147372262
0.06173,-0.239755,0.935949,0.250412,0.002289,-0.009549,-0.006921,-0.000947,0.007135,0.004505,-0.235628,0.417881,-0.877414,-0.2378640142285157
0.061838,-0.239784,0.935926,0.250444,-0.001184,-0.01183,-0.006056,-0.001736,0.005932,0.004795,-0.235857,0.417866,-0.877359,-0.23809985165054123
0.062013,-0.239797,0.935907,0.250461,0.004788,-0.016951,-0.006036,-0.002737,0.004805,0.004004,-0.236197,0.417792,-0.877303,-0.23844961591981553
0.062231,-0.239781,0.935893,0.250471,0.006713,-0.012759,-0.005577,-0.0011,0.001931,0.001609,-0.2366,0.417645,-0.877264,-0.2388644682139416
0.062357,-0.23977,0.93588,0.250501,0.003308,-0.006187,-0.007954,-0.001376,0.000213,0.001368,-0.236842,0.417551,-0.877244,-0.23911467939382147
0.062408,-0.239765,0.935875,0.250513,-0.000849,-8e-06,-0.000283,-0.001991,0.001875,0.001496,-0.23694,0.417513,-0.877236,-0.23921563810449728
0.062403,-0.239814,0.935868,0.250492,-0.002991,-0.002621,0.002972,-0.003359,0.002473,0.004319,-0.236944,0.417605,-0.877191,-0.23922000824433343
0.062426,-0.239889,0.935863,0.250434,-0.003799,-0.007186,0.004457,-0.003459,0.003005,0.003398,-0.236997,0.417739,-0.877113,-0.2392737101959074
0.062476,-0.239953,0.935862,0.250363,-0.004148,-0.003739,0.008153,-0.003052,0.003509,0.000978,-0.237088,0.417843,-0.877039,-0.23936783644283316
0.062492,-0.240012,0.935867,0.250285,-0.002403,-0.001237,0.00817,-0.002728,0.002776,0.00093,-0.237111,0.417957,-0.876978,-0.23939117541301183
0.062476,-0.240019,0.935881,0.250229,0.005355,-0.000833,0.002528,-0.002116,0.001884,0.000592,-0.237059,0.417991,-0.876976,-0.2393380851935563
0.062492,-0.239917,0.935908,0.250221,0.013982,0.003644,-0.00161,-0.002162,0.002508,0.000365,-0.237038,0.417807,-0.877069,-0.23931588995079112
0.062497,-0.239708,0.935951,0.25026,0.016483,0.00462,-0.000453,-0.002088,0.003182,0.000825,-0.236967,0.417428,-0.877269,-0.23924264170618473
0.062502,-0.239498,0.935994,0.250299,0.018983,0.005596,0.000704,-0.002013,0.003856,0.001285,-0.236896,0.417049,-0.877468,-0.23916884683122266
0.06246,-0.239294,0.936048,0.250302,0.016888,0.00701,-0.001065,-0.000513,0.003188,0.002163,-0.236722,0.416713,-0.877675,-0.23899123071704712
0.062475,-0.239081,0.936091,0.250343,0.021143,0.004992,-0.006812,-0.00048,0.003111,0.002414,-0.23667,0.416322,-0.877875,-0.23893609422714962
0.062524,-0.238836,0.936128,0.250425,0.024852,0.006183,-0.009703,-0.000398,0.003501,0.002928,-0.236682,0.415847,-0.878096,-0.2389493351461924
0.062552,-0.23857,0.936171,0.250509,0.02663,0.00476,-0.008981,-0.000854,0.00426,0.003451,-0.236646,0.415345,-0.878343,-0.23891295802639026
0.062611,-0.23831,0.936214,0.250582,0.02339,0.00284,-0.003248,0.000144,0.00372,0.002594,-0.236668,0.41484,-0.878576,-0.23893393522308287
0.062606,-0.238064,0.936272,0.2506,0.023712,0.005134,-0.004352,0.000335,0.00313,0.002678,-0.236549,0.414407,-0.878813,-0.23881370542033994
0.062623,-0.237788,0.936329,0.250647,0.026593,0.005109,-0.007742,7.1e-05,0.001675,0.00229,-0.236473,0.413903,-0.87907,-0.23873444997842394
0.062645,-0.237516,0.936384,0.250693,0.027006,0.008013,-0.006732,-0.0003,0.000307,0.002139,-0.236407,0.413403,-0.879323,-0.23866610094696294
0.062657,-0.237234,0.936429,0.250788,0.024894,0.008108,-0.010081,0.000682,-0.000597,0.002272,-0.236338,0.412878,-0.879589,-0.238595907801163
0.062672,-0.236987,0.936453,0.250928,0.02279,0.005891,-0.015765,-0.000125,-0.000104,0.003392,-0.236311,0.412403,-0.879819,-0.23856870548194284
0.062733,-0.236755,0.936466,0.251085,0.019348,0.006808,-0.01413,0.000587,0.000197,0.001817,-0.236386,0.411924,-0.880023,-0.23864464580790445
0.062758,-0.236557,0.936477,0.251222,0.016898,0.007538,-0.013695,0.00193,0.000403,0.002668,-0.236399,0.411529,-0.880204,-0.23865863317752067
0.062762,-0.236366,0.936483,0.251377,0.01794,0.005357,-0.014832,0.001384,0.001286,0.003224,-0.236385,0.411153,-0.880384,-0.2386437633484367
0.062814,-0.23617,0.936489,0.251528,0.018621,0.006231,-0.013575,0.001646,0.002819,0.003016,-0.236457,0.410742,-0.880556,-0.23871676442409287
0.062846,-0.235977,0.936503,0.25165,0.017937,0.004168,-0.012253,0.001616,0.003446,0.003782,-0.236479,0.410356,-0.88073,-0.23873959548839777
0.062882,-0.235777,0.936524,0.25175,0.01969,0.00271,-0.00967,0.001333,0.00287,0.004072,-0.236494,0.409961,-0.88091,-0.23875664372523486
0.062964,-0.235574,0.936545,0.251842,0.018389,-0.000809,-0.010585,0.001084,0.001794,0.003333,-0.236592,0.409538,-0.881081,-0.238856857232226
0.063094,-0.235394,0.936557,0.251932,0.016308,-0.003434,-0.004135,0.001191,0.001774,0.002629,-0.236788,0.40913,-0.881217,-0.23905933435349838
0.063141,-0.235271,0.936579,0.251954,0.01219,0.001231,-0.001623,0.000757,0.000561,0.002787,-0.236827,0.408883,-0.881322,-0.23909967294352288
0.063177,-0.235132,0.936609,0.251964,0.013216,-0.003327,-0.005213,0.000321,-0.000714,0.002846,-0.236834,0.408616,-0.881443,-0.2391057289681292
0.06328,-0.235005,0.936625,0.251996,0.013362,-0.003142,-0.001438,0.000262,0.000596,0.001919,-0.23698,0.40833,-0.881537,-0.23925601513920877
0.063316,-0.234902,0.936648,0.251997,0.009976,-0.001925,-0.000609,0.00054,7.3e-05,0.001668,-0.236999,0.408129,-0.881625,-0.23927547774923633
0.063339,-0.234799,0.936679,0.251972,0.013568,-0.003089,-0.00123,-0.000408,-0.001143,0.001903,-0.236982,0.407943,-0.881715,-0.23925835134574247
0.063415,-0.234675,0.936706,0.25197,0.013522,-0.003067,-0.000439,-0.000853,-0.001063,0.001634,-0.237064,0.407686,-0.881812,-0.23934313933024007
0.063491,-0.234552,0.936732,0.251968,0.013476,-0.003045,0.000352,-0.001299,-0.000984,0.001364,-0.237146,0.407429,-0.881909,-0.2394283265620224
0.063579,-0.234427,0.93676,0.251957,0.014205,-0.004205,0.001701,-0.001091,-0.001538,0.001792,-0.237248,0.407166,-0.882003,-0.23953154821906952
0.063644,-0.234336,0.936798,0.251886,0.009232,-0.002198,0.008152,-0.000439,-0.001301,0.001422,-0.237294,0.40699,-0.882072,-0.239580427913897
0.063708,-0.234245,0.936835,0.251814,0.00426,-0.000191,0.014604,0.000213,-0.001064,0.001051,-0.23734,0.406813,-0.882141,-0.23962680274860382
0.063668,-0.23422,0.936876,0.251696,0.001728,0.002636,0.009673,-0.000946,-0.002357,0.002542,-0.237203,0.40682,-0.882175,-0.23948516542739812
0.063648,-0.234225,0.936891,0.251639,-0.002101,0.00095,0.004003,-0.000236,-0.001363,0.00319,-0.237144,0.406855,-0.882175,-0.23942366024177347
0.063597,-0.234304,0.936888,0.25159,-0.01135,0.004802,0.002279,0.001077,-0.000885,0.00136,-0.237064,0.407032,-0.882114,-0.23934218977421048
0.063535,-0.234424,0.93685,0.251635,-0.013051,0.003804,-0.005098,-8.1e-05,-0.00063,0.002664,-0.237025,0.407265,-0.882017,-0.23930150726806065
0.063486,-0.234536,0.936804,0.251714,-0.012504,0.003051,-0.007585,5.5e-05,0.001133,0.00314,-0.23702,0.407468,-0.881925,-0.23929715413853248
0.063465,-0.234662,0.936742,0.251833,-0.012451,0.001898,-0.009359,0.000895,0.001975,0.002978,-0.237092,0.407671,-0.881811,-0.23937133463455948
0.063436,-0.234762,0.936687,0.251952,-0.009265,0.002289,-0.011345,0.00082,0.002872,0.002384,-0.237137,0.407831,-0.881725,-0.23941758456224344
0.063421,-0.234828,0.936639,0.252073,-0.004088,0.002009,-0.00515,0.001085,0.004961,0.003919,-0.237192,0.407924,-0.881668,-0.23947512318603592
0.063399,-0.234896,0.936623,0.252076,-0.00606,0.002245,0.004552,0.001388,0.006112,0.004034,-0.237186,0.408055,-0.881609,-0.23946735183920928
0.063335,-0.234971,0.936626,0.25201,-0.005394,-0.000937,0.009308,0.001082,0.005727,0.004951,-0.237072,0.408237,-0.881555,-0.23935133018756768
0.063336,-0.235,0.936643,0.251921,0.000537,-0.001163,0.01094,0.000505,0.00481,0.002542,-0.237049,0.408312,-0.881527,-0.23932746310743705
0.063294,-0.234981,0.93668,0.25181,0.00476,0.004631,0.01065,0.000596,0.002507,2.3e-05,-0.236913,0.408327,-0.881556,-0.23918775023503344
0.063193,-0.234907,0.936724,0.251743,0.006526,0.011316,0.002219,0.000949,0.00158,0.000991,-0.236661,0.408268,-0.881651,-0.23892796863960666
0.063095,-0.234811,0.93675,0.251758,0.003676,0.012955,0.002357,0.000703,0.002788,0.002559,-0.236439,0.408148,-0.881766,-0.23869988825067223
0.062964,-0.234755,0.936761,0.251801,0.002645,0.011658,-0.001132,0.000135,0.0029,0.005322,-0.236187,0.408109,-0.881852,-0.2384404900173214
0.06291,-0.234708,0.936755,0.251883,0.003203,0.003337,-0.007278,-0.00098,0.003247,0.004322,-0.236101,0.408035,-0.881909,-0.23835085260908467
0.062896,-0.234655,0.936747,0.251965,0.003642,0.006014,-0.007858,0.000943,0.00544,0.002403,-0.236085,0.40793,-0.881962,-0.23833495143751227
0.062847,-0.2346,0.936742,0.252046,0.003471,0.010851,-0.006483,0.001121,0.00495,0.002174,-0.236004,0.407838,-0.882026,-0.2382504222179187
0.062739,-0.234543,0.936742,0.252126,0.003732,0.016226,-0.000661,0.001257,0.005228,0.002539,-0.23581,0.407777,-0.882106,-0.2380512583536124
0.062573,-0.234477,0.936752,0.252191,0.003746,0.02003,-0.0024,0.000808,0.004063,0.00311,-0.235497,0.407733,-0.88221,-0.237729655631481
0.062441,-0.234392,0.936762,0.252266,0.005102,0.014236,-0.008851,0.000216,0.001899,0.002414,-0.235243,0.407636,-0.882323,-0.23746855279682352
0.062339,-0.234314,0.936753,0.252398,0.001974,0.013432,-0.011695,0.001035,0.001764,0.001382,-0.235073,0.40752,-0.882422,-0.2372939400023806
0.06226,-0.234265,0.936719,0.25259,0.002496,0.01167,-0.01695,0.000655,0.002416,0.002267,-0.234987,0.407428,-0.882487,-0.2372044143269573
0.062188,-0.234169,0.936694,0.25279,0.00671,0.010677,-0.019038,0.001099,0.004363,0.002574,-0.234893,0.407247,-0.882596,-0.23710891466741435
0.062167,-0.234077,0.936674,0.252953,0.005295,0.011276,-0.00918,0.001752,0.006303,0.002232,-0.234881,0.407058,-0.882686,-0.23709653626575705
0.062101,-0.233997,0.936678,0.253027,0.007674,0.006454,-0.008162,0.001062,0.00437,0.00243,-0.234753,0.406933,-0.882778,-0.2369638409711035
0.062036,-0.233916,0.936683,0.253101,0.010054,0.001633,-0.007143,0.000372,0.002438,0.002627,-0.234625,0.406808,-0.882869,-0.23683265853774157
0.062036,-0.233828,0.936683,0.253181,0.009749,0.005185,-0.006301,0.000102,0.000346,0.004149,-0.234617,0.406633,-0.882952,-0.23682532041150534
0.062076,-0.233733,0.936693,0.253224,0.014175,-0.003814,-0.003884,0.000363,4e-06,0.003309,-0.234666,0.406434,-0.883031,-0.2368748767382583
0.062177,-0.2336,0.936725,0.253202,0.016961,-0.009222,0.000965,-9.3e-05,-0.000411,0.001564,-0.234781,0.406152,-0.88313,-0.23699375322406493
0.062282,-0.2335,0.936766,0.253115,0.007882,3.9e-05,0.009811,-0.000258,-0.001513,-0.000839,-0.234893,0.405941,-0.883197,-0.23710748369054338
0.062219,-0.23345,0.936817,0.252989,0.003286,0.00754,0.014184,-0.000808,-0.002205,0.000626,-0.234697,0.405919,-0.883259,-0.2369060248556247
0.062142,-0.233411,0.936862,0.252878,0.000255,0.00278,0.010178,-9e-05,-0.001766,0.001221,-0.234487,0.40592,-0.883315,-0.2366897624452841
0.0621,-0.233445,0.936878,0.252799,-0.007757,-0.000358,0.005975,0.000366,-0.001205,0.000964,-0.23439,0.406021,-0.883294,-0.2365906011169324
0.062095,-0.233521,0.93687,0.252758,-0.007255,-0.001478,0.002258,-0.000708,-0.00061,0.00067,-0.234398,0.406168,-0.883224,-0.23659977100051793
0.062106,-0.233575,0.936848,0.252786,-0.003335,-0.000169,-0.001294,-0.000514,-0.00011,0.002049,-0.234457,0.40625,-0.883171,-0.2366596974770219
0.062128,-0.233568,0.936846,0.252796,0.003667,-0.002622,-0.000505,-0.000386,-0.000453,0.00113,-0.234498,0.406223,-0.883172,-0.2367030101257664
0.062159,-0.233547,0.936856,0.252772,0.000453,0.004281,0.006053,-0.000307,0.000893,-0.000651,-0.234536,0.406175,-0.883184,-0.23674158587512215
0.062076,-0.233545,0.936872,0.252735,-0.000807,0.009557,0.007076,-2.3e-05,0.000755,0.000248,-0.234365,0.406226,-0.883206,-0.23656483438856862
0.061963,-0.233535,0.936889,0.252707,-0.002657,0.006857,-0.001089,0.001458,0.001229,0.001673,-0.234136,0.406276,-0.883244,-0.23633055691710325
0.06192,-0.233572,0.936869,0.252758,-0.00477,0.005156,-0.004581,0.0017,0.001043,0.001674,-0.234095,0.406351,-0.88322,-0.23628887389340086
0.061877,-0.233609,0.936849,0.252809,-0.006882,0.003455,-0.008073,0.001941,0.000856,0.001676,-0.234055,0.406427,-0.883196,-0.23624720258998702
0.06187,-0.233643,0.936818,0.252894,-0.004022,-0.001235,-0.013197,0.001334,0.001517,0.002959,-0.234095,0.40647,-0.883166,-0.23628830292004704
0.061906,-0.23368,0.936769,0.253033,-0.001339,-0.004327,-0.011646,0.001111,0.003718,0.003268,-0.23424,0.40648,-0.883123,-0.23643751284274828
0.061887,-0.233727,0.936743,0.25309,-0.004942,0.003095,-0.001779,0.001337,0.005316,0.003369,-0.234253,0.406557,-0.883084,-0.23644945987640656
0.061864,-0.233767,0.93673,0.253108,-0.00313,-0.000478,-0.00264,0.000423,0.005658,0.004689,-0.234235,0.406636,-0.883052,-0.23643296512540657
0.061888,-0.233805,0.936717,0.253113,-0.001223,-0.004054,0.001233,0.000964,0.004995,0.002888,-0.234302,0.406689,-0.88301,-0.2364997518864472
0.061909,-0.23383,0.936724,0.25306,-0.001557,-0.002887,0.004118,0.000538,0.002992,0.002313,-0.23433,0.406735,-0.882981,-0.2365286344685486
0.061973,-0.233845,0.936728,0.253016,0.00113,-0.003448,0.003589,0.000326,0.001886,0.001664,-0.234436,0.406738,-0.882952,-0.23663912207116736
0.061974,-0.233837,0.936749,0.252946,-0.000639,0.000238,0.009549,0.000558,0.002437,0.00146,-0.234403,0.40674,-0.882959,-0.236605886910474
0.061943,-0.233853,0.936775,0.252839,0.000351,0.000883,0.009761,0.000331,0.001709,0.001395,-0.234308,0.406812,-0.882952,-0.2365063059933298
0.061952,-0.233855,0.936795,0.252764,0.000478,-0.001856,0.005129,-0.000291,0.002166,0.001737,-0.234294,0.406829,-0.882948,-0.2364911574589698
0.061911,-0.233861,0.93681,0.252712,-0.002218,0.001217,0.002103,-0.000564,0.001833,0.001373,-0.234197,0.406876,-0.882952,-0.23639215473461278
0.061881,-0.233889,0.93681,0.252694,-0.002766,0.002078,-0.000721,0.000247,0.000926,0.002888,-0.234146,0.406945,-0.882933,-0.23634023437385127
0.061846,-0.233917,0.936799,0.252716,-0.002646,0.00225,-0.003483,-0.000214,0.000379,0.002776,-0.234104,0.407007,-0.882916,-0.23629652545080126
0.061835,-0.233973,0.936765,0.252794,-0.00459,-4.2e-05,-0.007039,0.000163,0.000126,0.002261,-0.234143,0.407093,-0.882866,-0.23633765828497377
0.061823,-0.23403,0.93673,0.252873,-0.006534,-0.002334,-0.010595,0.000539,-0.000126,0.001746,-0.234182,0.407179,-0.882816,-0.23637775846372674
0.061852,-0.23409,0.93668,0.252996,-0.006071,-0.000349,-0.012628,0.000177,0.000968,0.002429,-0.234319,0.407237,-0.882753,-0.2365177290128616
0.061844,-0.23415,0.936629,0.253132,-0.002424,-0.002941,-0.0145,-0.001129,0.002207,0.002897,-0.234391,0.407314,-0.882698,-0.2365925665098244
0.061906,-0.234161,0.936597,0.253225,-0.001348,-0.002354,-0.010217,-0.000814,0.002247,0.001922,-0.234553,0.407277,-0.882672,-0.23675849498656917
0.061969,-0.234173,0.936564,0.253318,-0.000272,-0.001767,-0.005934,-0.000499,0.002287,0.000948,-0.234716,0.40724,-0.882646,-0.2369267468096685
0.061994,-0.23416,0.936554,0.25336,0.000824,0.001211,-0.003685,-7e-05,0.001168,0.000762,-0.234774,0.407194,-0.882652,-0.23698710489843425
0.061982,-0.234159,0.93654,0.253416,0.000323,0.003404,-0.004184,-0.000503,0.00153,0.001076,-0.234776,0.407185,-0.882655,-0.2369886545066721
0.061959,-0.234162,0.936525,0.253475,-0.000793,0.00643,-0.002631,0.000172,0.002393,0.00224,-0.234761,0.407188,-0.882658,-0.23697241256727067
0.0619,-0.234163,0.936525,0.253491,-0.001818,0.002423,0.000927,-0.000421,0.002912,0.003437,-0.234659,0.407216,-0.882672,-0.23686695693980256
0.061878,-0.234202,0.936531,0.253437,-0.001126,0.000904,0.004124,-0.001093,0.003233,0.002718,-0.234613,0.407311,-0.882641,-0.2368196502192164
0.061821,-0.234236,0.936543,0.253377,-0.001732,0.003814,0.007741,-0.001224,0.002792,0.001059,-0.234495,0.407417,-0.882623,-0.23670016141232406
0.061747,-0.234285,0.936556,0.253299,-0.005392,0.005821,0.014158,-0.001843,0.002343,-0.000987,-0.234347,0.407562,-0.882596,-0.23654717807541448
0.061539,-0.234341,0.936599,0.253141,-0.006872,0.014811,0.017534,-0.000764,0.000239,0.000197,-0.233916,0.40781,-0.882595,-0.23610488726908718
0.061386,-0.234346,0.936624,0.253079,0.000637,0.010655,0.002164,-0.001289,-0.001649,0.002963,-0.233608,0.407917,-0.882628,-0.23578599446148646
0.061324,-0.234302,0.936617,0.253161,-0.001203,0.010996,-0.005626,-0.000927,-0.000906,0.002865,-0.233507,0.407852,-0.882684,-0.2356822807293211
0.061262,-0.234258,0.93661,0.253244,-0.003044,0.011338,-0.013416,-0.000564,-0.000162,0.002766,-0.233406,0.407788,-0.88274,-0.23557903834786234
0.061192,-0.234238,0.936574,0.253412,-0.00101,0.006427,-0.023008,-0.000528,0.000592,0.004201,-0.233339,0.40775,-0.882776,-0.23551017997228918
0.061217,-0.23422,0.936516,0.253636,0.001129,0.003456,-0.020421,-0.00056,0.001867,0.002547,-0.233475,0.407648,-0.882787,-0.23564956516469532
0.061255,-0.234172,0.936472,0.253833,0.003539,0.005139,-0.016524,-7.7e-05,0.001022,0.001209,-0.233609,0.407494,-0.882823,-0.23578706701404795
0.061263,-0.234088,0.936441,0.254021,0.007315,0.00563,-0.015952,0.000649,0.001107,0.002413,-0.233666,0.407295,-0.882899,-0.2358452352697245
0.06127,-0.234001,0.93642,0.254178,0.008712,0.002501,-0.006511,0.000182,0.00031,0.000676,-0.233705,0.4071,-0.882979,-0.2358861824939835
0.061186,-0.233972,0.936433,0.254176,-0.003352,0.016262,0.009639,0.00071,-0.000134,0.000301,-0.233533,0.407095,-0.883026,-0.23570989846372029
0.061004,-0.233986,0.936455,0.254127,3.1e-05,0.008396,0.004649,-0.000228,-0.002003,0.003149,-0.23318,0.40723,-0.883058,-0.23534585660072915
0.060932,-0.233953,0.936476,0.254099,0.002763,0.006667,0.002502,0.000599,-0.000774,0.000982,-0.233018,0.407217,-0.883106,-0.23517909883021057
0.060824,-0.233892,0.936489,0.254134,0.000664,0.017706,-0.003162,0.001408,-0.001155,1e-06,-0.232802,0.40716,-0.883189,-0.23495768455618996
0.060633,-0.233827,0.936491,0.254229,-0.003068,0.018629,-0.00815,0.000164,0.000283,0.002477,-0.232456,0.407125,-0.883297,-0.2346018149291923
0.060475,-0.233825,0.936468,0.254356,-0.004668,0.012717,-0.009297,0.000654,0.001458,0.004262,-0.232215,0.407175,-0.883337,-0.2343547148332833
0.060379,-0.233841,0.936433,0.254493,-0.004574,0.007744,-0.010381,0.000592,0.002907,0.003643,-0.232104,0.407221,-0.883345,-0.2342397573750628
0.060292,-0.233814,0.936415,0.254604,-0.000434,0.010337,-0.009218,0.000616,0.004884,0.001869,-0.231976,0.407194,-0.883391,-0.23410924955538884
0.060207,-0.233776,0.936402,0.254707,0.003528,0.011152,-0.00745,0.000652,0.003277,0.001502,-0.231844,0.407146,-0.883448,-0.23397360346844556
0.060088,-0.233707,0.936399,0.254808,0.004533,0.01566,-0.007198,0.000578,0.00234,0.000902,-0.231634,0.407064,-0.883541,-0.23375652931425447
0.059907,-0.233653,0.936409,0.254862,-0.003817,0.024004,0.003518,0.001437,0.00447,0.000245,-0.231294,0.407053,-0.883635,-0.23340697359697735
0.059665,-0.233674,0.936413,0.254886,-0.00671,0.022168,0.002352,-8.2e-05,0.001332,0.003074,-0.230864,0.407216,-0.883673,-0.23296416499505826
0.05952,-0.233676,0.9364,0.254966,-0.002078,0.011307,-0.004858,0.000988,0.002157,0.002935,-0.230629,0.407277,-0.883706,-0.23272295619398103
0.059401,-0.233672,0.936383,0.25506,-0.001764,0.016269,-0.004189,0.001818,0.002732,0.000383,-0.230446,0.407312,-0.883738,-0.23253489838516556
0.059228,-0.23366,0.936362,0.255187,-0.000356,0.014978,-0.00782,0.001655,0.003544,0.003244,-0.230172,0.407352,-0.88379,-0.23225410204209787
0.059127,-0.233608,0.936348,0.255311,0.003092,0.0093,-0.0101,0.002206,0.003018,0.0036,-0.230012,0.407285,-0.883863,-0.23209030175355427
0.059052,-0.233552,0.936342,0.255403,0.001047,0.006638,-0.004852,0.002504,0.002831,0.00268,-0.229885,0.407206,-0.883932,-0.23196002870022225
0.058971,-0.233531,0.936338,0.255455,0.001569,0.005598,-0.001238,0.001901,0.00301,0.002327,-0.229747,0.407198,-0.883972,-0.23181761807017826
0.058937,-0.233511,0.936325,0.255529,0.002299,0.002974,-0.008441,0.002356,0.003393,0.003877,-0.229705,0.407164,-0.883998,-0.23177563327873246
0.058988,-0.233465,0.936311,0.255611,0.00622,-0.008727,-0.008111,0.000611,0.00194,0.00302,-0.229814,0.407036,-0.884029,-0.23188725247908112
0.0591,-0.233381,0.936314,0.255651,0.012456,-0.01018,-0.008345,0.000239,0.001004,0.001272,-0.230001,0.406818,-0.884081,-0.23207818313677497
0.05922,-0.233239,0.936342,0.25565,0.011169,0.002389,0.006235,0.003241,0.001376,-0.002394,-0.230155,0.406504,-0.884185,-0.23223741530384187
0.05911,-0.233139,0.936399,0.255555,0.007896,0.011992,0.012272,0.000166,-0.000538,0.001449,-0.229861,0.40641,-0.884304,-0.23193461369163523
0.059046,-0.233043,0.93645,0.25547,0.009725,-0.000717,0.005471,0.000256,-0.00021,0.003553,-0.229658,0.406298,-0.884409,-0.23172652657722023
0.05907,-0.232989,0.93648,0.255405,0.000449,-0.00392,0.005453,0.001284,-0.00046,0.002138,-0.229648,0.406205,-0.884454,-0.23171688330613355
0.05916,-0.233021,0.936475,0.255374,-0.001554,-0.006997,-0.00073,0.000157,-6.2e-05,0.001553,-0.229819,0.406221,-0.884402,-0.2318914251058998
0.059238,-0.23303,0.936469,0.255368,0.001555,-0.005653,-0.000742,0.000816,0.000275,0.001012,-0.229965,0.406196,-0.884376,-0.23204265525979487
0.059325,-0.233022,0.93647,0.255353,0.004189,-0.004846,-0.001541,0.000457,0.001633,0.001797,-0.230119,0.406139,-0.884362,-0.23219883150168744
0.059393,-0.232971,0.936487,0.255321,0.007951,-0.003485,0.00081,0.000355,0.000865,-8.4e-05,-0.230207,0.406021,-0.884394,-0.232289694084919
0.059394,-0.232902,0.936506,0.255313,0.00668,0.004215,0.000675,8.5e-05,0.000207,-2e-05,-0.230171,0.405901,-0.884458,-0.2322539021428141
0.059383,-0.232818,0.936506,0.255392,0.006787,0.003923,-0.008923,0.00056,-0.000685,0.000713,-0.230146,0.405739,-0.884539,-0.23222645479860474
0.059373,-0.232734,0.936506,0.255472,0.006894,0.003632,-0.018522,0.001035,-0.001576,0.001446,-0.23012,0.405578,-0.884619,-0.23220138332637463
0.059396,-0.232637,0.936464,0.255711,0.006217,0.004926,-0.032743,0.003246,-0.002488,0.001977,-0.23022,0.405335,-0.884705,-0.23230386381895216
0.059498,-0.232544,0.936379,0.256083,0.007402,0.00033,-0.044219,0.00238,-0.001127,0.003954,-0.230527,0.405025,-0.884767,-0.23261870685061353
0.059668,-0.232445,0.936273,0.25652,0.01143,-0.009819,-0.049099,0.003184,0.002209,0.004421,-0.230984,0.404652,-0.884818,-0.23308958682182
0.059938,-0.232324,0.93617,0.256942,0.013452,-0.012545,-0.047897,0.001757,0.004645,0.003123,-0.231611,0.404189,-0.884866,-0.23373431377820647
0.060215,-0.232166,0.936089,0.257314,0.016682,-0.01523,-0.039545,0.001484,0.007995,0.003232,-0.232213,0.403668,-0.884946,-0.2343515632006323
0.06048,-0.231992,0.936042,0.25758,0.016482,-0.013298,-0.027096,0.000908,0.006688,0.002201,-0.232737,0.403151,-0.885044,-0.23489064934470236
0.060701,-0.231853,0.936026,0.25771,0.018829,-0.015931,-0.006417,-0.000124,0.008942,0.002783,-0.233136,0.402754,-0.885119,-0.2353024396048543
0.060834,-0.231807,0.936072,0.257551,0.004991,-0.006123,0.027038,0.000827,0.005105,0.001685,-0.233295,0.402641,-0.885129,-0.23546405175252738
0.060862,-0.231761,0.936153,0.257294,0.011311,-0.013836,0.016905,-0.000184,-0.000445,0.004204,-0.233213,0.402608,-0.885166,-0.2353812269298295
0.061085,-0.231658,0.936204,0.257149,0.022722,-0.020013,0.004415,0.00076,0.000201,0.001582,-0.233518,0.402342,-0.885206,-0.2356934183443802
0.061259,-0.231538,0.936269,0.256978,0.016618,-0.010565,0.016168,0.00119,0.003112,0.000351,-0.233711,0.40208,-0.885275,-0.23589176767869663
0.061351,-0.231425,0.936336,0.256815,0.018345,-0.009498,0.00833,-0.000321,0.000299,0.002742,-0.233758,0.401871,-0.885357,-0.23594007881700244
0.061582,-0.231275,0.93637,0.256771,0.02419,-0.019059,-0.006304,0.000541,0.002711,0.002199,-0.234097,0.401492,-0.885439,-0.2362891419600628
0.061814,-0.231068,0.936406,0.256769,0.02593,-0.01329,-0.006499,6.7e-05,0.006312,0.002376,-0.234428,0.401004,-0.885573,-0.23663033502123604
0.062045,-0.23085,0.936443,0.256776,0.031072,-0.013649,0.000874,0.000231,0.011583,2.9e-05,-0.234757,0.400492,-0.885717,-0.23696825664450352
0.062194,-0.230544,0.936528,0.256704,0.036369,-0.005945,0.002706,-0.000544,0.012407,-0.001133,-0.234857,0.39989,-0.885963,-0.23707040009965616
0.062362,-0.230197,0.9366,0.256713,0.046125,-0.003727,-0.007764,0.00057,0.012153,-5.7e-05,-0.235005,0.399187,-0.886241,-0.23722435343673662
0.062567,-0.22975,0.936666,0.256822,0.053062,-0.004873,-0.022424,0.001017,0.010875,0.001371,-0.235219,0.398261,-0.8866,-0.23744334095749184
0.062873,-0.229191,0.936723,0.257038,0.067052,-0.013897,-0.038655,0.000732,0.011889,0.001547,-0.235611,0.397055,-0.887037,-0.23784697573208935
0.063307,-0.22848,0.93677,0.257394,0.0843,-0.015918,-0.048704,0.000775,0.016694,0.000259,-0.236227,0.395476,-0.887578,-0.23848107064139246
0.063765,-0.227622,0.936863,0.257701,0.098066,-0.008171,-0.036246,-5.5e-05,0.023762,-0.002666,-0.236796,0.393637,-0.888244,-0.23906566983407174
0.064167,-0.226593,0.937012,0.257966,0.119441,-0.002324,-0.036644,0.000611,0.026665,-0.000418,-0.237158,0.391535,-0.889076,-0.23943839188851415
0.06468,-0.225344,0.937197,0.258262,0.146095,-0.007414,-0.043048,-0.000655,0.027715,0.004272,-0.237631,0.388974,-0.890074,-0.2399266603244429
0.065303,-0.22386,0.937428,0.258555,0.169186,-0.015519,-0.044622,0.000141,0.031074,0.00522,-0.238194,0.385937,-0.891244,-0.2405058692123953
0.065964,-0.222248,0.937693,0.258818,0.179533,-0.009705,-0.044425,0.00076,0.02984,0.003891,-0.238752,0.382655,-0.892509,-0.24107999508188943
0.066674,-0.220516,0.937957,0.259161,0.19803,-0.01285,-0.06077,-2.2e-05,0.029896,0.004599,-0.239373,0.379111,-0.893854,-0.24172000914334335
0.067494,-0.218572,0.93822,0.259642,0.216208,-0.013619,-0.070754,0.000713,0.033128,0.005842,-0.240149,0.375088,-0.895342,-0.24251973528118445
0.068281,-0.216513,0.938504,0.260136,0.225587,-0.011017,-0.071938,-9.6e-05,0.032308,0.008833,-0.240809,0.370871,-0.89692,-0.2431999476376449
0.069196,-0.214342,0.938795,0.26064,0.242318,-0.019019,-0.077373,-0.002596,0.0347,0.008358,-0.241654,0.366377,-0.898539,-0.2440699207379416
0.070089,-0.212112,0.939122,0.261048,0.240603,-0.00595,-0.060618,0.000939,0.036182,0.006564,-0.242388,0.361805,-0.900192,-0.2448255395130197
0.070858,-0.209817,0.939481,0.261404,0.252132,-0.009788,-0.059849,-0.001463,0.029794,0.011198,-0.242833,0.357192,-0.901912,-0.24528571279572378
0.071817,-0.207382,0.93984,0.261795,0.271262,-0.01379,-0.066046,-0.000444,0.029888,0.005969,-0.243575,0.352209,-0.90367,-0.24605132475560687
0.072707,-0.204855,0.940228,0.262144,0.276896,0.006137,-0.058788,0.001408,0.029352,0.004136,-0.244125,0.347102,-0.905496,-0.24661763272092313
0.07349,-0.202174,0.940633,0.262554,0.288334,0.00756,-0.072887,0.000616,0.027841,0.007695,-0.244417,0.341752,-0.90745,-0.24691884796224126
0.074374,-0.199423,0.940998,0.263101,0.292648,-6.2e-05,-0.083901,0.000486,0.028749,0.010582,-0.244908,0.336177,-0.909398,-0.2474251646596938
0.075327,-0.196618,0.941355,0.263661,0.295811,-0.007025,-0.080662,0.001478,0.029173,0.010675,-0.245501,0.330453,-0.911334,-0.2480353334403096
0.076355,-0.193772,0.941705,0.264224,0.295953,-0.004305,-0.077563,0.002185,0.028526,0.009541,-0.246206,0.324603,-0.913244,-0.24876400162892745
0.077381,-0.190925,0.942045,0.264784,0.296095,-0.001584,-0.074463,0.002882,0.027893,0.008372,-0.246901,0.318741,-0.91512,-0.24948046161218018
0.078407,-0.188075,0.942377,0.265341,0.296237,0.001136,-0.071364,0.00357,0.027272,0.007168,-0.247586,0.312867,-0.91696,-0.25018780762187465
0.079268,-0.185302,0.942737,0.265758,0.294178,0.008323,-0.06569,0.002213,0.02223,0.011029,-0.247948,0.307249,-0.91876,-0.2505622910151411
0.080161,-0.18248,0.943099,0.266156,0.301854,-0.005179,-0.069699,0.001728,0.017218,0.010125,-0.248336,0.301522,-0.920551,-0.2509618691580475
0.081161,-0.179619,0.943449,0.266559,0.306238,-0.006102,-0.065334,0.002692,0.01299,0.007393,-0.248901,0.295655,-0.9223,-0.25154501811937846
0.082079,-0.176767,0.943814,0.266893,0.299398,-0.001309,-0.061347,0.001858,0.009575,0.007494,-0.249291,0.289858,-0.924033,-0.2519474201204013
0.08302,-0.173932,0.944147,0.267287,0.302669,-0.00439,-0.073811,0.002022,0.00708,0.00707,-0.249746,0.284054,-0.925711,-0.25241761674699564
0.084037,-0.171066,0.94444,0.267784,0.299294,-0.006016,-0.085784,0.000633,0.004097,0.005156,-0.250353,0.278115,-0.927349,-0.2530451425346742
0.085033,-0.168202,0.944689,0.268402,0.29746,-0.003407,-0.095123,0.001587,0.003209,0.007387,-0.250952,0.27215,-0.928955,-0.2536625538650771
0.08605,-0.165319,0.944918,0.269062,0.300843,-0.007878,-0.097006,0.000654,0.004042,0.005772,-0.251582,0.26612,-0.93053,-0.2543150095132399
0.087001,-0.162424,0.945172,0.269627,0.297982,0.004768,-0.082021,0.000967,0.005858,0.006087,-0.25205,0.260122,-0.932098,-0.25479766367792966
0.087968,-0.159544,0.945435,0.27011,0.30637,-0.007223,-0.076402,0.000218,0.00089,0.005688,-0.252525,0.254154,-0.933615,-0.25528885432983983
0.089015,-0.156629,0.945708,0.270518,0.31022,-0.011175,-0.073851,0.001161,-0.003302,0.003014,-0.253106,0.248091,-0.935087,-0.2558897869962064
0.089985,-0.153694,0.945999,0.270864,0.297638,0.012237,-0.06251,0.002775,-0.008751,0.000104,-0.253513,0.242041,-0.936561,-0.25630891713719
0.09079,-0.150766,0.946278,0.271265,0.300381,0.005625,-0.072722,0.001669,-0.009809,0.003242,-0.25362,0.236076,-0.938054,-0.2564210353325377
0.091593,-0.147836,0.946549,0.271664,0.303125,-0.000987,-0.082933,0.000554,-0.010858,0.006345,-0.253718,0.230102,-0.939511,-0.2565220660423899
0.092533,-0.144942,0.946759,0.272171,0.292034,-0.003108,-0.081458,0.001338,-0.011335,0.005794,-0.254111,0.22408,-0.940859,-0.25692833682268
0.09346,-0.14218,0.946937,0.272691,0.2842,-0.006328,-0.082036,-0.000762,-0.013761,0.003702,-0.254544,0.218299,-0.9421,-0.25737601483680234
0.094403,-0.139446,0.947109,0.273181,0.280104,-0.004594,-0.081489,-0.000669,-0.015501,0.003521,-0.255008,0.212563,-0.943286,-0.25785582915684024
0.095337,-0.13672,0.947257,0.27372,0.280409,-0.003393,-0.084901,0.001121,-0.018838,0.002725,-0.255464,0.206827,-0.944437,-0.2583268506235843
0.096186,-0.134007,0.947436,0.274143,0.270076,0.007699,-0.065976,0.001476,-0.015611,-0.001156,-0.255734,0.201188,-0.945581,-0.25860720536066184
0.096903,-0.131386,0.94763,0.27449,0.259203,0.014922,-0.06017,0.000862,-0.021174,0.000885,-0.255785,0.195812,-0.946695,-0.2586592833164747
0.097614,-0.128834,0.9478,0.27486,0.258218,0.007011,-0.069639,0.001318,-0.025277,0.002025,-0.25586,0.190557,-0.947747,-0.25873692577862833
0.09828,-0.126328,0.947945,0.275286,0.251415,0.008123,-0.069691,0.00235,-0.026175,0.001144,-0.255881,0.185394,-0.948765,-0.25875865298869627
0.099019,-0.123882,0.948054,0.275757,0.244411,0.006521,-0.069331,0.003103,-0.026505,0.002335,-0.256074,0.180283,-0.949697,-0.25895793922068505
0.099735,-0.1215,0.948154,0.276214,0.236796,0.000961,-0.072464,0.002266,-0.028762,0.003675,-0.256248,0.175305,-0.950582,-0.2591388814888434
0.100475,-0.119207,0.948256,0.276596,0.226387,-0.002994,-0.055936,0.003411,-0.028848,0.002213,-0.256497,0.170496,-0.951389,-0.25939558248891736
0.10124,-0.117093,0.948358,0.276871,0.213085,-0.010944,-0.051568,0.003498,-0.032006,0.001559,-0.256863,0.166031,-0.952079,-0.25977472290738407
0.101941,-0.115087,0.948459,0.277109,0.199093,-0.00789,-0.045765,0.004589,-0.03214,0.001016,-0.257157,0.161813,-0.952726,-0.26007911269587314
0.102499,-0.113421,0.948555,0.27726,0.170989,-0.004758,-0.034656,0.003304,-0.033057,0.001475,-0.257346,0.158334,-0.953259,-0.2602747841273168
0.103057,-0.111754,0.948648,0.27741,0.142884,-0.001626,-0.023546,0.002017,-0.033972,0.001922,-0.257533,0.154853,-0.953781,-0.2604682006893376
0.103494,-0.110403,0.948744,0.277462,0.124319,-0.00899,-0.024099,0.001774,-0.03342,0.003774,-0.257644,0.152056,-0.954201,-0.2605829833539617
0.103962,-0.109304,0.948791,0.277562,0.105392,-0.012029,-0.016766,0.002397,-0.032926,0.001,-0.257953,0.149701,-0.954489,-0.26090361736224227
0.104358,-0.108358,0.948859,0.277549,0.086182,-0.008041,-0.005128,0.003412,-0.031891,-0.00294,-0.258192,0.147704,-0.954736,-0.26114962115523926
0.104657,-0.107594,0.948925,0.277509,0.069562,-0.001493,-0.005024,0.002538,-0.031439,-0.002338,-0.25834,0.146112,-0.954941,-0.26130336716519775
0.104869,-0.106901,0.948973,0.277532,0.063987,-0.002094,-0.007983,0.001929,-0.029284,-0.000591,-0.258373,0.144684,-0.955149,-0.26133721800694465
0.105078,-0.106282,0.949012,0.277559,0.054049,-0.004226,-0.012131,0.001536,-0.026991,7.8e-05,-0.258439,0.143396,-0.955325,-0.26140659573590336
0.105374,-0.105777,0.949012,0.277638,0.048397,-0.012024,-0.01167,0.000744,-0.023245,0.000486,-0.258738,0.142255,-0.955415,-0.26171528842305836
0.105609,-0.105378,0.949024,0.277659,0.033908,-0.00957,-0.000185,0.001911,-0.020002,-0.001289,-0.25897,0.141366,-0.955484,-0.2619548960788582
0.105772,-0.105095,0.949063,0.277573,0.025427,-0.007,0.002381,0.002566,-0.020479,-0.000733,-0.259111,0.140765,-0.955535,-0.26210232919729254
0.105939,-0.104862,0.949083,0.277528,0.024974,-0.012092,0.000482,9.2e-05,-0.019031,0.000741,-0.259294,0.140243,-0.955562,-0.26229122304582475
0.106178,-0.104682,0.949091,0.277478,0.022392,-0.017732,0.004892,0.000332,-0.014938,0.000679,-0.259638,0.139781,-0.955536,-0.2626484391978144
0.106416,-0.104501,0.949099,0.277428,0.019809,-0.023372,0.009302,0.000572,-0.010845,0.000617,-0.259982,0.139318,-0.95551,-0.26300319445233233
0.106562,-0.104455,0.949158,0.277189,0.002187,-0.011595,0.025395,0.000354,-0.00904,-0.000758,-0.260195,0.139212,-0.955468,-0.26322508938980693
0.106686,-0.104511,0.949215,0.276924,-0.000746,-0.015156,0.024125,0.001266,-0.00891,-0.000356,-0.260419,0.139318,-0.955391,-0.2634562667802543
0.106811,-0.104566,0.949272,0.276659,-0.003679,-0.018717,0.022855,0.002179,-0.008779,4.6e-05,-0.260643,0.139424,-0.955315,-0.2636888197736331
0.10687,-0.104758,0.949319,0.2764,-0.022372,-0.008945,0.028301,0.000933,-0.010306,-0.00068,-0.260818,0.13982,-0.955209,-0.2638690872274177
0.106884,-0.105047,0.949341,0.27621,-0.025056,-0.013009,0.013612,0.000247,-0.01026,0.002978,-0.260969,0.140405,-0.955082,-0.26402563397543727
0.106986,-0.105354,0.949316,0.276141,-0.024284,-0.020343,0.003861,-0.000341,-0.004761,0.000397,-0.261311,0.140942,-0.954909,-0.2643813472940202
0.107036,-0.1057,0.949273,0.276135,-0.034255,-0.017634,0.0013,0.001348,-0.001532,0.000941,-0.261588,0.141564,-0.954741,-0.26466682472150566
0.107121,-0.106085,0.949221,0.276134,-0.034406,-0.018976,0.005115,-0.000673,-0.001204,0.002577,-0.261951,0.142236,-0.954542,-0.2650425745198698
0.10723,-0.10646,0.949172,0.276116,-0.031651,-0.021352,0.007257,0.000155,0.001169,0.001463,-0.262349,0.142882,-0.954336,-0.2654567489904936
0.107306,-0.106847,0.949165,0.275962,-0.036766,-0.011739,0.024163,0.00101,0.002443,-0.001137,-0.262674,0.143605,-0.954138,-0.26579208645675967
0.107255,-0.10722,0.949183,0.275774,-0.032707,-0.007082,0.018239,-0.002103,0.000241,0.001513,-0.262746,0.144387,-0.954,-0.265867328630621
0.107267,-0.107555,0.94917,0.275683,-0.023898,-0.010889,0.005054,-0.00086,-0.001769,0.000741,-0.262932,0.145032,-0.953851,-0.2660592620775057
0.107339,-0.107801,0.949134,0.275684,-0.022075,-0.011552,-0.003519,-6.2e-05,-0.000128,5.4e-05,-0.263196,0.145451,-0.953715,-0.26633373308645303
0.107329,-0.108022,0.949086,0.275766,-0.017626,-0.006267,-0.007646,0.000808,0.002427,7e-06,-0.263307,0.145848,-0.953623,-0.2664480469182372
0.10728,-0.108215,0.949055,0.275816,-0.018881,0.001411,-0.007238,-0.002717,0.005156,0.003237,-0.263325,0.146224,-0.953561,-0.2664662963311272
0.107316,-0.108385,0.949011,0.275888,-0.012482,-0.008388,-0.008313,-0.001568,0.002841,0.001835,-0.263492,0.146502,-0.953472,-0.2666407295678063
0.107392,-0.108519,0.948965,0.275964,-0.00739,-0.005143,-0.005241,0.000523,0.002698,0.001397,-0.263716,0.146689,-0.953381,-0.2668737746741826
0.10745,-0.108602,0.948931,0.276024,-0.002094,-0.005234,-0.000328,-0.000113,0.002265,-0.000698,-0.263879,0.146794,-0.95332,-0.26704132526345226
0.107467,-0.108586,0.948924,0.27605,0.001093,0.002028,-0.002582,0.000653,0.003343,-0.003391,-0.263906,0.146746,-0.95332,-0.2670699114027245
0.107313,-0.108574,0.948933,0.276084,-0.003616,0.017822,-0.001595,0.001939,0.003673,0.001245,-0.263617,0.146805,-0.953391,-0.26676970120436144
0.107182,-0.10859,0.948924,0.276157,-0.008739,0.007959,-0.005715,-0.001175,0.004751,0.004934,-0.263392,0.14689,-0.95344,-0.26653556556854796
0.107134,-0.108679,0.948898,0.276232,-0.010202,-0.00322,-0.008242,0.000802,0.005473,0.005433,-0.26336,0.147063,-0.953422,-0.2665032134507144
0.107198,-0.108839,0.948868,0.276248,-0.01628,-0.008738,0.005568,0.002116,0.006496,0.00028,-0.263567,0.147321,-0.953325,-0.26671769536571444
0.107146,-0.108997,0.94887,0.276198,-0.012857,0.000835,0.003677,0.002021,0.003827,0.001465,-0.263544,0.147662,-0.953279,-0.26669503517620496
0.107135,-0.109098,0.948868,0.27617,-0.000802,-0.001277,-0.001136,0.000944,0.004055,0.002674,-0.263574,0.147864,-0.953239,-0.2667244541627057
0.107135,-0.109103,0.948868,0.276168,0.001715,-0.000639,0.000249,0.001295,0.003936,0.00012,-0.263575,0.147873,-0.953238,-0.2667268646890932
0.107094,-0.109067,0.948876,0.276169,0.00069,0.001165,-0.001296,-0.000187,0.003032,0.001167,-0.263479,0.147829,-0.953271,-0.26662759609503767
0.107155,-0.108985,0.948865,0.276216,0.01098,-0.003608,-0.000876,0.000522,0.002039,0.000703,-0.263558,0.147629,-0.95328,-0.2667088255479432
0.107227,-0.108911,0.948863,0.276225,0.006932,0.000498,-0.001756,0.00055,0.002001,0.000685,-0.263655,0.147446,-0.953282,-0.26680968085779266
0.107237,-0.108814,0.948865,0.276252,0.006749,-0.002147,-0.007061,0.000902,-0.000227,0.000174,-0.263628,0.147251,-0.953319,-0.2667803372177769
0.107225,-0.108729,0.948863,0.276297,0.006259,0.003561,-0.004895,-0.000174,5.9e-05,0.001326,-0.263567,0.147087,-0.953361,-0.2667177446109679
0.107226,-0.108607,0.948884,0.276271,0.008245,0.001994,-0.00356,-0.000117,3.9e-05,0.000888,-0.263499,0.146864,-0.953414,-0.26664863893124807
0.107226,-0.108485,0.948906,0.276246,0.010231,0.000427,-0.002225,-5.9e-05,2e-05,0.000449,-0.263432,0.146642,-0.953467,-0.2665780277150381
0.107227,-0.108362,0.948927,0.27622,0.012216,-0.00114,-0.00089,-1e-06,0.0,1.1e-05,-0.263365,0.146419,-0.95352,-0.2665083781997194
0.107242,-0.108273,0.94894,0.276206,0.00336,0.004634,0.002957,-0.000632,-0.001214,0.001332,-0.263343,0.146247,-0.953552,-0.2664866691510093
0.107284,-0.108244,0.948949,0.276169,0.005524,-0.007438,0.001272,-0.001708,-0.003743,0.002694,-0.263402,0.146178,-0.953547,-0.26654638970092054
0.107334,-0.108225,0.948968,0.27609,0.000775,-0.003236,0.014027,-0.000683,-0.002707,-0.001296,-0.263474,0.146137,-0.953533,-0.26662038301736135
0.107236,-0.108215,0.949017,0.275964,-0.00116,0.013237,0.009013,0.000858,-0.006783,-0.000239,-0.263265,0.146209,-0.95358,-0.2664044800423136
0.107136,-0.108163,0.949041,0.275941,0.004381,0.007325,0.000431,-0.001019,-0.005494,0.00149,-0.263046,0.146176,-0.953645,-0.2661781666581585
0.107078,-0.108148,0.949056,0.275919,-0.003126,0.004011,0.002091,-0.001083,-0.002582,0.001361,-0.262926,0.146187,-0.953677,-0.26605387850788276
0.107006,-0.108221,0.949058,0.275911,-0.00974,0.001828,-0.000177,-0.000763,-0.001936,0.000684,-0.262828,0.146368,-0.953676,-0.26595263427038746
0.106969,-0.108323,0.949041,0.275944,-0.012787,0.004261,-0.002169,-7.7e-05,-0.003606,-0.000524,-0.262817,0.146572,-0.953648,-0.2659418220808366
0.106903,-0.10843,0.949009,0.276037,-0.010561,0.003529,-0.004588,-0.000967,-0.001868,0.002036,-0.262766,0.146784,-0.953629,-0.2658870000201937
0.10686,-0.108523,0.948982,0.276111,-0.007772,-0.000313,-0.003976,-0.000533,-0.000553,0.002044,-0.262745,0.146962,-0.953607,-0.2658662914452292
0.106859,-0.108588,0.948964,0.276148,-0.005715,0.000454,-0.002299,-0.000687,0.001683,0.001209,-0.262784,0.147074,-0.953579,-0.26590586718889886
0.10679,-0.108637,0.948952,0.276197,-0.004951,0.001171,-0.001283,-0.000349,0.001328,0.000578,-0.262687,0.147193,-0.953588,-0.2658065675205738
0.10672,-0.108687,0.94894,0.276246,-0.004188,0.001888,-0.000266,-1.2e-05,0.000973,-5.4e-05,-0.26259,0.147312,-0.953596,-0.26570588960386554
0.106595,-0.108771,0.948945,0.276242,-0.011278,0.009855,0.003635,-0.00012,-0.000208,-0.000713,-0.2624,0.147543,-0.953613,-0.265508332024155
0.106428,-0.108875,0.948952,0.276242,-0.012429,0.00791,-0.001504,4.7e-05,-0.001973,0.001516,-0.262141,0.147835,-0.953639,-0.2652409736567503
0.106344,-0.108972,0.948924,0.276332,-0.011677,0.005041,-0.009401,0.000897,-0.000905,0.00194,-0.26205,0.148039,-0.953632,-0.2651454614368213
0.106282,-0.109045,0.948883,0.276468,-0.010822,0.001986,-0.013169,0.000617,0.000594,0.001994,-0.261993,0.148176,-0.953627,-0.26508704344370176
0.106254,-0.109132,0.948836,0.276605,-0.009088,-0.000705,-0.012659,0.000699,0.002,0.002022,-0.262008,0.148315,-0.953601,-0.2651024644098313
0.106226,-0.109209,0.948796,0.276722,-0.010042,0.001504,-0.007202,0.001066,0.003325,0.001347,-0.262015,0.148445,-0.953579,-0.2651092195833414
0.106186,-0.109311,0.948771,0.276785,-0.008717,-0.000217,-0.001959,0.00122,0.002882,0.002126,-0.262004,0.148641,-0.953551,-0.26509783330194076
0.106152,-0.109385,0.948764,0.276793,-0.00588,-0.001057,0.000257,0.000987,0.0024,0.000704,-0.26198,0.148797,-0.953533,-0.26507370218691184
0.106138,-0.109459,0.948756,0.276795,-0.00508,-0.000531,0.000502,0.00065,0.001497,1e-06,-0.261994,0.148943,-0.953507,-0.26508731734517216
0.106153,-0.109515,0.948748,0.276795,-0.004357,0.00036,-7e-05,0.001307,0.000776,0.000506,-0.262052,0.149039,-0.953476,-0.26514717389820813
0.106161,-0.109576,0.948734,0.276814,-0.002719,-0.003331,-0.003508,0.002096,0.000266,0.000833,-0.262101,0.149143,-0.953446,-0.2651991302598414
0.106197,-0.109596,0.948712,0.276868,-0.000439,-0.004892,-0.007124,0.001028,0.00013,0.000409,-0.262189,0.149146,-0.953422,-0.26528881165412255
0.106245,-0.109593,0.948681,0.276959,0.001457,-0.003688,-0.009592,0.000562,0.000415,0.000548,-0.262291,0.149086,-0.953403,-0.26539531276911843
0.106307,-0.109568,0.948645,0.277068,0.001453,-0.003091,-0.010499,0.000481,0.000485,0.000132,-0.262411,0.148974,-0.953387,-0.26551968958256533
0.106369,-0.109544,0.948609,0.277178,0.00145,-0.002493,-0.011406,0.0004,0.000555,-0.000284,-0.262532,0.148862,-0.953371,-0.26564485161202084
0.10643,-0.109518,0.94857,0.277296,0.002502,-0.001808,-0.010991,0.000254,0.000623,0.000211,-0.26265,0.148746,-0.953357,-0.265768036251598
0.106471,-0.109477,0.94854,0.277399,0.00198,-0.000383,-0.008849,-4.2e-05,-1.5e-05,0.000452,-0.262721,0.148617,-0.953358,-0.26584183648485055
0.106498,-0.109445,0.948523,0.27746,0.001687,-0.00043,-0.002744,9.6e-05,0.000701,0.000921,-0.262765,0.148524,-0.95336,-0.2658866084959776
0.106481,-0.109477,0.948526,0.277444,-0.004374,0.005254,0.008388,0.000517,0.000183,0.000527,-0.262748,0.148599,-0.953353,-0.26586861969025044
0.106425,-0.109526,0.948549,0.277368,-0.003396,0.002224,0.00461,0.000998,-0.001662,0.001899,-0.262656,0.148743,-0.953356,-0.2657745167091041
0.106419,-0.109569,0.948555,0.277331,-0.002762,-0.001554,0.003635,0.001485,-0.000765,0.001432,-0.262663,0.148837,-0.953339,-0.2657803619248673
0.106398,-0.109609,0.948559,0.277311,-0.005564,-0.000844,0.001114,0.001721,-0.000329,0.001206,-0.262641,0.14893,-0.953331,-0.2657584050277228
0.106391,-0.109666,0.948557,0.277299,-0.005521,-0.003232,0.005306,0.000703,0.001388,0.001209,-0.262657,0.149045,-0.953308,-0.2657742369423232
0.106346,-0.109781,0.94857,0.277224,-0.005988,-0.003832,0.005607,0.00032,0.000961,0.001727,-0.262622,0.149307,-0.953277,-0.2657376593437533
0.106301,-0.109896,0.948584,0.27715,-0.006455,-0.004432,0.005907,-6.3e-05,0.000533,0.002245,-0.262587,0.149569,-0.953246,-0.26570149204867777
0.106298,-0.109988,0.948594,0.27708,-0.008343,-0.002657,0.007145,0.000563,0.000813,0.001869,-0.262618,0.149762,-0.953207,-0.26573468885386065
0.106266,-0.11008,0.94861,0.277,-0.005511,-0.001534,0.005395,4.3e-05,-0.00029,0.000897,-0.262594,0.149975,-0.95318,-0.2657098785028658
0.106273,-0.110144,0.948613,0.276961,-0.003336,-0.003533,0.001166,-0.000147,-0.000462,0.000785,-0.262635,0.150101,-0.953149,-0.2657521449686695
0.106294,-0.110184,0.948618,0.27692,-0.003094,-0.001028,0.0044,-0.000482,-0.000176,0.00093,-0.26269,0.150174,-0.953122,-0.265808137461757
0.106316,-0.110223,0.948623,0.276879,-0.002851,0.001478,0.007634,-0.000817,0.000111,0.001075,-0.262744,0.150247,-0.953096,-0.2658655168542468
0.10633,-0.110247,0.948631,0.276838,0.002341,-0.00129,0.003584,-0.000668,-0.000236,0.001581,-0.262776,0.150295,-0.953079,-0.26589921358480106
0.106366,-0.110232,0.948637,0.27681,0.00331,-0.002873,0.003622,-0.000259,0.000248,0.001111,-0.262833,0.150253,-0.95307,-0.26595632064154895
0.106395,-0.110217,0.948642,0.276787,0.003492,-0.002008,0.002051,-0.000233,0.000154,0.001243,-0.262875,0.150216,-0.953064,-0.2660005878787428
0.106428,-0.110191,0.948644,0.276778,0.003101,-0.004486,-0.001562,-0.000929,-0.000418,0.001224,-0.262921,0.15015,-0.953062,-0.26604894876264734
0.106478,-0.110169,0.948629,0.276819,-0.000248,-0.003079,-0.005366,-0.000781,-0.000851,0.001296,-0.263009,0.150069,-0.953051,-0.2661407037491516
0.106505,-0.110176,0.948604,0.276892,0.000643,-0.002471,-0.008998,-0.00082,-0.001021,0.002048,-0.263076,0.150046,-0.953036,-0.2662089696706893
0.106519,-0.110157,0.948578,0.276982,0.000827,-0.003635,-0.012163,-0.001211,-0.000976,0.001604,-0.263106,0.149978,-0.953038,-0.2662404054076325
0.106552,-0.110129,0.948539,0.277113,0.001495,-0.002075,-0.012939,-0.000632,-0.000825,0.000397,-0.263174,0.149869,-0.953036,-0.2663105140999306
0.106591,-0.110114,0.948502,0.277231,0.003081,-0.001768,-0.008654,-0.001426,0.00037,0.001825,-0.263258,0.149785,-0.953027,-0.2663973479429526
0.106636,-0.110097,0.948495,0.277245,0.000222,-0.001201,0.002419,-0.000269,0.001196,0.0005,-0.263335,0.149724,-0.953015,-0.2664777127531976
0.106604,-0.110096,0.948529,0.27714,0.003407,-0.000363,0.004485,-0.000742,-0.000796,0.000561,-0.263258,0.149769,-0.953029,-0.2663977624442686
0.106573,-0.110095,0.948564,0.277035,0.006592,0.000476,0.006551,-0.001216,-0.002789,0.000622,-0.263182,0.149815,-0.953043,-0.2663199971894989
0.106508,-0.110037,0.948607,0.276933,0.008854,0.006031,0.006639,0.0001,-0.003462,-0.001357,-0.263015,0.149772,-0.953096,-0.26614509807005415
0.106441,-0.109923,0.948644,0.276878,0.007278,0.011848,0.002393,-0.00059,-0.003345,-0.000274,-0.262819,0.149613,-0.953175,-0.26594353791467407
0.106326,-0.109811,0.948668,0.276885,0.003294,0.010229,-0.002114,-0.000783,-0.001785,0.002414,-0.262546,0.149469,-0.953273,-0.2656600133648193
0.106253,-0.109757,0.948666,0.276943,-0.002896,0.006255,-0.004726,-0.0007,-0.000724,0.003308,-0.26239,0.149393,-0.953327,-0.2654982393671401
0.106185,-0.109753,0.948657,0.277,-0.005399,0.001936,-0.006511,-0.000377,6.8e-05,0.002634,-0.262269,0.14941,-0.953358,-0.26537322763397403
0.106138,-0.109789,0.948635,0.277078,-0.005976,0.002061,-0.006612,0.000721,0.000901,0.000945,-0.262212,0.149483,-0.953362,-0.26531439591892053
0.106078,-0.109823,0.948612,0.277167,-0.006167,0.005993,-0.00609,0.00063,0.001489,0.000805,-0.262132,0.149556,-0.953373,-0.26523115836431566
0.105984,-0.109853,0.948602,0.277227,-0.005376,0.008305,-0.003485,0.000822,0.002466,0.000741,-0.261982,0.14965,-0.953399,-0.2650750566253597
0.105872,-0.109899,0.948605,0.277239,-0.010435,0.015086,0.007879,0.001085,0.003252,0.000346,-0.261797,0.149797,-0.953427,-0.26488470372854495
0.105657,-0.109986,0.948643,0.277156,-0.009602,0.017169,0.012181,0.001116,0.00208,0.000978,-0.261428,0.150108,-0.953479,-0.26450146842051847
0.105508,-0.110038,0.948669,0.277104,-0.004821,0.010403,0.006189,0.001561,0.001002,0.000987,-0.261168,0.150307,-0.95352,-0.26423228764984225
0.105392,-0.110057,0.948681,0.2771,-0.001733,0.0117,0.000316,0.001706,0.000132,0.000622,-0.260961,0.150409,-0.95356,-0.26401690622056606
0.105289,-0.110055,0.94868,0.277142,0.002163,0.008331,-0.004837,0.001175,0.000714,0.002581,-0.260774,0.150454,-0.953604,-0.2638226784100069
0.105243,-0.109996,0.948676,0.277198,0.004001,0.003615,-0.007045,0.001281,0.001653,0.002746,-0.260664,0.150356,-0.95365,-0.2637102876490618
0.105253,-0.109919,0.948662,0.277272,0.005383,0.001264,-0.004938,0.001329,0.002085,0.002822,-0.260654,0.150185,-0.953679,-0.26369952142631176
0.105296,-0.109844,0.948655,0.277311,0.006308,-0.001494,-0.002325,0.000969,0.002412,0.002033,-0.260701,0.150009,-0.953694,-0.2637482955666034
0.105332,-0.109807,0.948659,0.277296,0.002343,0.001859,0.007087,0.001476,0.002734,0.001386,-0.260746,0.149923,-0.953695,-0.2637952501555194
0.10532,-0.10981,0.948689,0.277197,0.000721,-0.003796,0.009498,0.000146,0.000233,0.001743,-0.26071,0.149962,-0.953699,-0.2637574142783447
0.105373,-0.109774,0.948716,0.277101,0.007494,-0.011255,0.003614,0.000358,-0.001579,0.002447,-0.260775,0.149891,-0.953693,-0.2638249674345184
0.105468,-0.10969,0.948729,0.277053,0.0118,-0.004737,-0.00014,-2.3e-05,-0.001845,-5e-06,-0.2609,0.149691,-0.95369,-0.2639553975903594
0.105535,-0.109578,0.948736,0.277048,0.013114,-0.000759,-0.002762,-0.000187,-0.001177,0.00037,-0.260966,0.149444,-0.95371,-0.2640231979408865
0.10557,-0.109473,0.94874,0.277061,0.006941,-0.000678,-0.001081,-0.000699,-0.000329,0.000828,-0.260978,0.149225,-0.953741,-0.26403554822229774
0.105609,-0.109447,0.948737,0.277066,-0.001073,-0.003683,-0.0025,-0.00067,-0.000829,0.00112,-0.261038,0.149151,-0.953736,-0.26409776006448255
0.105658,-0.109478,0.948718,0.277101,-0.001862,-0.003596,-0.003546,0.000199,-0.000542,0.000591,-0.261152,0.149173,-0.953702,-0.2642156521587724
0.105696,-0.109503,0.948693,0.277162,-0.001509,-0.002192,-0.005515,-0.000443,-0.001268,0.001388,-0.261246,0.14918,-0.953675,-0.2643130660756132
0.105706,-0.109504,0.948671,0.277235,0.000662,-0.00223,-0.006061,-0.000555,-0.001254,0.001374,-0.261276,0.149156,-0.95367,-0.2643450413443048
0.105726,-0.109479,0.948654,0.277292,0.000884,-0.000392,-0.004974,-0.000249,-0.000563,0.000617,-0.26131,0.149081,-0.953673,-0.26437919901527557
0.105696,-0.109449,0.948644,0.277352,-0.000365,0.005705,-0.006499,0.000267,-0.001181,-0.000391,-0.261248,0.149027,-0.953698,-0.2643144117232485
0.105628,-0.10942,0.948627,0.277445,-0.001831,0.007944,-0.009616,0.000446,-0.00104,0.000287,-0.261119,0.148986,-0.95374,-0.26418145547350574
0.105538,-0.109445,0.948607,0.277539,-0.0102,0.009901,-0.004507,0.001654,-0.001353,9e-06,-0.260979,0.149059,-0.953767,-0.2640358813012807
0.105399,-0.109536,0.948586,0.277629,-0.01403,0.010814,-0.008435,0.001098,-0.001936,0.002063,-0.26078,0.149284,-0.953786,-0.26383087114177534
0.105282,-0.109632,0.948544,0.277777,-0.010073,0.003687,-0.01748,0.001895,-0.001332,0.001934,-0.260635,0.149492,-0.953793,-0.26368061806293736
0.105246,-0.109699,0.948485,0.277968,-0.005726,-0.000358,-0.017964,0.001095,0.000939,0.002376,-0.260634,0.149586,-0.953779,-0.26367897418634306
0.105283,-0.109729,0.948425,0.278146,-0.001817,-0.00525,-0.015388,0.000739,0.00195,0.002573,-0.260747,0.149572,-0.95375,-0.26379632752267107
0.105379,-0.109733,0.948376,0.278275,0.001511,-0.006341,-0.007818,0.000495,0.003645,0.002196,-0.26095,0.149488,-0.953708,-0.2640058893505215
0.105449,-0.109725,0.948365,0.278288,0.000906,-0.006949,0.000689,0.000887,0.00342,0.000593,-0.261079,0.149428,-0.953682,-0.26413936966122137
0.105524,-0.109745,0.94837,0.278237,0.001192,-0.007408,0.007677,0.000519,0.002279,0.001024,-0.261221,0.149436,-0.953642,-0.264287766833894
0.105595,-0.109796,0.94841,0.278052,-0.001217,-0.00619,0.01373,0.000586,0.001376,0.001202,-0.261352,0.149541,-0.953589,-0.2644233485910119
0.105665,-0.109847,0.948451,0.277867,-0.003626,-0.004971,0.019784,0.000653,0.000472,0.00138,-0.261483,0.149647,-0.953537,-0.2645571616667404
0.105704,-0.109903,0.948494,0.27768,-0.001542,-0.009558,0.014554,-7.6e-05,-0.00049,0.00137,-0.261555,0.149782,-0.953496,-0.2646328840231778
0.105817,-0.109939,0.948514,0.277555,0.001128,-0.010522,0.010899,-0.000397,-0.000912,0.001365,-0.261766,0.149818,-0.953432,-0.26485160479420433
0.105918,-0.109966,0.948529,0.277456,0.001869,-0.009978,0.00682,-0.000291,-0.000361,0.001364,-0.261954,0.149837,-0.953378,-0.265046393862056
0.106023,-0.109976,0.948538,0.27738,0.00183,-0.01044,0.005801,-0.000127,-0.000157,0.000596,-0.262144,0.149815,-0.953329,-0.26524320374087196
0.106129,-0.109978,0.948545,0.277315,0.001274,-0.008819,0.005182,9e-06,0.00032,0.000645,-0.262333,0.149776,-0.953283,-0.26543946036717436
0.106244,-0.11,0.948538,0.277288,0.001268,-0.008189,0.003371,-0.000696,-3.9e-05,0.000577,-0.262556,0.149759,-0.953224,-0.26567049875059234
0.10631,-0.110008,0.948543,0.277242,0.000338,-0.008425,9e-05,-0.000819,0.000156,0.000162,-0.262677,0.149747,-0.953193,-0.26579547123978914
0.106409,-0.110004,0.948526,0.277263,0.001211,-0.007812,-0.001696,-0.001144,0.00057,0.000238,-0.262864,0.149676,-0.953153,-0.2659888631723548
0.106508,-0.11,0.948509,0.277284,0.002084,-0.007199,-0.003481,-0.001468,0.000985,0.000314,-0.26305,0.149606,-0.953112,-0.2661822579689968
0.10658,-0.109964,0.948498,0.277308,0.005952,-0.00727,-0.004497,-0.000687,0.000855,0.0013,-0.263169,0.149491,-0.953097,-0.2663061785619099
0.106672,-0.109923,0.948482,0.277346,0.007077,-0.005459,-0.005111,-0.000817,0.000542,0.00047,-0.263327,0.149349,-0.953076,-0.26646863366642315
0.106737,-0.109865,0.948465,0.277401,0.005603,-0.003195,-0.004951,-0.000719,-0.000476,0.000979,-0.263426,0.149189,-0.953074,-0.2665718650503959
0.106782,-0.109814,0.948451,0.27745,0.003555,-0.002583,-0.004282,-0.000428,-0.000165,0.001199,-0.263491,0.149054,-0.953077,-0.2666390784729153
0.106809,-0.109779,0.948442,0.277484,0.002415,-0.003899,-0.005558,0.000156,-0.000601,0.000991,-0.263529,0.148962,-0.953081,-0.2666777837030092
0.106858,-0.109754,0.948421,0.277548,0.000378,-0.005614,-0.006285,-0.000119,-0.000612,0.000813,-0.263618,0.148869,-0.953071,-0.26676966629969584
0.106933,-0.109768,0.948392,0.277612,-0.000101,-0.003973,-0.004244,0.000628,-0.001325,0.001307,-0.263774,0.148834,-0.953033,-0.26693334213950237
0.106973,-0.10976,0.948377,0.277652,-0.000305,-0.003273,-0.003373,0.000267,-0.000563,0.000555,-0.263852,0.148785,-0.953019,-0.2670131713629126
0.107015,-0.109779,0.948365,0.277668,-0.001267,-0.0052,-0.002221,-0.000445,-0.001312,0.001412,-0.263943,0.148791,-0.952993,-0.267107680652912
0.107054,-0.109803,0.948349,0.277699,-0.001062,-0.00538,-0.004089,-0.00022,-0.001806,0.001865,-0.264033,0.148806,-0.952966,-0.2672016984386608
0.107091,-0.109829,0.948331,0.277736,-0.001238,-0.007049,-0.006458,0.000128,-0.001258,0.002059,-0.264122,0.148824,-0.952938,-0.26729386030460156
0.10719,-0.109831,0.9483,0.277803,-0.000564,-0.006317,-0.009036,0.00033,-0.001465,0.000957,-0.264319,0.14875,-0.952895,-0.26749806950546934
0.107262,-0.109839,0.948259,0.277913,0.000244,-0.00526,-0.011727,0.000209,-0.000927,0.000605,-0.264475,0.148692,-0.952861,-0.2676602085640102
0.107334,-0.109846,0.948218,0.278022,0.001053,-0.004202,-0.014418,8.8e-05,-0.000389,0.000254,-0.264631,0.148634,-0.952827,-0.267821541822241
0.107385,-0.109842,0.948174,0.278154,0.000642,-0.005201,-0.013966,-0.000151,-0.000524,0.000502,-0.264746,0.148559,-0.952806,-0.2679398021608313
0.107433,-0.109837,0.948135,0.27827,6.7e-05,-0.001254,-0.009986,0.001001,-0.000574,0.000391,-0.26485,0.148491,-0.952788,-0.26804904736165913
0.107445,-0.109825,0.948107,0.278366,0.002271,-0.002117,-0.006188,-7e-05,-8.1e-05,0.003342,-0.264881,0.148433,-0.952788,-0.26808134718450943
0.107504,-0.109806,0.948086,0.278422,0.002596,-0.008228,-0.005222,0.000571,0.00019,0.00188,-0.264991,0.148348,-0.952771,-0.26819447139815383
0.107609,-0.109808,0.948063,0.27846,-0.000433,-0.006322,0.001015,0.000304,0.000482,0.00118,-0.265194,0.148279,-0.952725,-0.26840563329380707
0.107673,-0.109811,0.948068,0.278416,0.000315,-0.007051,0.003175,0.000496,-0.002056,0.001068,-0.265309,0.148261,-0.952696,-0.2685243209673382
0.107725,-0.109796,0.948075,0.278376,0.003481,-0.003182,0.002661,5e-06,-0.002062,-0.000759,-0.265391,0.148214,-0.95268,-0.2686103769611677
0.10773,-0.109754,0.948081,0.278373,0.003982,0.004682,-0.002097,0.001076,-0.00121,-0.00013,-0.265378,0.148134,-0.952697,-0.2685966148889473
0.107665,-0.109696,0.948084,0.278408,0.001973,0.0061,-0.001843,0.000992,0.000173,0.001643,-0.26523,0.148052,-0.95275,-0.26844392612749685
0.107621,-0.109674,0.948077,0.278458,-0.00269,0.001962,-0.002916,0.00062,0.002141,0.003489,-0.265146,0.148023,-0.952779,-0.26835450387236764
0.107641,-0.109717,0.948061,0.278489,-0.003911,-0.000834,-0.00237,0.000713,0.00287,0.00264,-0.265211,0.148084,-0.952751,-0.26842215419590715
0.107637,-0.109744,0.948051,0.278512,-0.002299,0.000753,-0.001958,0.000685,0.002763,0.001888,-0.26522,0.148129,-0.952741,-0.2684328879841578
0.107588,-0.109754,0.948054,0.27852,-0.001369,0.003035,-0.000174,0.000188,0.002451,0.000276,-0.265136,0.148174,-0.952758,-0.2683447971112899
0.107522,-0.109757,0.94806,0.278521,-0.002752,0.007142,0.002614,-7.1e-05,0.002773,0.000831,-0.265013,0.148219,-0.952785,-0.2682183101696873
0.107448,-0.109759,0.948069,0.27852,5.5e-05,0.006831,0.001877,0.000106,0.001945,0.001148,-0.264875,0.148265,-0.952816,-0.2680757306241334
0.107429,-0.109719,0.948068,0.278545,0.00228,0.005166,-0.001134,0.000571,0.001594,0.000778,-0.264824,0.148194,-0.952841,-0.26802072938096416
0.107411,-0.109679,0.948067,0.27857,0.004504,0.0035,-0.004144,0.001036,0.001243,0.000409,-0.264772,0.148124,-0.952867,-0.2679676912084678
0.107395,-0.109613,0.948066,0.278608,0.006496,0.002461,-0.005178,0.000554,0.001324,0.000979,-0.264714,0.147999,-0.952902,-0.267906514791926
0.107381,-0.109536,0.948064,0.27865,0.009623,0.002135,-0.004409,0.000291,0.000945,0.000802,-0.264653,0.147852,-0.952942,-0.2678435906546693
0.107415,-0.109417,0.948067,0.278675,0.012298,-0.000213,-0.002097,0.000515,0.001988,0.00114,-0.264656,0.147601,-0.95298,-0.26784801334543945
0.107472,-0.109285,0.948078,0.278667,0.013833,-0.002186,0.001469,-0.000137,0.002218,0.001591,-0.264691,0.147324,-0.953013,-0.2678844375738606
0.107494,-0.109179,0.94812,0.278557,0.007246,0.002897,0.019971,0.001314,0.004364,-0.000587,-0.264659,0.147144,-0.95305,-0.26785088930145595
0.10738,-0.10915,0.948212,0.278297,0.001284,0.011288,0.029918,-0.00031,0.000703,0.002633,-0.26439,0.147227,-0.953112,-0.2675716134275534
0.107337,-0.109154,0.948298,0.278019,0.006206,-0.004428,0.019965,-0.001096,-0.001589,0.003097,-0.26427,0.147338,-0.953128,-0.2674455833283203
0.107424,-0.109129,0.948344,0.27784,0.010001,-0.006037,0.014359,3.6e-05,-0.002103,-0.000733,-0.26439,0.14729,-0.953102,-0.26757199729935094
0.107463,-0.109085,0.948379,0.277721,0.006007,0.001318,0.008352,0.000327,-0.003575,-0.000105,-0.264421,0.147219,-0.953104,-0.2676042253416444
0.107465,-0.109037,0.948402,0.277663,0.006661,-0.00179,0.003228,-0.001206,-0.002731,0.001511,-0.264391,0.147143,-0.953124,-0.26757252455128966
0.107531,-0.109015,0.948413,0.277606,4.5e-05,-0.003385,0.011179,-0.000891,-5.7e-05,0.001328,-0.264494,0.147081,-0.953106,-0.2676792330863367
0.107473,-0.109088,0.948454,0.277462,-0.005922,0.0024,0.016878,-0.000547,-0.000399,0.000936,-0.264402,0.14729,-0.953099,-0.26758374366814214
0.10746,-0.109092,0.94847,0.277409,-0.002171,0.001033,0.011835,-0.000574,-0.000631,0.001053,-0.264372,0.147319,-0.953102,-0.26755205079307454
0.107448,-0.109096,0.948487,0.277356,0.00158,-0.000335,0.006792,-0.000601,-0.000862,0.00117,-0.264343,0.147349,-0.953106,-0.2675225462112383
0.107436,-0.1091,0.948503,0.277302,0.005332,-0.001702,0.001749,-0.000629,-0.001094,0.001287,-0.264313,0.147378,-0.95311,-0.26749259110120865
0.10744,-0.109047,0.948517,0.277273,0.005494,0.000866,-0.001433,-0.000906,-0.001984,0.001331,-0.264289,0.147286,-0.953131,-0.26746654241901835
0.107433,-0.108975,0.948521,0.277289,0.004578,0.003084,-0.00203,-0.00055,-0.001151,0.000934,-0.264241,0.147151,-0.953165,-0.26741588155183643
0.107422,-0.108936,0.948511,0.277347,0.001958,0.002924,-0.005985,7.9e-05,-0.001435,0.000456,-0.264209,0.147068,-0.953187,-0.2673826942512423
0.107397,-0.108918,0.948491,0.277431,-0.003149,0.005122,-0.00912,0.000686,-0.002114,0.000784,-0.264164,0.147025,-0.953206,-0.2673376875393671
0.107348,-0.108951,0.948447,0.277586,-0.00714,0.004862,-0.015745,0.000594,-0.002717,0.002167,-0.264113,0.147072,-0.953212,-0.2672855213444647
0.107299,-0.108989,0.948391,0.277781,-0.006593,0.001383,-0.022118,0.000897,-0.001719,0.003122,-0.264072,0.147117,-0.953217,-0.26724263573042223
0.107343,-0.109025,0.948311,0.278023,-0.003819,-0.004401,-0.025683,0.001413,-0.000569,0.002651,-0.264211,0.147091,-0.953182,-0.26738680806284315
0.107436,-0.109051,0.948225,0.27827,-0.001696,-0.009669,-0.024148,0.001515,0.001251,0.001955,-0.264438,0.147017,-0.953131,-0.2676213864076891
0.10753,-0.109061,0.948155,0.278468,-0.001234,-0.008889,-0.015979,0.00133,0.003372,0.002014,-0.264651,0.146926,-0.953086,-0.26784118262224044
0.107651,-0.109075,0.948113,0.27856,-0.00122,-0.008546,-0.004226,0.001189,0.003759,0.001615,-0.264898,0.146856,-0.953028,-0.2680986492340169
0.107736,-0.109121,0.94811,0.278518,-0.00107,-0.01208,0.007404,0.000664,0.002711,0.001883,-0.265075,0.146904,-0.952971,-0.2682822051430873
0.107856,-0.109179,0.948117,0.278427,-0.000611,-0.012657,0.010993,0.000323,0.001457,0.001138,-0.265318,0.146969,-0.952894,-0.2685326669580342
0.107977,-0.109211,0.948135,0.278305,0.001954,-0.014576,0.010202,0.000761,0.00079,0.000952,-0.265542,0.146992,-0.952828,-0.2687655227451229
0.108143,-0.109227,0.948145,0.2782,0.005867,-0.015375,0.007745,0.001295,-3.9e-05,0.001402,-0.265845,0.146955,-0.952749,-0.26907972776536865
0.108281,-0.109242,0.948165,0.278073,0.00421,-0.012818,0.007935,0.000287,-0.000402,0.000952,-0.266092,0.146939,-0.952683,-0.26933556014398663
0.108414,-0.109237,0.948178,0.277978,0.005323,-0.014251,0.008393,-0.000594,8.2e-05,0.001112,-0.266323,0.146879,-0.952627,-0.26957572101510413
0.10858,-0.109233,0.94818,0.277909,0.005265,-0.013717,0.005815,-0.000151,0.000462,0.000844,-0.266621,0.146794,-0.952557,-0.2698848289292797
0.108728,-0.109227,0.948193,0.27781,0.003117,-0.010078,0.00873,8.6e-05,0.001036,0.00117,-0.266879,0.146724,-0.952496,-0.2701530749531024
0.108841,-0.109236,0.948204,0.277723,0.003843,-0.010134,0.005739,3.2e-05,0.000386,0.000436,-0.267083,0.146701,-0.952442,-0.27036338855562664
0.108919,-0.109234,0.948227,0.277615,0.003874,-0.008252,0.009764,-0.000145,0.002024,0.000923,-0.267211,0.146683,-0.952409,-0.2704964491542297
0.108938,-0.10926,0.948283,0.277405,-0.00319,0.00212,0.02554,0.000221,0.001575,0.000343,-0.267227,0.146779,-0.95239,-0.2705138628471965
0.108857,-0.109312,0.948353,0.277178,-0.00149,-4.1e-05,0.017371,-0.000937,-0.001375,0.002273,-0.267068,0.146987,-0.952402,-0.27034870076434203
0.108896,-0.109329,0.948382,0.277058,0.00412,-0.005251,0.007383,0.000401,-0.001677,0.001894,-0.26713,0.147031,-0.952378,-0.2704145663176279
0.108937,-0.109318,0.948398,0.27699,0.003684,-0.003574,0.002245,-0.000333,-0.001838,0.001126,-0.267191,0.147005,-0.952365,-0.27047713121823425
0.109021,-0.109285,0.948391,0.276996,0.00437,-0.006921,-0.004636,-0.000736,-0.001854,0.001706,-0.267332,0.146893,-0.952342,-0.2706232822596567
0.109107,-0.109253,0.948371,0.277041,0.003606,-0.006888,-0.006494,-0.000197,-0.000241,0.001057,-0.267483,0.146771,-0.952319,-0.27077984782299025
0.10918,-0.10923,0.948345,0.277112,0.000857,-0.006976,-0.008437,0.000752,-0.000827,0.001882,-0.267618,0.146665,-0.952297,-0.2709205280738067
0.109271,-0.109228,0.948303,0.277218,0.000461,-0.009065,-0.008951,0.000213,0.000181,0.001986,-0.267804,0.146579,-0.952258,-0.2711130221783809
0.109373,-0.10924,0.948263,0.277312,-0.000292,-0.007766,-0.009335,0.000295,0.001383,0.002026,-0.268017,0.146515,-0.952208,-0.27133295642666694
0.10948,-0.109257,0.948223,0.2774,-0.00042,-0.006414,-0.008602,0.001141,0.000154,0.001801,-0.268238,0.14646,-0.952154,-0.27156425343687557
0.109574,-0.109243,0.948191,0.277475,0.003921,-0.009249,-0.009287,-2e-06,-0.000739,0.00152,-0.268419,0.146358,-0.952119,-0.2717509733741945
0.109728,-0.109209,0.94816,0.277536,0.006538,-0.009694,-0.006713,0.000218,0.001059,0.001858,-0.268699,0.146188,-0.952066,-0.2720413351702936
0.109881,-0.10915,0.94814,0.277565,0.008851,-0.013116,-0.004516,0.000224,0.001264,0.001542,-0.268959,0.145981,-0.952025,-0.2723105693317039
0.110029,-0.109103,0.948136,0.277541,0.008483,-0.013021,0.005913,-0.000253,0.00337,0.000354,-0.269206,0.145813,-0.95198,-0.272568524565373
0.110085,-0.109146,0.948174,0.277371,-0.003891,-0.003296,0.021691,-0.000324,0.002684,0.000466,-0.269307,0.145909,-0.951937,-0.2726737264106383
0.110094,-0.10923,0.948225,0.277159,-0.003537,-0.007971,0.014929,-0.001365,-0.001449,0.0028,-0.269336,0.146121,-0.951896,-0.27270340453682346
0.110199,-0.109287,0.948247,0.27702,0.00129,-0.01308,0.009803,-0.000692,-0.000914,0.001431,-0.269541,0.146208,-0.951825,-0.27291647473182595
0.110296,-0.10932,0.948261,0.27692,0.001002,-0.009514,0.006505,-0.000244,-0.000323,0.000505,-0.269726,0.146242,-0.951767,-0.27310699865417565
0.110382,-0.109333,0.94826,0.276886,0.003813,-0.00922,0.002207,-0.001678,0.000414,0.002627,-0.269888,0.146225,-0.951724,-0.2732759081114184
0.110544,-0.10932,0.948251,0.276855,0.004585,-0.012826,0.00266,-0.001035,0.001238,0.001707,-0.270178,0.146117,-0.951658,-0.27357841549929035
0.110651,-0.109343,0.948259,0.276777,0.001461,-0.010126,0.006647,-0.000288,0.000881,0.001041,-0.27038,0.14612,-0.951601,-0.273786535224102
0.110773,-0.10934,0.948267,0.276701,0.006393,-0.008344,0.006195,-0.001327,-0.000707,0.001592,-0.270595,0.146065,-0.951548,-0.2740097219961401
0.110849,-0.109284,0.948295,0.276599,0.007067,0.001166,0.013645,-0.000363,0.000675,-0.002215,-0.270691,0.145946,-0.951539,-0.2741105443680624
0.110757,-0.109215,0.948355,0.276454,0.006918,0.016979,0.010987,-0.0002,-0.000216,-0.001214,-0.270461,0.145911,-0.95161,-0.2738705539913916
0.110613,-0.109093,0.948401,0.276405,0.008741,0.013285,-0.002924,-0.001153,-0.000192,0.001709,-0.270118,0.145779,-0.951727,-0.27351627157194675
0.110559,-0.108974,0.948405,0.27646,0.006752,0.009061,-0.006159,-0.000698,0.001941,0.002276,-0.269964,0.145572,-0.951803,-0.27335493774477876
0.110527,-0.108872,0.948398,0.276537,0.005617,0.004889,-0.009965,-0.000616,0.002224,0.002024,-0.269862,0.145378,-0.951861,-0.2732491339758924
0.110489,-0.108785,0.948384,0.276632,0.00758,0.006499,-0.011064,-0.001189,0.002523,0.001835,-0.269758,0.14521,-0.951916,-0.27314256134661874
0.110443,-0.108653,0.948374,0.276738,0.011389,0.008881,-0.010129,-0.00096,0.003443,0.000873,-0.26962,0.14496,-0.951993,-0.272997738698065
0.11042,-0.108482,0.948364,0.276849,0.01206,0.011827,-0.010013,-0.000278,0.003556,0.000647,-0.269503,0.144622,-0.952078,-0.2728768695200938
0.110304,-0.108303,0.948374,0.276931,0.009541,0.017596,-0.008783,5.6e-05,0.002116,0.001122,-0.269203,0.144331,-0.952207,-0.2725662238745905
0.11018,-0.10814,0.948378,0.27703,0.010431,0.012223,-0.008658,-0.000119,0.00076,0.001282,-0.2689,0.144069,-0.952332,-0.27225143304958
0.110043,-0.108025,0.948401,0.277049,0.004009,0.015534,0.000303,0.001249,0.000308,0.001091,-0.268586,0.143928,-0.952442,-0.27192501933097135
0.109882,-0.10793,0.948421,0.277082,0.00564,0.013465,-0.008946,0.000673,-0.000467,0.001828,-0.26824,0.143833,-0.952554,-0.27156531377996906
0.109792,-0.107789,0.948415,0.277194,0.010324,0.008483,-0.012137,0.000452,0.00122,0.001974,-0.268013,0.143591,-0.952655,-0.27133069731045206
0.109796,-0.107631,0.948403,0.277295,0.014411,0.004027,-0.00895,0.000961,0.003532,0.002025,-0.267953,0.143263,-0.952721,-0.27126748562702374
0.109838,-0.107473,0.948396,0.277364,0.017075,0.000156,-0.00383,0.002137,0.003481,0.002705,-0.267958,0.142923,-0.952771,-0.27127302226880357
0.109872,-0.107302,0.94841,0.277368,0.014674,-4.2e-05,0.00293,0.000616,0.003616,0.002162,-0.267932,0.142582,-0.952829,-0.2712455863245457
0.109916,-0.107188,0.948456,0.277236,0.012869,-0.003156,0.010965,-2.1e-05,0.001415,0.002114,-0.267935,0.14238,-0.952858,-0.27124769836162943
0.109961,-0.107074,0.948503,0.277103,0.011064,-0.006269,0.019001,-0.000658,-0.000785,0.002066,-0.267937,0.142178,-0.952888,-0.2712518562701153
0.110019,-0.106949,0.948569,0.276901,0.018308,-0.009896,0.011692,-0.000981,-0.003431,0.003069,-0.26795,0.141967,-0.952916,-0.27126437991269103
0.110191,-0.10672,0.948605,0.276798,0.028534,-0.007798,0.002769,-0.000445,-0.00402,0.000177,-0.268136,0.14147,-0.952937,-0.2714568598241558
0.110298,-0.106436,0.948634,0.276767,0.029251,-0.00033,-0.004658,-0.00084,-0.00156,-0.00051,-0.268181,0.140883,-0.953011,-0.27150417105896196
0.110384,-0.106177,0.948648,0.276783,0.024012,-3.5e-05,-0.004006,-0.001794,3e-06,0.001473,-0.268207,0.140344,-0.953084,-0.2715314589090593
0.110443,-0.105958,0.948665,0.276785,0.01896,-0.000798,-0.002369,-0.001015,-0.000842,0.001397,-0.268202,0.139899,-0.953151,-0.2715261529118797
0.110518,-0.105771,0.94867,0.276809,0.019303,-0.000706,-0.004412,-0.000517,-0.002682,0.001014,-0.268246,0.139498,-0.953197,-0.2715728275860221
0.110563,-0.105562,0.94867,0.27687,0.018628,0.007527,-0.009409,-0.000683,-0.00217,0.000786,-0.26823,0.139064,-0.953265,-0.2715547165664415
0.110531,-0.105355,0.948673,0.276952,0.018257,0.009215,-0.011936,-0.001099,-0.002385,0.002108,-0.268073,0.138671,-0.953366,-0.2713913353952312
0.110548,-0.105162,0.948649,0.2771,0.014884,0.007852,-0.014101,-0.000242,-0.002283,0.001238,-0.268024,0.138259,-0.95344,-0.27134065379259664
0.110512,-0.104983,0.948621,0.277279,0.010862,0.012404,-0.021239,-0.00108,-0.001879,-0.000186,-0.267887,0.137893,-0.953531,-0.2711993782529831
0.110424,-0.104821,0.948578,0.277523,0.009381,0.016909,-0.024637,-8.9e-05,-0.002171,-0.000421,-0.267672,0.137571,-0.953638,-0.27097608408487583
0.110305,-0.104673,0.948527,0.277799,0.006063,0.015281,-0.031762,-0.000328,-0.001579,-0.000133,-0.267411,0.137285,-0.953753,-0.27070481537194174
0.110211,-0.104579,0.948444,0.278155,0.000643,0.014229,-0.034638,0.001236,-0.000437,0.000643,-0.267237,0.137062,-0.953834,-0.2705238452328862
0.11011,-0.10451,0.948348,0.278549,0.000422,0.015427,-0.041177,0.001645,-0.000557,0.000414,-0.267069,0.136882,-0.953907,-0.2703487219602225
0.110014,-0.104383,0.948248,0.278974,0.006731,0.009644,-0.041921,0.001706,-7.1e-05,0.001757,-0.266881,0.136579,-0.954002,-0.2701556008480232
0.110019,-0.104208,0.94815,0.279371,0.013067,0.001347,-0.038247,0.001552,0.002153,0.003012,-0.266855,0.136138,-0.954073,-0.27012760451633133
0.11012,-0.104033,0.948059,0.279706,0.017954,-0.002197,-0.030792,0.002111,0.004655,0.0034,-0.266997,0.135657,-0.954101,-0.27027641035962463
0.110209,-0.103831,0.948011,0.279906,0.019193,-0.00625,-0.015757,0.002017,0.00602,0.001991,-0.267085,0.13517,-0.954146,-0.2703663833313293
0.110329,-0.103638,0.948009,0.279937,0.020819,-0.006905,-0.000286,0.001076,0.0037,0.001556,-0.26721,0.134728,-0.954174,-0.27049657833962487
0.110482,-0.10345,0.948039,0.279846,0.024906,-0.012368,0.007187,0.000643,0.003042,0.002375,-0.267383,0.134313,-0.954184,-0.27067573243379844
0.110701,-0.103264,0.948071,0.279719,0.024948,-0.015665,0.01326,0.000353,0.001879,0.001669,-0.267675,0.133874,-0.954164,-0.2709787724479844
0.110883,-0.103108,0.94813,0.279505,0.021947,-0.016674,0.01561,0.000746,0.00035,0.00061,-0.267902,0.133535,-0.954147,-0.27121414836758967
0.11109,-0.102965,0.948179,0.27931,0.021926,-0.017264,0.010578,0.000586,-0.003081,0.000397,-0.268185,0.133201,-0.954115,-0.27150822748577563
0.111336,-0.102822,0.9482,0.279194,0.020553,-0.014932,0.004806,-2.5e-05,-0.003408,0.000703,-0.268552,0.132823,-0.954064,-0.2718896627439563
0.111533,-0.102673,0.948212,0.279129,0.019285,-0.014969,-0.001933,-0.002058,-0.002376,0.000947,-0.268831,0.132447,-0.954038,-0.2721800621418482
0.111746,-0.102518,0.948197,0.279152,0.018448,-0.010711,-0.010135,-0.000498,-0.002277,0.000868,-0.269152,0.132026,-0.954005,-0.2725110326197703
0.1119,-0.102349,0.948166,0.279258,0.017147,-0.004984,-0.014919,-0.001519,-0.000724,-0.000448,-0.269362,0.131589,-0.954006,-0.2727316311667499
0.111926,-0.10221,0.948171,0.27928,0.009642,0.006267,0.00092,-6.7e-05,0.00018,-0.001578,-0.26934,0.131307,-0.954051,-0.2727080469459552
0.111891,-0.102048,0.948182,0.279317,0.015492,0.005226,-0.008487,8e-06,0.000391,-0.000639,-0.269195,0.131014,-0.954133,-0.27255556975209067
0.111857,-0.101887,0.948192,0.279354,0.021342,0.004185,-0.017894,8.3e-05,0.000603,0.0003,-0.269049,0.130721,-0.954214,-0.27240538937158754
0.111873,-0.101655,0.948174,0.279495,0.019321,0.008227,-0.01643,0.000335,0.001106,8.8e-05,-0.268974,0.130237,-0.954302,-0.27232789381835637
0.111862,-0.101392,0.948157,0.27965,0.026019,0.008005,-0.017813,0.000502,0.002774,0.002459,-0.268834,0.129707,-0.954413,-0.27218228459959243
0.11187,-0.101094,0.94814,0.279813,0.027182,0.007151,-0.01529,0.000306,0.001777,0.001678,-0.268712,0.129097,-0.95453,-0.27205526283040604
0.111919,-0.100819,0.948124,0.279948,0.023346,0.004127,-0.013066,0.0001,0.00154,0.00243,-0.268674,0.128516,-0.954619,-0.27201649756328256
0.111968,-0.100568,0.948112,0.280059,0.01963,0.004142,-0.01288,0.000929,0.001699,0.002267,-0.268647,0.127984,-0.954698,-0.27198745077750314
0.112038,-0.100367,0.948099,0.280145,0.01702,0.000479,-0.010873,0.0007,0.000852,0.0032,-0.268681,0.127542,-0.954748,-0.2720232697951358
0.112102,-0.100197,0.948091,0.280209,0.015026,-0.004327,-0.010312,0.001444,0.000344,0.002593,-0.268719,0.127168,-0.954787,-0.27206182671764845
0.112264,-0.100047,0.948065,0.280284,0.014524,-0.009895,-0.009935,0.000649,0.001587,0.0022,-0.268951,0.12677,-0.954775,-0.27230299300303684
0.112401,-0.099908,0.94805,0.280331,0.014936,-0.012691,-0.00665,0.000427,0.001934,0.00209,-0.269138,0.126417,-0.954769,-0.27249805556426365
0.112608,-0.099817,0.948028,0.280355,0.012126,-0.010391,-0.000263,0.000118,0.000534,0.000577,-0.269479,0.126119,-0.954712,-0.27285245829631205
0.112739,-0.099735,0.94803,0.280324,0.013474,-0.007298,0.002722,3.2e-05,0.000147,0.000158,-0.269677,0.125897,-0.954685,-0.27305669180650544
0.112838,-0.099656,0.948076,0.280157,0.008614,-0.003667,0.021918,9e-06,4e-05,4.3e-05,-0.269797,0.125738,-0.954673,-0.27318184546687224
0.112848,-0.09961,0.94815,0.279918,0.007006,-0.003629,0.018011,-0.000356,-0.002522,0.001611,-0.269759,0.125714,-0.954687,-0.2731426678634198
0.112914,-0.099534,0.948182,0.27981,0.008005,-0.002804,0.011639,-0.000325,-0.002955,0.001283,-0.269828,0.125564,-0.954687,-0.2732136348548746
0.112981,-0.099459,0.948214,0.279702,0.009004,-0.001979,0.005267,-0.000294,-0.003387,0.000954,-0.269898,0.125415,-0.954686,-0.27328719661094514
0.113053,-0.099385,0.94822,0.279678,0.011366,-0.003511,-0.003213,-0.000439,-0.003454,0.001864,-0.26999,0.12524,-0.954683,-0.2733824664823996
0.113138,-0.099294,0.948215,0.279695,0.008448,-0.001667,-0.007172,-0.000521,-0.002387,-6e-06,-0.270103,0.125015,-0.954681,-0.2734993496154074
0.113136,-0.099218,0.948208,0.279747,0.006185,0.000387,-0.005449,-0.001088,-0.002458,0.002001,-0.270065,0.124859,-0.954712,-0.2734603277075852
0.113228,-0.099147,0.948184,0.279814,0.005308,-0.005408,-0.006778,-0.001645,-0.00395,0.002029,-0.270208,0.124654,-0.954698,-0.27360843081502967
0.113318,-0.099105,0.948158,0.279881,0.002009,-0.001618,-0.005801,-0.000754,-0.002002,0.00053,-0.270362,0.124504,-0.954674,-0.27376896199124745
0.113321,-0.099049,0.948153,0.279916,0.000187,-0.00246,-0.00353,-0.001068,-0.001849,0.002657,-0.270343,0.124387,-0.954695,-0.273748336422865
0.113381,-0.099035,0.948144,0.279928,-0.000371,-0.005892,0.000319,-0.000756,-0.001399,0.001697,-0.270449,0.124322,-0.954673,-0.27385872516303644
0.113445,-0.099049,0.948138,0.279917,0.001829,-0.003246,0.003579,-0.001083,-0.002767,0.00094,-0.270573,0.124315,-0.954639,-0.27398925160074245
0.11351,-0.099022,0.948146,0.279872,0.007439,-0.002077,0.00309,-0.001818,-0.005068,0.000742,-0.270675,0.124238,-0.95462,-0.2740942149118822
0.113512,-0.098928,0.948171,0.27982,0.011344,0.007163,0.006025,-0.000688,-0.005012,-0.001224,-0.270622,0.124076,-0.954656,-0.2740387069968971
0.113407,-0.098789,0.948215,0.279764,0.009943,0.017939,0.000762,-0.000385,-0.003917,0.000312,-0.270343,0.123891,-0.954759,-0.27374995323427603
0.11328,-0.098662,0.948238,0.279782,0.005944,0.01535,0.001226,-0.000652,-0.001349,0.002629,-0.27004,0.123722,-0.954867,-0.27343509871854044
0.113128,-0.098629,0.94826,0.279781,-0.005572,0.011652,0.00198,-0.000805,-0.001218,0.002701,-0.269739,0.123749,-0.954949,-0.2731215123419695
0.113018,-0.098686,0.948265,0.279789,-0.011004,0.00611,-0.001144,-0.000443,-0.00077,0.001183,-0.269564,0.123919,-0.954976,-0.27294080558568656
0.112913,-0.098759,0.948258,0.27983,-0.011385,0.006598,-0.003973,-9.6e-05,0.000898,0.002347,-0.269413,0.124105,-0.954995,-0.27278320596099676
0.112793,-0.098847,0.948244,0.279893,-0.01016,0.010671,-0.004669,-0.001073,0.001669,0.000343,-0.269244,0.124322,-0.955014,-0.2726076848595868
0.112681,-0.09892,0.948224,0.279979,-0.00937,0.012613,-0.005869,-0.001472,0.001911,0.00088,-0.269085,0.124501,-0.955036,-0.27244255536093365
0.112495,-0.098951,0.948221,0.280055,-0.00866,0.016219,-0.003062,-0.001167,0.002388,-0.000536,-0.268764,0.124645,-0.955107,-0.2721092622409937
0.112268,-0.099006,0.948231,0.280093,-0.009874,0.017559,-0.002615,-0.000557,0.002325,0.000272,-0.268373,0.124871,-0.955187,-0.27170447406433923
0.112054,-0.099032,0.948234,0.280157,-0.011475,0.021644,-0.006086,0.001067,0.002369,0.001223,-0.267996,0.125026,-0.955273,-0.271312173492486
0.111831,-0.099069,0.948241,0.28021,-0.008547,0.019288,0.004412,0.000761,0.002612,0.001332,-0.267606,0.12521,-0.955358,-0.27090727032223094
0.111506,-0.099135,0.948297,0.280128,-0.011284,0.028746,0.018703,0.001458,0.001859,-8.4e-05,-0.267022,0.125548,-0.955477,-0.2703021097783999
0.111281,-0.09912,0.948333,0.280102,-0.00441,0.021301,0.008821,0.001023,0.002248,0.001137,-0.26659,0.125658,-0.955584,-0.26985357079747374
0.111056,-0.099105,0.948368,0.280076,0.002465,0.013857,-0.001061,0.000588,0.002638,0.002358,-0.266157,0.125769,-0.95569,-0.26940482504058655
0.110893,-0.099083,0.948388,0.280082,-0.001514,0.01621,-0.000141,0.00056,0.002147,0.001073,-0.265841,0.12582,-0.955771,-0.2690771534416664
0.110716,-0.099087,0.948405,0.280093,-0.006922,0.01377,0.001687,0.001095,0.001851,0.001943,-0.265514,0.125928,-0.955847,-0.2687373988276298
0.110569,-0.099127,0.948415,0.280104,-0.009043,0.002269,0.004678,-0.000321,5e-05,0.003072,-0.265261,0.126085,-0.955897,-0.26847599380468656
0.110494,-0.099182,0.948423,0.280085,-0.002528,0.001791,0.006332,0.000296,-0.001237,0.000818,-0.26515,0.126237,-0.955908,-0.26835832861354253
0.11038,-0.09923,0.948481,0.279916,-0.00409,0.017336,0.017372,0.003342,-0.003061,-0.000798,-0.264938,0.126441,-0.95594,-0.2681404484831084
0.110163,-0.099264,0.948531,0.27982,-0.004267,0.018557,0.004821,0.000206,-0.003332,0.002582,-0.264538,0.126658,-0.956022,-0.2677249756585641
0.110008,-0.099259,0.948562,0.279778,-0.004684,0.008771,0.003531,0.001305,-0.001164,0.001877,-0.26424,0.126752,-0.956092,-0.2674156070554041
0.109904,-0.099334,0.948576,0.279745,-0.016585,0.007119,0.006852,0.001001,-0.000495,0.000536,-0.26408,0.126962,-0.956108,-0.2672509451328278
0.10977,-0.099524,0.948579,0.279721,-0.017319,0.004989,0.002509,0.00214,-0.003591,0.001132,-0.263928,0.127403,-0.956091,-0.2670933189647809
0.109636,-0.099663,0.94858,0.279721,-0.016797,0.006569,0.001556,0.000929,-0.001507,0.000901,-0.263753,0.127741,-0.956094,-0.2669106073417402
0.109532,-0.099762,0.948579,0.279729,-0.012055,0.005372,-5.7e-05,0.00059,-0.000459,0.002454,-0.263613,0.127985,-0.9561,-0.26676490822984417
0.109513,-0.099893,0.948559,0.279756,-0.010964,0.000518,-0.000168,0.000591,-0.000826,0.001184,-0.263651,0.128235,-0.956056,-0.26680456794892166
