timestamp,quat_x,quat_y,quat_z,quat_w,rot_x,rot_y,rot_z,acc_x,acc_y,acc_z,grav_x,grav_y,grav_z,pitch_rad
1760636558.203929,0.141073,0.23984,-0.0,0.960508,0.011835,0.005962,-0.020835,-0.728642,0.244263,-0.117518,0.460737,-0.271003,-0.84515,-0.47882547754393706
1760636558.245452,0.096385,0.101105,0.008987,0.990155,0.008797,0.00274,-0.018541,-0.466569,0.166182,-0.001742,0.198486,-0.19269,-0.960975,-0.199813037280001
1760636558.245592,0.049558,-0.039876,0.017775,0.997817,0.005758,-0.000481,-0.016246,-0.186921,0.071205,0.029142,-0.081339,-0.097481,-0.991908,0.08142895593666379
1760636558.291982,0.017099,-0.135356,0.023402,0.990373,0.001902,0.000834,-0.009542,0.001561,0.000937,-0.001206,-0.268906,-0.027533,-0.962773,0.27225696493606005
1760636558.293186,0.016763,-0.135272,0.023245,0.990394,0.001748,0.009966,-0.020075,0.002138,-0.002045,-0.001639,-0.268724,-0.026914,-0.962841,0.2720680949149475
1760636558.293485,0.016426,-0.135188,0.023088,0.990415,0.001593,0.019099,-0.030607,0.002715,-0.005027,-0.002072,-0.268542,-0.026296,-0.962909,0.27187911005741283
1760636558.323252,0.016363,-0.135056,0.022886,0.990438,0.006228,0.018973,-0.036595,0.002183,-0.00409,-0.000478,-0.268278,-0.026232,-0.962984,0.2716051426476361
1760636558.357529,0.016508,-0.134656,0.022362,0.990502,-0.002525,0.020778,-0.034337,0.003383,0.000377,-0.000756,-0.267493,-0.026681,-0.96319,0.2707903670004125
1760636558.357897,0.016689,-0.134498,0.022084,0.990527,-0.0117,0.018611,-0.028616,0.003315,0.00092,0.000711,-0.267185,-0.027121,-0.963264,0.2704705181960721
1760636558.388351,0.016845,-0.134327,0.021859,0.990553,-0.015244,0.016565,-0.025632,0.003541,0.001721,0.000951,-0.266853,-0.0275,-0.963345,0.2701260849929671
1760636558.44337,0.017035,-0.134006,0.021377,0.990603,-0.016141,0.009612,-0.020875,0.003407,0.003281,0.004448,-0.266223,-0.028021,-0.963504,0.2694725139852919
1760636558.443623,0.016861,-0.133887,0.02124,0.990626,-0.017235,0.00666,-0.015594,0.003016,0.004518,0.002206,-0.265979,-0.027718,-0.96358,0.2692194272325627
1760636558.444031,0.016686,-0.133767,0.021103,0.990648,-0.018329,0.003707,-0.010313,0.002625,0.005755,-3.6e-05,-0.265735,-0.027414,-0.963656,0.26896632232606504
1760636558.472531,0.016492,-0.133657,0.021035,0.990667,-0.022555,0.002743,-0.003946,0.002291,0.005824,0.003049,-0.265513,-0.027054,-0.963728,0.26873588129566206
1760636558.472793,0.016299,-0.133548,0.020966,0.990687,-0.026782,0.001779,0.002421,0.001957,0.005893,0.006133,-0.265291,-0.026694,-0.963799,0.2685056697142039
1760636558.506131,0.015747,-0.133592,0.020935,0.99069,-0.032486,-0.01252,0.001203,-0.000229,0.001515,0.001288,-0.265355,-0.025607,-0.963811,0.26857201552304133
1760636558.548108,0.015233,-0.133711,0.020823,0.990684,-0.01596,-0.023438,-0.007652,-0.001986,-0.00141,0.003263,-0.265566,-0.024613,-0.963779,0.26879080925173765
1760636558.54845,0.015141,-0.13381,0.020766,0.990674,-0.009049,-0.023543,-0.011507,-0.001307,-0.000905,0.003342,-0.265754,-0.024441,-0.963731,0.2689859638055009
1760636558.578655,0.015143,-0.13409,0.020543,0.99064,0.014818,-0.027767,-0.018508,-0.003038,0.00115,0.002194,-0.266293,-0.024494,-0.963581,0.2695450745449676
1760636558.578926,0.015308,-0.134255,0.020463,0.990617,0.017988,-0.020603,-0.014426,-0.000753,0.00296,0.000972,-0.266617,-0.024835,-0.963483,0.2698811399297778
1760636558.65409,0.015477,-0.134363,0.020414,0.990601,0.016282,-0.014716,-0.012936,-0.000755,0.002658,-0.000333,-0.266833,-0.025178,-0.963414,0.2701053388338628
1760636558.654438,0.015647,-0.134472,0.020366,0.990585,0.014577,-0.00883,-0.011445,-0.000758,0.002356,-0.001637,-0.267048,-0.025522,-0.963345,0.27032853417915986
1760636558.654941,0.015816,-0.13458,0.020318,0.990568,0.012871,-0.002943,-0.009955,-0.000761,0.002054,-0.002942,-0.267264,-0.025865,-0.963276,0.2705526673266936
1760636558.655283,0.015985,-0.134688,0.020269,0.990552,0.011166,0.002943,-0.008465,-0.000763,0.001752,-0.004247,-0.26748,-0.026209,-0.963207,0.27077676017849256
1760636558.677734,0.015836,-0.134703,0.020195,0.990554,-0.006897,0.002804,-0.007819,-0.001002,-7e-06,0.002595,-0.267501,-0.025932,-0.963209,0.27079846489982
1760636558.711132,0.015724,-0.134741,0.020102,0.990552,-0.013136,0.000224,-0.010959,-0.00091,-0.000232,0.00017,-0.267568,-0.025733,-0.963195,0.27086819410143925
1760636558.741137,0.015394,-0.134776,0.019816,0.990558,-0.02385,0.002153,-0.014961,0.001447,0.000248,-0.001889,-0.267617,-0.025157,-0.963197,0.27091894254333143
1760636558.79022,0.015234,-0.13473,0.019632,0.990571,-0.02215,0.003803,-0.015492,0.00192,0.000827,-0.000425,-0.267518,-0.024892,-0.963231,0.27081629945051616
1760636558.79061,0.015074,-0.134684,0.019449,0.990583,-0.02045,0.005453,-0.016024,0.002394,0.001406,0.001039,-0.267419,-0.024626,-0.963266,0.2707133761791052
1760636558.790876,0.014914,-0.134639,0.019265,0.990595,-0.01875,0.007103,-0.016555,0.002867,0.001985,0.002503,-0.267319,-0.024361,-0.9633,0.2706097301618732
1760636558.82296,0.014617,-0.134509,0.018946,0.990624,-0.018467,0.001665,-0.009599,0.001271,0.006098,0.004495,-0.267049,-0.023864,-0.963388,0.27032936380476585
1760636558.823289,0.014517,-0.134508,0.018922,0.990625,-0.016815,-0.001557,-0.003214,0.001967,0.005429,-0.000908,-0.267044,-0.023671,-0.963394,0.27032421473622037
1760636558.851448,0.014384,-0.134478,0.018906,0.990632,-0.02039,0.003945,-0.001585,0.003343,0.004481,-0.004725,-0.266979,-0.023414,-0.963418,0.27025684471956496
1760636558.851845,0.014252,-0.134447,0.018891,0.990638,-0.023965,0.009448,4.4e-05,0.004718,0.003533,-0.008542,-0.266915,-0.023157,-0.963442,0.2701904200193729
1760636558.901395,0.013869,-0.134332,0.018838,0.99066,-0.015415,0.001931,-0.00114,0.002771,0.003093,0.00237,-0.266677,-0.022418,-0.963525,0.26994357073229613
1760636558.901682,0.013676,-0.134353,0.018829,0.99066,-0.011254,-0.004114,0.001717,0.002317,0.005903,0.00216,-0.266711,-0.022037,-0.963525,0.26997868271226777
1760636558.932363,0.013551,-0.134365,0.018859,0.99066,-0.009812,-0.007861,0.00736,0.002095,0.005916,0.001444,-0.266731,-0.02178,-0.963525,0.26999951639888076
1760636558.932666,0.013425,-0.134377,0.018889,0.990659,-0.00837,-0.011609,0.013003,0.001874,0.005929,0.000728,-0.26675,-0.021523,-0.963525,0.27001936806037224
1760636558.960987,0.013177,-0.134381,0.01911,0.990658,-0.012397,-0.001149,0.013542,0.005046,0.001729,0.002036,-0.266755,-0.020971,-0.963536,0.27002449951448626
1760636559.000801,0.012882,-0.134434,0.019297,0.990651,-0.01166,-0.011461,0.012523,0.001693,0.001354,0.004965,-0.266852,-0.020335,-0.963523,0.2701250873737728
1760636559.001162,0.012751,-0.134509,0.01936,0.990641,-0.009641,-0.017504,0.011414,0.001284,-0.000299,0.004124,-0.266994,-0.020056,-0.963489,0.2702725693418787
1760636559.014705,0.012604,-0.134755,0.019418,0.990608,-0.009425,-0.025977,0.002816,0.000384,0.001131,0.001772,-0.267468,-0.019738,-0.963365,0.2707642153868597
1760636559.045791,0.012527,-0.134901,0.019437,0.990589,-0.011088,-0.027119,0.004148,0.000658,0.001156,-0.000846,-0.26775,-0.019574,-0.96329,0.2710568918591043
1760636559.087771,0.012309,-0.135242,0.01947,0.990545,-0.014069,-0.019322,-0.002494,0.000208,0.000764,-0.000605,-0.268407,-0.019119,-0.963116,0.2717389292704336
1760636559.088285,0.012255,-0.1353,0.019436,0.990538,-0.010752,-0.015235,-0.001476,-0.000608,0.001777,-6.8e-05,-0.268517,-0.01902,-0.963087,0.27185320121190587
1760636559.122481,0.012156,-0.135458,0.019389,0.990519,-0.003786,-0.015209,-0.005735,-0.001493,0.001898,0.000705,-0.268818,-0.018829,-0.963007,0.27216563179223013
1760636559.122813,0.012149,-0.135527,0.019356,0.99051,0.001074,-0.009081,-0.007776,-0.000648,0.00119,-0.002025,-0.268952,-0.018821,-0.96297,0.2723046857395799
1760636559.156209,0.012228,-0.135549,0.019253,0.990508,0.010891,-0.000908,-0.010048,-0.00062,0.000936,-0.00065,-0.268995,-0.019004,-0.962954,0.27234943729318783
1760636559.15652,0.012306,-0.135553,0.01921,0.990507,0.016082,-0.003643,-0.012017,-0.000765,0.000983,0.000293,-0.269004,-0.01917,-0.962948,0.27235883430996355
1760636559.186031,0.012417,-0.135596,0.019143,0.990501,0.017757,-0.003515,-0.009777,-0.00204,0.002658,0.000551,-0.269092,-0.019407,-0.962919,0.27245011329460866
1760636559.220668,0.0127,-0.135638,0.019059,0.990494,0.015302,-0.006887,-0.003984,-0.001091,0.004561,0.003802,-0.269181,-0.019988,-0.962882,0.2725425872808778
1760636559.220988,0.012782,-0.135677,0.019051,0.990487,0.015627,-0.008765,-0.002142,-0.000802,0.003581,0.003895,-0.269261,-0.02015,-0.962857,0.2726254537610792
1760636559.249886,0.012857,-0.135762,0.01907,0.990475,0.014662,-0.008115,0.000247,-0.000555,0.001413,0.002237,-0.269427,-0.02029,-0.962807,0.27279799154042816
1760636559.281219,0.013038,-0.135941,0.019112,0.990447,0.020118,-0.006716,0.003424,-0.000323,-0.000621,0.000681,-0.269784,-0.02063,-0.9627,0.273168665794392
1760636559.285913,0.013208,-0.136004,0.019137,0.990435,0.016355,-0.002114,-0.000594,0.000596,-0.001762,7.6e-05,-0.269913,-0.020958,-0.962657,0.2733025696085766
1760636559.316237,0.013304,-0.136024,0.019126,0.990432,0.01263,0.001526,-0.004887,0.000367,-0.003575,0.000177,-0.269954,-0.021151,-0.962641,0.273345226372526
1760636559.316547,0.013401,-0.136043,0.019115,0.990428,0.008906,0.005166,-0.009179,0.000139,-0.005388,0.000279,-0.269995,-0.021345,-0.962625,0.2733878666965234
1760636559.349811,0.013473,-0.136,0.019036,0.990434,0.007167,0.006069,-0.014311,0.000513,-0.003877,0.001355,-0.269911,-0.021511,-0.962645,0.2733005903360714
1760636559.378791,0.013627,-0.135935,0.018752,0.990446,0.003069,1e-06,-0.018027,-0.000226,-0.004202,0.005615,-0.269785,-0.021896,-0.962672,0.2731696388711508
1760636559.379282,0.013667,-0.135939,0.018601,0.990448,0.001673,-0.006593,-0.022763,0.001225,-0.003169,0.003361,-0.269789,-0.022016,-0.962668,0.2731738312325236
1760636559.409595,0.01375,-0.135986,0.018453,0.990443,0.003701,-0.009421,-0.021079,0.000419,-0.001842,0.001965,-0.269881,-0.022219,-0.962637,0.27326952312749103
1760636559.431013,0.013975,-0.136134,0.018195,0.990425,0.010481,-0.009312,-0.00632,-0.001219,0.00113,0.003254,-0.270169,-0.022729,-0.962545,0.2735684460390986
1760636559.460251,0.01415,-0.136223,0.018215,0.99041,0.014881,-0.00901,-0.001677,-0.001095,0.000795,0.001867,-0.270349,-0.023066,-0.962486,0.27375552251053625
1760636559.460581,0.014324,-0.136313,0.018234,0.990394,0.01928,-0.008708,0.002965,-0.000971,0.000459,0.000481,-0.270529,-0.023402,-0.962427,0.27394257354891177
1760636559.496486,0.014632,-0.13639,0.018362,0.990377,0.02155,-0.001977,0.009003,-0.001808,-0.001508,0.001536,-0.270692,-0.023973,-0.962368,0.2741116509968039
1760636559.496872,0.014732,-0.13642,0.018451,0.99037,0.012701,-0.003073,0.007699,-0.001292,-0.001171,-0.000834,-0.270755,-0.024145,-0.962345,0.2741773593381035
1760636559.526075,0.014747,-0.136478,0.018515,0.99036,0.004774,-0.00274,0.00488,-0.001573,-0.001819,-0.000452,-0.270871,-0.024155,-0.962312,0.27429789078064015
1760636559.568146,0.014678,-0.13654,0.018581,0.990352,-0.011779,-0.001769,0.000233,-0.000352,-0.005227,-0.001529,-0.27099,-0.023999,-0.962283,0.2744213517640185
1760636559.568456,0.014617,-0.136569,0.018551,0.990349,-0.014428,-0.000165,-0.005047,-0.00064,-0.006559,0.000547,-0.271045,-0.023886,-0.96227,0.2744785772479021
1760636559.609249,0.014438,-0.136598,0.01834,0.990352,-0.012883,0.005785,-0.023251,7e-06,-0.009465,-0.000226,-0.27109,-0.023587,-0.962265,0.274525246046862
1760636559.61139,0.014438,-0.136497,0.017997,0.990372,-0.012218,0.007697,-0.029375,-9.8e-05,-0.004823,0.000548,-0.270885,-0.023686,-0.96232,0.2743123579533048
1760636559.611726,0.014439,-0.136396,0.017654,0.990392,-0.011553,0.00961,-0.035498,-0.000204,-0.000182,0.001322,-0.27068,-0.023784,-0.962375,0.2740994737556329
1760636559.685236,0.014364,-0.136254,0.017341,0.990418,-0.013515,0.014585,-0.03726,0.000153,-0.001209,0.002004,-0.270394,-0.023726,-0.962457,0.2738023485907636
1760636559.685558,0.014288,-0.136112,0.017028,0.990444,-0.015478,0.01956,-0.039021,0.000509,-0.002237,0.002687,-0.270109,-0.023668,-0.962539,0.2735061853709358
1760636559.685929,0.014213,-0.13597,0.016715,0.99047,-0.017441,0.024536,-0.040783,0.000865,-0.003265,0.003369,-0.269823,-0.023611,-0.96262,0.27320932169805723
1760636559.708991,0.013973,-0.13573,0.015944,0.990519,-0.021754,0.003866,-0.040655,0.000352,0.002267,0.003498,-0.269332,-0.023353,-0.962764,0.27269938736754734
1760636559.739032,0.013815,-0.13572,0.015648,0.990527,-0.028706,0.001009,-0.033795,0.001529,0.004185,0.002408,-0.269301,-0.023121,-0.962778,0.2726672710044709
1760636559.739353,0.013657,-0.13571,0.015352,0.990536,-0.035658,-0.001848,-0.026936,0.002705,0.006104,0.001318,-0.26927,-0.022888,-0.962793,0.27263487674603426
1760636559.767678,0.013439,-0.135673,0.015146,0.990547,-0.038982,0.001186,-0.021264,0.002805,0.006217,0.001431,-0.269188,-0.022515,-0.962825,0.2725496587418657
1760636559.799871,0.01284,-0.135646,0.014779,0.990564,-0.037679,0.005177,-0.007324,0.000947,0.004776,0.003286,-0.269112,-0.021428,-0.96287,0.27247102909244914
1760636559.800116,0.01262,-0.135637,0.01471,0.990569,-0.031261,0.002128,-0.005317,0.000508,0.004923,0.002342,-0.269087,-0.021011,-0.962887,0.2724448500341996
1760636559.829876,0.01241,-0.135662,0.014652,0.990569,-0.027513,-0.001545,-0.005057,0.000211,0.005392,0.001005,-0.269128,-0.02061,-0.962884,0.27248747639580345
1760636559.831219,0.011962,-0.135723,0.014566,0.990568,-0.026768,-0.00547,-0.001191,-0.000526,0.007381,-0.000398,-0.269234,-0.019745,-0.962872,0.2725976715873956
1760636559.862536,0.011757,-0.135762,0.014546,0.990565,-0.025251,-0.001521,-0.001935,0.000253,0.005802,-0.000669,-0.269305,-0.019343,-0.962861,0.2726712072504336
1760636559.90259,0.011351,-0.135776,0.014476,0.990569,-0.018914,0.004861,-0.004964,-0.00062,0.002499,0.000584,-0.269319,-0.018557,-0.962872,0.2726858933466257
1760636559.902878,0.011264,-0.135753,0.014446,0.990573,-0.013827,0.003164,-0.005587,-0.001533,0.00319,0.000782,-0.269271,-0.018394,-0.962889,0.27263593149540055
1760636559.934644,0.011088,-0.1357,0.014313,0.990584,-0.000948,-0.00075,-0.008157,0.00033,0.002213,-0.001418,-0.269162,-0.018083,-0.962925,0.27252285134171655
1760636559.934974,0.011072,-0.135656,0.014244,0.990592,0.003134,0.009617,-0.011803,0.002055,0.002128,-0.003496,-0.269075,-0.018071,-0.96295,0.2724323948715665
1760636559.965582,0.011112,-0.135566,0.014164,0.990605,0.006918,0.013047,-0.013424,0.002056,0.001358,-0.000566,-0.268899,-0.018174,-0.962997,0.2722497201380456
1760636559.996168,0.011297,-0.135374,0.013954,0.990632,0.015213,0.010313,-0.019038,0.001476,0.001944,0.0063,-0.268526,-0.018605,-0.963093,0.2718624361790098
1760636559.996477,0.011409,-0.135323,0.01382,0.990639,0.014813,0.005295,-0.017859,0.000948,0.004181,0.005117,-0.268428,-0.018864,-0.963115,0.27176077641176477
1760636560.026266,0.011485,-0.135335,0.013714,0.990638,0.008165,-0.003877,-0.015921,0.001544,0.003909,0.003112,-0.268452,-0.019044,-0.963105,0.2717856286662181
1760636560.063174,0.011534,-0.135419,0.013499,0.990629,-0.001501,-0.008102,-0.008102,0.000322,0.001347,0.001264,-0.268612,-0.019195,-0.963057,0.2719518341596626
1760636560.063549,0.011528,-0.135461,0.013459,0.990624,-0.002395,-0.006991,-0.007514,0.00095,0.001138,0.000589,-0.268691,-0.019194,-0.963035,0.272033844444601
1760636560.101961,0.011492,-0.135512,0.013354,0.990619,-0.00059,-0.004756,-0.005864,0.000555,0.00076,-0.00086,-0.268789,-0.019149,-0.963009,0.27213546584639275
1760636560.102288,0.011476,-0.135524,0.013317,0.990618,0.000587,-0.001985,-0.00734,0.001402,0.001268,-0.001514,-0.268811,-0.019128,-0.963003,0.2721583807980387
1760636560.134075,0.011437,-0.135498,0.013192,0.990624,0.000129,0.005313,-0.008639,0.001509,0.001801,-0.000213,-0.268757,-0.019084,-0.963019,0.2721023028659949
1760636560.13436,0.01142,-0.135451,0.01312,0.990631,-0.00439,0.004753,-0.009305,0.000791,0.002555,0.001131,-0.268664,-0.019071,-0.963045,0.27200580739468855
1760636560.164026,0.011387,-0.135424,0.013041,0.990636,-0.005478,-0.001201,-0.010012,0.001001,0.001668,0.001364,-0.268609,-0.01903,-0.963061,0.2719487495809609
1760636560.19757,0.01133,-0.135434,0.012795,0.990639,-0.002638,-0.005668,-0.013874,0.000423,0.001792,0.002074,-0.268621,-0.018982,-0.963059,0.27196110008322727
1760636560.197901,0.011321,-0.135502,0.012728,0.990631,-0.000196,-0.009174,-0.012462,0.000717,0.000798,0.002169,-0.268754,-0.018981,-0.963022,0.2720991541102943
1760636560.235799,0.011365,-0.135548,0.012658,0.990625,0.005351,-0.008867,-0.013961,0.000997,0.000889,0.001282,-0.268843,-0.019086,-0.962995,0.27219157699732455
1760636560.236098,0.011409,-0.135594,0.012589,0.990619,0.010897,-0.008561,-0.01546,0.001277,0.00098,0.000395,-0.268932,-0.01919,-0.962968,0.2722840021480912
1760636560.292798,0.011643,-0.135757,0.012357,0.990597,0.016646,-0.012495,-0.014701,0.000144,0.000927,0.002315,-0.269249,-0.019711,-0.962869,0.2726131127533788
1760636560.293146,0.011771,-0.135846,0.012292,0.990584,0.016052,-0.011757,-0.01431,0.000356,4.7e-05,0.001613,-0.269423,-0.019981,-0.962815,0.27279372522226425
1760636560.293384,0.011899,-0.135935,0.012226,0.990571,0.015458,-0.01102,-0.013919,0.000569,-0.000833,0.000911,-0.269598,-0.02025,-0.96276,0.27297555521313654
1760636560.323715,0.012132,-0.136179,0.011868,0.990539,0.008795,-0.02099,-0.024578,-0.000682,0.000538,0.001568,-0.270068,-0.020802,-0.962617,0.2734635237369983
1760636560.363727,0.012267,-0.136464,0.011515,0.990502,0.004365,-0.020564,-0.018695,4.8e-05,0.000292,0.000289,-0.270618,-0.021159,-0.962454,0.27403499617219207
1760636560.364281,0.012303,-0.136562,0.011427,0.990489,0.002872,-0.02082,-0.016746,0.000225,0.001359,0.001346,-0.270808,-0.021251,-0.962399,0.2742322385899688
1760636560.39807,0.012409,-0.136911,0.01126,0.990442,0.004944,-0.024416,-0.005474,-0.00172,0.00082,-0.000541,-0.271483,-0.021498,-0.962203,0.27493359615427754
1760636560.398375,0.012453,-0.137061,0.011231,0.990421,0.007035,-0.012775,-0.002345,-0.001329,0.001572,-0.001365,-0.271775,-0.021588,-0.962119,0.27523688140720964
1760636560.430723,0.012494,-0.13713,0.011257,0.99041,0.007105,-0.014853,0.003945,-0.001378,0.001387,0.001601,-0.271911,-0.021662,-0.962079,0.2753781787485856
1760636560.431199,0.012536,-0.137199,0.011283,0.9904,0.007175,-0.016931,0.010236,-0.001428,0.001202,0.004567,-0.272046,-0.021735,-0.962039,0.2755185183384609
1760636560.466395,0.012538,-0.137334,0.011515,0.990378,-0.000893,-0.001882,0.010671,-0.000588,-0.002834,-0.004384,-0.272314,-0.021671,-0.961964,0.275797201575309
1760636560.494188,0.012496,-0.137247,0.01152,0.990391,-0.001915,0.010417,-0.013365,-0.001859,-0.00389,0.003293,-0.272144,-0.02159,-0.962014,0.27562050966891993
1760636560.494487,0.012474,-0.137222,0.011383,0.990396,-0.000906,0.001795,-0.018756,-0.001007,-0.001583,0.002811,-0.272092,-0.021583,-0.962029,0.2755664339226856
1760636560.526759,0.012475,-0.137258,0.011261,0.990393,-0.000763,-0.002267,-0.019114,-0.00082,0.001012,0.003431,-0.27216,-0.021619,-0.962009,0.27563708895755595
1760636560.554888,0.012482,-0.137317,0.010932,0.990388,-0.007604,-0.005444,-0.013469,-0.001754,0.003497,-0.000444,-0.272266,-0.021721,-0.961977,0.27574716938976374
1760636560.55519,0.012459,-0.137328,0.010845,0.990388,-0.006247,-0.001752,-0.00546,-0.001101,0.00328,-0.000333,-0.272286,-0.0217,-0.961972,0.27576790381216376
1760636560.584798,0.012438,-0.137367,0.010803,0.990383,-0.004434,-0.001823,-0.000895,-0.001668,0.003468,0.000382,-0.272362,-0.021669,-0.961951,0.27584693902207136
1760636560.617107,0.012403,-0.137434,0.010822,0.990374,0.003669,-0.002079,0.002259,-0.002,0.00265,0.00026,-0.272491,-0.021593,-0.961916,0.2759810577723596
1760636560.617406,0.01242,-0.137449,0.010877,0.990371,0.006743,-0.000286,0.003545,-0.001101,0.001409,0.00046,-0.27252,-0.021611,-0.961907,0.276011302053965
1760636560.649605,0.012449,-0.137444,0.010912,0.990371,0.00532,-0.003058,0.002903,-0.001083,0.00012,0.00232,-0.272513,-0.021658,-0.961908,0.27600400654489815
1760636560.680826,0.012467,-0.137565,0.010943,0.990354,0.00058,-0.011838,-0.002118,0.0,0.0,0.0,-0.272749,-0.021683,-0.961841,0.2762491746976757
1760636560.68206,0.012496,-0.137677,0.01085,0.990339,0.001978,-0.006043,-0.006486,0.00014,0.000846,0.000838,-0.272965,-0.021763,-0.961778,0.2764736711757175
1760636560.730355,0.012529,-0.137724,0.010793,0.990333,0.003402,-0.005697,-0.00764,-0.000649,0.000813,0.001359,-0.273056,-0.021843,-0.96175,0.2765683615070199
1760636560.730687,0.012562,-0.137772,0.010736,0.990326,0.004827,-0.005351,-0.008794,-0.001439,0.00078,0.001881,-0.273147,-0.021923,-0.961722,0.2766630500568365
1760636560.730903,0.012595,-0.137819,0.010678,0.99032,0.006252,-0.005005,-0.009948,-0.002228,0.000747,0.002403,-0.273238,-0.022003,-0.961695,0.27675746365480774
1760636560.76432,0.012779,-0.13783,0.010541,0.990317,0.006837,0.00144,-0.010061,6.3e-05,0.001922,-0.002726,-0.273261,-0.022405,-0.961679,0.2767814236518144
1760636560.792379,0.012846,-0.137733,0.010376,0.990332,0.002558,0.008287,-0.008793,7.6e-05,0.000701,0.000931,-0.27307,-0.022585,-0.961729,0.2765828836012337
1760636560.792665,0.012861,-0.137703,0.010312,0.990336,0.002016,0.004294,-0.004671,-7.4e-05,0.00075,0.001907,-0.27301,-0.022633,-0.961745,0.27652048799362355
1760636560.823818,0.012859,-0.137723,0.010286,0.990334,0.002576,-0.001347,-0.003971,-0.000999,0.000207,0.002693,-0.273048,-0.022637,-0.961734,0.2765600210044568
1760636560.853727,0.012945,-0.137825,0.010205,0.990319,0.008556,-0.008666,-0.008912,-4.5e-05,-0.001755,0.001779,-0.273246,-0.022825,-0.961673,0.27676593545692174
1760636560.854067,0.01303,-0.13789,0.010137,0.99031,0.013184,-0.010214,-0.006247,-8e-06,-0.0003,0.000304,-0.273372,-0.023011,-0.961633,0.27689685629485983
1760636560.889023,0.013131,-0.13792,0.010122,0.990304,0.013746,-0.006693,-0.005426,-0.000168,-0.000464,0.000496,-0.273432,-0.023216,-0.961611,0.2769592366372149
1760636560.922113,0.013409,-0.138039,0.010107,0.990284,0.020537,-0.006852,0.000697,-0.001028,-0.000384,-0.000838,-0.273668,-0.023767,-0.961531,0.27720443131649436
1760636560.923335,0.013593,-0.137987,0.010176,0.990289,0.012717,0.001672,0.006388,-0.000962,1.7e-05,-0.000441,-0.27357,-0.024113,-0.96155,0.2771026176848172
1760636560.952918,0.013658,-0.137938,0.010255,0.990294,0.009217,0.004117,0.007492,-0.000403,-0.000695,0.00045,-0.273479,-0.024223,-0.961573,0.2770080429129052
1760636560.953228,0.013724,-0.13789,0.010334,0.990298,0.005718,0.006563,0.008595,0.000157,-0.001406,0.001341,-0.273388,-0.024332,-0.961596,0.2769134716347006
1760636560.982272,0.013768,-0.137832,0.010416,0.990305,0.004031,0.005531,0.013611,-0.000119,-7.3e-05,0.002577,-0.273277,-0.024397,-0.961626,0.2767980512022661
1760636561.014974,0.013778,-0.137764,0.010723,0.990311,-0.002298,0.001706,0.01685,-0.001138,0.001356,-0.000942,-0.273155,-0.024336,-0.961662,0.27667128250326556
1760636561.015257,0.013742,-0.13776,0.010862,0.990311,-0.003926,0.00038,0.023814,-0.003195,0.002973,-0.001338,-0.273149,-0.024225,-0.961667,0.2766649106383099
1760636561.046524,0.013655,-0.137804,0.011041,0.990304,-0.010249,-0.006374,0.028066,-0.003902,0.003359,-0.002214,-0.273237,-0.024002,-0.961647,0.2767565523282453
1760636561.07702,0.01333,-0.137993,0.0115,0.990277,-0.022979,-0.017474,0.029182,-0.005445,0.001757,0.000644,-0.273609,-0.023226,-0.961561,0.27714309292744244
1760636561.077367,0.013145,-0.138146,0.011674,0.990256,-0.021033,-0.020978,0.02691,-0.0034,0.000596,0.002389,-0.273906,-0.022809,-0.961486,0.27745200498383465
1760636561.112063,0.01284,-0.138494,0.011901,0.990208,-0.009445,-0.02273,0.007265,-0.002462,-0.001842,0.005801,-0.274581,-0.022133,-0.961309,0.2781539855458305
1760636561.112374,0.012798,-0.138628,0.011913,0.99019,-0.000749,-0.018392,-0.000548,-0.0018,-0.001033,0.007847,-0.274842,-0.022042,-0.961237,0.2784252922678463
1760636561.142901,0.012982,-0.139041,0.011751,0.990132,0.018163,-0.016761,-0.014816,-0.002396,6.4e-05,0.005288,-0.275642,-0.02244,-0.960998,0.2792576232427141
1760636561.173813,0.013182,-0.139221,0.011587,0.990106,0.018083,-0.012872,-0.018127,-0.00372,0.001083,0.00278,-0.275993,-0.022878,-0.960887,0.2796227674658458
1760636561.204577,0.013395,-0.139329,0.011396,0.99009,0.015295,-0.005376,-0.018486,-0.004393,0.001433,-2.8e-05,-0.276202,-0.023349,-0.960816,0.27984011355778293
1760636561.206653,0.013595,-0.13938,0.011202,0.990082,0.015189,-0.005098,-0.023954,-0.003812,0.001265,-0.000498,-0.276299,-0.023797,-0.960777,0.27994107387078015
1760636561.237598,0.013771,-0.139441,0.010995,0.990074,0.009911,0.000172,-0.022842,-0.002241,0.000747,-0.00035,-0.276416,-0.024202,-0.960733,0.2800628782627465
1760636561.241008,0.013853,-0.139459,0.010779,0.990072,0.004305,0.003924,-0.020103,-0.001188,0.000396,-0.000196,-0.276448,-0.024424,-0.960719,0.2800959476050614
1760636561.269949,0.013862,-0.139442,0.010566,0.990077,-0.004489,0.004935,-0.022948,-0.001318,-0.000718,-0.000165,-0.27641,-0.024501,-0.960728,0.280056399469658
1760636561.302511,0.013802,-0.139351,0.010304,0.990093,-0.00909,0.011877,-0.023181,-0.000177,0.000403,0.000511,-0.276226,-0.024458,-0.960782,0.2798649496878646
1760636561.303454,0.01373,-0.139251,0.010074,0.990111,-0.009532,0.006145,-0.020562,-0.000446,0.000795,0.003915,-0.276023,-0.024383,-0.960842,0.279653806100499
1760636561.347941,0.013672,-0.139155,0.009834,0.990127,-0.003497,0.007607,-0.021463,3.4e-05,-0.001631,0.00145,-0.275831,-0.024338,-0.960898,0.2794541275867068
1760636561.352387,0.013712,-0.139036,0.009571,0.990146,0.001887,0.018186,-0.026002,0.002392,-0.004617,-0.002497,-0.275594,-0.024493,-0.960962,0.2792075882827294
1760636561.381577,0.013813,-0.138825,0.009274,0.990177,0.012652,0.026417,-0.032465,0.001574,-0.003613,-0.002434,-0.275179,-0.02478,-0.961073,0.2787760513564735
1760636561.38252,0.013965,-0.138541,0.008911,0.990218,0.011733,0.031403,-0.038877,0.000783,-0.00145,0.000199,-0.274619,-0.025187,-0.961223,0.27819349799922843
1760636561.412723,0.014088,-0.138257,0.008539,0.990259,0.001232,0.02994,-0.033693,0.003345,0.002762,0.00207,-0.274061,-0.02554,-0.961373,0.2776132158889007
1760636561.431213,0.014091,-0.137987,0.008159,0.9903,-0.009975,0.02566,-0.03616,0.001826,0.001899,0.001076,-0.273527,-0.025656,-0.961522,0.277057994689697
1760636561.465051,0.013977,-0.137709,0.007785,0.990343,-0.020736,0.026526,-0.032374,0.004095,0.000881,-0.000946,-0.272975,-0.025541,-0.961682,0.2764841337918075
1760636561.466193,0.013826,-0.137387,0.007415,0.990393,-0.02356,0.029312,-0.031903,0.002256,-0.000329,7.4e-05,-0.272338,-0.025348,-0.961868,0.2758219641919426
1760636561.497403,0.013626,-0.137108,0.007063,0.990437,-0.025516,0.025577,-0.031819,0.002745,-0.000246,0.000949,-0.271786,-0.025055,-0.962032,0.2752482707921695
1760636561.501822,0.013377,-0.13689,0.00673,0.990473,-0.024822,0.020958,-0.025746,0.002184,0.00058,0.001542,-0.271351,-0.024656,-0.962165,0.27479631050989733
1760636561.53042,0.013176,-0.136679,0.006425,0.990507,-0.02049,0.013939,-0.021382,0.002002,0.001351,0.003322,-0.270932,-0.024346,-0.962291,0.2743609934250197
1760636561.570097,0.013001,-0.136554,0.00618,0.990528,-0.016977,0.006973,-0.01759,0.001704,0.000985,0.004207,-0.270681,-0.024069,-0.962368,0.2741004132415344
1760636561.570958,0.012885,-0.136548,0.006011,0.990531,-0.013019,-0.003761,-0.01477,0.001244,0.001057,0.002005,-0.270665,-0.023884,-0.962377,0.27408382236187334
1760636561.581004,0.012778,-0.136564,0.005856,0.990531,-0.010397,-0.00156,-0.007279,0.001127,0.003473,0.001482,-0.270692,-0.023715,-0.962374,0.2741117571532117
1760636561.611256,0.012657,-0.136619,0.005777,0.990526,-0.011271,-0.007915,-0.001202,0.000574,0.002883,0.00251,-0.270795,-0.023495,-0.96235,0.2742188667046565
1760636561.644177,0.01255,-0.136728,0.005753,0.990512,-0.007088,-0.011689,-0.000482,0.000322,-0.000771,0.001691,-0.271006,-0.023289,-0.962296,0.27443795729187814
1760636561.644945,0.012469,-0.136823,0.005752,0.9905,-0.00381,-0.003576,0.00191,0.000575,-0.000303,-0.003088,-0.271191,-0.023126,-0.962248,0.27463010366205715
1760636561.681355,0.012399,-0.136813,0.005757,0.990503,-0.005199,0.000903,-0.000445,-9e-05,-0.001193,-0.001661,-0.27117,-0.022987,-0.962257,0.2746083535705154
1760636561.682217,0.012349,-0.136791,0.005747,0.990506,-0.005627,0.00053,-0.001984,0.000268,0.001513,0.001417,-0.271127,-0.022891,-0.962271,0.2745637897975801
1760636561.717012,0.012279,-0.136828,0.005734,0.990502,-0.008577,-0.005845,0.002281,0.00025,0.002604,0.003643,-0.271198,-0.022755,-0.962255,0.2746373414899389
1760636561.719499,0.012125,-0.136908,0.005727,0.990493,-0.018056,-0.011209,0.006499,-0.000436,0.002411,0.002184,-0.271351,-0.022451,-0.962218,0.27479657533080076
1760636561.793954,0.011899,-0.137013,0.00577,0.990481,-0.018605,-0.006995,0.003914,-0.000335,0.00144,0.001286,-0.271555,-0.02199,-0.962172,0.27500828816441636
1760636561.794315,0.011673,-0.137118,0.005813,0.990469,-0.019155,-0.002781,0.001328,-0.000234,0.000469,0.000388,-0.271758,-0.021529,-0.962125,0.2752192502399822
1760636561.794582,0.011447,-0.137223,0.005855,0.990457,-0.019704,0.001433,-0.001257,-0.000133,-0.000502,-0.00051,-0.271961,-0.021068,-0.962078,0.2754301525968369
1760636561.799742,0.011291,-0.137212,0.005799,0.99046,-0.015472,0.001903,-0.00688,-0.000117,-0.000659,-0.000655,-0.271936,-0.020776,-0.962091,0.2754042867722431
1760636561.831856,0.011122,-0.1372,0.005667,0.990465,-0.01743,0.006544,-0.014302,-1.8e-05,-0.000104,-0.000103,-0.27191,-0.020477,-0.962105,0.27537720313642
1760636561.861295,0.010953,-0.13711,0.005451,0.99048,-0.018738,0.008842,-0.016888,-0.000775,0.000241,-0.000147,-0.271728,-0.020202,-0.962162,0.2751881453885798
1760636561.8616,0.010783,-0.137007,0.005222,0.990498,-0.021067,0.006221,-0.021019,0.000266,0.002368,0.002286,-0.271522,-0.019931,-0.962226,0.274974044934862
1760636561.891259,0.010626,-0.136979,0.004958,0.990505,-0.020618,0.003078,-0.021397,-0.000349,0.002956,0.002531,-0.271461,-0.019692,-0.962248,0.2749107001669597
1760636561.920112,0.010472,-0.136967,0.004732,0.990509,-0.016339,-0.002526,-0.014612,-0.000265,0.002988,0.00141,-0.271434,-0.01945,-0.962261,0.2748825216271638
1760636561.921172,0.010361,-0.136984,0.00457,0.990509,-0.011185,-0.003642,-0.00931,0.000445,0.003377,0.003115,-0.271462,-0.019273,-0.962256,0.27491179381361697
1760636561.952158,0.010317,-0.137001,0.004441,0.990507,-0.001514,-0.004294,-0.009514,0.001218,0.001354,0.000592,-0.271492,-0.019221,-0.962249,0.2749428494273446
1760636561.984901,0.010341,-0.137046,0.004313,0.990501,0.006974,-0.003004,-0.016898,0.001382,-0.000209,0.002683,-0.271577,-0.019303,-0.962223,0.27503126871730843
1760636561.986046,0.010448,-0.137125,0.004117,0.99049,0.014413,-0.009862,-0.026256,0.000409,0.002389,0.003891,-0.271727,-0.019568,-0.962175,0.27518721093856474
1760636562.017085,0.010621,-0.137269,0.003874,0.990469,0.013983,-0.015347,-0.027607,-0.000828,0.005003,0.004385,-0.272005,-0.019976,-0.962089,0.27547583665389896
1760636562.018379,0.010758,-0.137473,0.003597,0.990441,0.007672,-0.02782,-0.024564,-0.001512,0.00617,0.003736,-0.272396,-0.020321,-0.961971,0.27588221877689906
1760636562.048391,0.01083,-0.137738,0.003395,0.990404,0.00347,-0.02721,-0.021147,-0.002099,0.003364,0.000703,-0.272907,-0.020517,-0.961822,0.2764133400295206
1760636562.077561,0.010873,-0.138042,0.003234,0.990361,0.001246,-0.027846,-0.012431,-0.001621,0.004049,-0.000893,-0.273493,-0.020643,-0.961652,0.2770227439354711
1760636562.079585,0.010901,-0.138278,0.00316,0.990328,-0.000119,-0.018759,-0.00823,-0.001241,0.002147,-0.001568,-0.27395,-0.020718,-0.961521,0.27749769851451145
1760636562.108275,0.010893,-0.138452,0.003116,0.990304,0.001513,-0.014361,-0.001476,-0.002067,0.002813,-1.9e-05,-0.274286,-0.020711,-0.961425,0.2778471789251578
1760636562.140317,0.010844,-0.138563,0.003097,0.990289,-0.004701,-0.006567,-0.001927,-0.001397,0.001379,-0.002051,-0.274502,-0.020619,-0.961365,0.27807189066624804
1760636562.141029,0.010751,-0.138607,0.003054,0.990284,-0.00897,-0.000586,-0.003983,-0.000877,0.001044,0.000195,-0.274587,-0.020447,-0.961345,0.27816012248843597
1760636562.171085,0.010611,-0.138616,0.002951,0.990285,-0.01351,-0.003563,-0.00956,-0.00081,0.001001,0.000485,-0.274602,-0.020198,-0.961346,0.2781757164341568
1760636562.204568,0.010501,-0.138675,0.00282,0.990278,-0.011291,-0.00741,-0.012106,9.5e-05,0.00133,0.001253,-0.274713,-0.020015,-0.961318,0.27829118734390246
1760636562.204851,0.010368,-0.13876,0.002625,0.990268,-0.012073,-0.008811,-0.018666,0.000394,0.001313,0.000159,-0.274874,-0.019806,-0.961276,0.2784587175161955
1760636562.237593,0.010275,-0.138831,0.002419,0.99026,-0.00793,-0.01168,-0.01748,0.00105,0.001102,0.001352,-0.275008,-0.019677,-0.961241,0.27859790244169186
1760636562.238623,0.010243,-0.138968,0.002221,0.990241,-0.003069,-0.010927,-0.019177,0.000128,0.000134,0.000165,-0.275269,-0.019669,-0.961166,0.27886950509535163
1760636562.270085,0.010266,-0.139062,0.002052,0.990228,0.002954,-0.008809,-0.014959,0.002511,0.003664,0.003299,-0.275448,-0.01976,-0.961113,0.2790556623014643
1760636562.299093,0.010314,-0.139203,0.001931,0.990208,0.002843,-0.012139,-0.005765,-0.00063,0.00395,0.001922,-0.275719,-0.019889,-0.961033,0.27933747715548213
1760636562.299857,0.010373,-0.13932,0.001894,0.990191,-0.001247,-0.008598,-0.005499,0.001962,0.001716,-0.003854,-0.275947,-0.020015,-0.960965,0.27957466309097617
1760636562.330131,0.010309,-0.139367,0.001785,0.990186,-0.007604,0.0041,-0.01194,0.002908,-0.002627,-0.005463,-0.276035,-0.019918,-0.960941,0.2796664236535619
1760636562.361377,0.010237,-0.139289,0.001623,0.990198,-0.005555,-0.00311,-0.024236,0.000633,-0.001698,0.005711,-0.27588,-0.019821,-0.960988,0.27950502845810254
1760636562.362453,0.010163,-0.139378,0.001324,0.990186,-0.007618,-0.018691,-0.030214,-0.0001,0.001159,0.004271,-0.276047,-0.019757,-0.960941,0.27967887467525
1760636562.393929,0.010077,-0.139593,0.00096,0.990157,-0.010662,-0.024665,-0.03359,-1.4e-05,0.005312,0.005193,-0.276457,-0.019688,-0.960824,0.28010562559809393
1760636562.398552,0.010034,-0.139804,0.000586,0.990128,-0.00953,-0.024508,-0.030024,0.000658,0.006197,0.002249,-0.27686,-0.019705,-0.960708,0.28052488523293717
1760636562.461608,0.01004,-0.139991,0.000383,0.990102,-0.002731,-0.019874,-0.019757,3e-06,0.005446,0.001685,-0.277218,-0.019774,-0.960603,0.28089756302519797
1760636562.461904,0.010046,-0.140178,0.000181,0.990075,0.004068,-0.01524,-0.009491,-0.000652,0.004695,0.001122,-0.277576,-0.019843,-0.960499,0.2812699620300486
1760636562.462364,0.01006,-0.140323,0.000188,0.990055,0.007615,-0.017037,0.003439,-0.002843,0.004669,0.002622,-0.277859,-0.019868,-0.960416,0.28156473174532853
1760636562.494852,0.010071,-0.140589,0.000309,0.990017,0.006643,-0.024667,0.02004,0.000318,0.002884,0.001491,-0.278376,-0.019855,-0.960267,0.28210284007224945
1760636562.498576,0.010089,-0.140837,0.000522,0.989981,0.007509,-0.024424,0.017993,-0.000898,-6.7e-05,-0.000613,-0.278862,-0.019829,-0.960126,0.2826090219608443
1760636562.532575,0.010105,-0.141078,0.000696,0.989947,0.00145,-0.018388,0.01022,3.8e-05,-0.003339,-0.001772,-0.279334,-0.01981,-0.95999,0.2831003246329575
1760636562.57123,0.010006,-0.141204,0.000668,0.98993,-0.00626,-0.011438,-0.003628,-0.001274,-0.005132,4.1e-05,-0.279578,-0.019622,-0.959923,0.28335440161438513
1760636562.571539,0.009907,-0.14133,0.00064,0.989913,-0.013971,-0.004487,-0.017477,-0.002587,-0.006924,0.001854,-0.279821,-0.019434,-0.959855,0.2836077880614657
1760636562.623218,0.009812,-0.141389,0.000315,0.989906,-0.012067,-0.004902,-0.027099,-0.001813,-0.007285,-0.000588,-0.279929,-0.019337,-0.959826,0.28372013492299697
1760636562.623551,0.009716,-0.141447,-1e-05,0.989898,-0.010163,-0.005316,-0.036722,-0.00104,-0.007646,-0.00303,-0.280036,-0.01924,-0.959797,0.2838315189688648
1760636562.625166,0.009749,-0.14144,-0.000431,0.989899,-0.000419,0.00345,-0.04293,-0.001792,-0.006075,-0.000888,-0.280014,-0.019423,-0.959799,0.2838088072730939
1760636562.655105,0.00988,-0.14139,-0.000866,0.989904,0.00712,0.001956,-0.042316,-0.000846,-0.002274,0.000549,-0.279909,-0.019806,-0.959822,0.28369937751437474
1760636562.657422,0.01004,-0.141391,-0.001257,0.989902,0.008198,0.007024,-0.034739,-0.0007,0.001364,0.001156,-0.279902,-0.020233,-0.959815,0.2836921238823539
1760636562.687667,0.010166,-0.141385,-0.001559,0.989901,-0.001669,-0.006692,-0.025928,-0.001953,0.00476,0.003434,-0.279883,-0.020567,-0.959814,0.2836721766424908
1760636562.697234,0.010114,-0.141458,-0.001792,0.989891,-0.016127,-0.008602,-0.014374,-0.000363,0.004464,0.003901,-0.28002,-0.020531,-0.959775,0.28381482986916395
1760636562.72933,0.009942,-0.141571,-0.001946,0.989876,-0.024531,-0.013052,-0.013097,-1e-05,0.001671,0.002816,-0.280237,-0.020235,-0.959717,0.28404114614892356
1760636562.763975,0.009735,-0.141755,-0.002094,0.989852,-0.020956,-0.012088,-0.012421,-0.001149,-0.000172,0.000691,-0.280593,-0.019866,-0.959621,0.28441193853708446
1760636562.764221,0.009529,-0.141863,-0.002272,0.989838,-0.013794,-0.010257,-0.015301,-0.00047,0.000114,0.002583,-0.2808,-0.019508,-0.959568,0.2846275514421428
1760636562.832565,0.009339,-0.141892,-0.002406,0.989835,-0.018835,-0.00373,-0.011937,-0.00056,0.001108,0.001197,-0.280855,-0.01917,-0.959559,0.2846847776932427
1760636562.832921,0.009149,-0.141921,-0.00254,0.989832,-0.023876,0.002796,-0.008574,-0.00065,0.002101,-0.00019,-0.280909,-0.018832,-0.95955,0.2847410107898802
1760636562.833173,0.008959,-0.141949,-0.002674,0.98983,-0.028917,0.009322,-0.005211,-0.000739,0.003095,-0.001576,-0.280963,-0.018494,-0.95954,0.28479749138765664
1760636562.837266,0.008662,-0.141886,-0.002757,0.989841,-0.034781,0.011587,-0.003313,-0.003012,0.001179,0.002022,-0.280842,-0.017931,-0.959587,0.28467116436894935
1760636562.869269,0.008316,-0.141795,-0.00285,0.989857,-0.033032,0.011026,-0.005466,-0.002507,-0.000523,0.001109,-0.280666,-0.017271,-0.95965,0.2844879567347723
1760636562.905929,0.008034,-0.141651,-0.00298,0.98988,-0.025854,0.007264,-0.008278,-0.002764,0.000152,0.004266,-0.280386,-0.016749,-0.959741,0.2841962708902278
1760636562.90779,0.007785,-0.14168,-0.003136,0.989877,-0.021117,0.00011,-0.012716,-0.002259,0.002079,0.005095,-0.280443,-0.016301,-0.959732,0.28425567009912683
1760636562.936392,0.007606,-0.141715,-0.003266,0.989873,-0.015152,-0.004951,-0.009206,-0.002554,0.00023,0.003203,-0.28051,-0.015984,-0.959718,0.2843254021687384
1760636562.93724,0.007472,-0.141814,-0.003366,0.989859,-0.010317,-0.002587,-0.007129,-0.002786,-0.001176,0.001807,-0.280702,-0.015748,-0.959666,0.28452537236482794
1760636562.967394,0.007394,-0.141819,-0.00345,0.989859,-0.009852,-0.001155,-0.005724,-0.00086,-0.001894,0.000734,-0.280711,-0.015617,-0.959665,0.28453489202022764
1760636563.02772,0.007275,-0.141751,-0.003587,0.989869,-0.013701,0.009422,-0.010225,1.8e-05,-0.003254,-0.000807,-0.280577,-0.015419,-0.959708,0.2843951095121647
1760636563.027899,0.007155,-0.141683,-0.003725,0.989879,-0.017551,0.02,-0.014726,0.000895,-0.004613,-0.002349,-0.280444,-0.015221,-0.95975,0.284256555917318
1760636563.028856,0.00698,-0.141416,-0.003897,0.989918,-0.028308,0.029584,-0.017008,0.0013,-0.005496,-0.000311,-0.279926,-0.014922,-0.959906,0.2837169158821977
1760636563.057636,0.006687,-0.141118,-0.004162,0.989962,-0.037578,0.030145,-0.023836,0.001536,-0.004211,0.001086,-0.279347,-0.014414,-0.960082,0.2831139746073237
1760636563.059606,0.006321,-0.140783,-0.004475,0.99001,-0.047993,0.030715,-0.022989,0.002645,-0.003127,0.002605,-0.278696,-0.013775,-0.960281,0.2824359268950948
1760636563.089408,0.00588,-0.140494,-0.004803,0.990052,-0.059516,0.02743,-0.023151,0.003108,-0.001822,0.002665,-0.278136,-0.012992,-0.960454,0.28185294554435464
1760636563.129655,0.005348,-0.140317,-0.00511,0.990079,-0.057807,0.018132,-0.022398,0.005124,-0.004261,0.00413,-0.277795,-0.012023,-0.960565,0.2814980395326941
1760636563.129896,0.004816,-0.14014,-0.005416,0.990105,-0.056099,0.008834,-0.021646,0.00714,-0.0067,0.005594,-0.277455,-0.011055,-0.960675,0.2811440964142732
1760636563.15905,0.004376,-0.140074,-0.005733,0.990115,-0.046131,0.006652,-0.024081,0.006743,-0.00875,0.010423,-0.277329,-0.010271,-0.96072,0.2810129728344375
1760636563.16087,0.004048,-0.140066,-0.006043,0.990115,-0.037935,-0.005969,-0.023672,0.008012,-0.010647,0.005404,-0.277314,-0.009709,-0.96073,0.2809974086600449
1760636563.195633,0.003816,-0.140063,-0.006344,0.990115,-0.032405,0.000437,-0.017723,0.00706,-0.009661,0.007114,-0.277308,-0.009333,-0.960736,0.2809910134635899
1760636563.19708,0.003615,-0.140084,-0.006508,0.990112,-0.020267,-0.007695,-0.008481,0.009838,-0.016993,0.018214,-0.277351,-0.008983,-0.960727,0.28103574783802826
1760636563.225365,0.003493,-0.140111,-0.006538,0.990108,-0.010704,-0.00101,0.010635,0.015307,-0.030387,0.026807,-0.277404,-0.008748,-0.960714,0.28109087539220207
1760636563.25505,0.003609,-0.140085,-0.006513,0.990111,0.019127,-0.002157,-0.009114,0.018626,-0.045315,0.027514,-0.277353,-0.008971,-0.960726,0.2810379778119878
1760636563.256146,0.004019,-0.14006,-0.006633,0.990113,0.037539,0.001909,-0.022072,0.018308,-0.04473,0.02536,-0.277297,-0.009817,-0.960734,0.28097966187428164
1760636563.287424,0.004478,-0.140048,-0.006848,0.990111,0.026648,-0.00589,-0.020809,0.017197,-0.033496,0.029467,-0.277265,-0.010785,-0.960733,0.2809463161856352
1760636563.316294,0.004674,-0.140085,-0.007043,0.990103,-0.018845,0.001949,-0.007246,0.020278,-0.021407,0.034943,-0.277332,-0.01123,-0.960708,0.2810162069807315
1760636563.318583,0.004358,-0.139977,-0.007014,0.99012,-0.065434,0.0087,0.021686,0.027094,-0.030215,0.05113,-0.277126,-0.010594,-0.960775,0.2808017106347762
1760636563.353617,0.003772,-0.139787,-0.00689,0.99015,-0.079474,0.023572,0.022994,0.033853,-0.047048,0.064203,-0.276769,-0.009397,-0.960891,0.2804299990103751
1760636563.383884,0.003275,-0.139699,-0.006881,0.990165,-0.054202,0.006404,0.006693,0.031898,-0.04968,0.064385,-0.276605,-0.008409,-0.960947,0.2802594404535542
1760636563.41508,0.002948,-0.139697,-0.00697,0.990165,-0.0416,-0.00362,-0.004186,0.030979,-0.03859,0.063866,-0.276606,-0.007785,-0.960952,0.28026047275710564
1760636563.41585,0.002571,-0.13983,-0.00707,0.990147,-0.05873,-0.027899,0.003926,0.026892,-0.019048,0.066217,-0.276867,-0.007068,-0.960882,0.2805321840696988
1760636563.4474,0.001812,-0.140266,-0.006967,0.990088,-0.095188,-0.062223,0.042099,0.018795,-0.005448,0.058171,-0.277726,-0.005542,-0.960644,0.28142627016319627
1760636563.477509,0.000584,-0.141112,-0.006548,0.989972,-0.139309,-0.104395,0.078087,0.009682,-0.001729,0.034862,-0.279387,-0.003005,-0.960174,0.28315559260352674
1760636563.478645,-0.001172,-0.142254,-0.005851,0.989812,-0.201231,-0.132587,0.11277,0.002741,0.002415,0.00798,-0.281624,0.000656,-0.959525,0.28548608660683544
1760636563.509275,-0.003679,-0.143639,-0.004889,0.989611,-0.281225,-0.152966,0.15312,-0.002263,0.009418,-0.014318,-0.284329,0.005877,-0.958709,0.28830639977741157
1760636563.540293,-0.007116,-0.145218,-0.003632,0.989367,-0.374686,-0.171645,0.193581,-0.007796,0.018338,-0.033879,-0.287399,0.013027,-0.957722,0.2915102623783243
1760636563.540956,-0.011586,-0.146882,-0.002116,0.989084,-0.486178,-0.175379,0.241569,-0.011967,0.026195,-0.053147,-0.290605,0.022297,-0.956583,0.29485914694592136
1760636563.57608,-0.017274,-0.148466,-0.000319,0.988767,-0.614105,-0.169197,0.286335,-0.015795,0.029562,-0.062538,-0.293607,0.034065,-0.955319,0.29799798389719984
1760636563.57738,-0.024305,-0.149984,0.001709,0.988388,-0.743372,-0.162586,0.32438,-0.016172,0.031823,-0.062323,-0.296402,0.048557,-0.953828,0.30092318444512495
1760636563.608723,-0.032603,-0.15141,0.003863,0.987926,-0.853858,-0.154831,0.346393,-0.013902,0.032106,-0.053229,-0.298911,0.065588,-0.952024,0.3035513910322938
1760636563.639021,-0.04185,-0.152731,0.006039,0.987363,-0.925233,-0.140898,0.358387,-0.010629,0.028921,-0.042886,-0.301097,0.084488,-0.949843,0.30584293333914103
1760636563.639767,-0.051525,-0.153891,0.008128,0.98671,-0.94085,-0.121218,0.343808,-0.009565,0.02047,-0.029328,-0.302855,0.104183,-0.947325,0.3076869367100407
1760636563.671303,-0.060989,-0.154862,0.010035,0.986001,-0.89567,-0.106876,0.323108,-0.009009,0.01741,-0.014518,-0.304163,0.123379,-0.944596,0.3090598182812213
1760636563.701149,-0.069823,-0.155706,0.011837,0.985262,-0.820202,-0.094555,0.304439,-0.010179,0.021217,-0.000974,-0.305169,0.141273,-0.941761,0.31011589602659767
1760636563.702322,-0.077881,-0.156476,0.013729,0.984511,-0.746817,-0.09102,0.314624,-0.010221,0.024019,0.007456,-0.305967,0.157645,-0.9389,0.3109538206524563
1760636563.733276,-0.085257,-0.157182,0.015886,0.983754,-0.677461,-0.091525,0.332024,-0.008342,0.017658,0.019763,-0.306548,0.172738,-0.93605,0.3115643511475874
1760636563.735536,-0.091918,-0.157961,0.018202,0.982989,-0.600646,-0.110569,0.327952,-0.00761,0.009008,0.028513,-0.307203,0.186458,-0.933199,0.3122524045865276
1760636563.766105,-0.097852,-0.15893,0.020541,0.982214,-0.533154,-0.126112,0.307171,-0.008298,0.00553,0.021424,-0.308187,0.198752,-0.930332,0.3132868084156809
1760636563.808053,-0.103266,-0.160075,0.022719,0.981425,-0.499356,-0.138458,0.275845,-0.010655,0.011638,0.010426,-0.309511,0.20997,-0.927424,0.3146787804739123
1760636563.808352,-0.10847,-0.161293,0.024624,0.980618,-0.501794,-0.135901,0.249364,-0.011712,0.020583,0.000467,-0.310993,0.220678,-0.924437,0.316237795990834
1760636563.879042,-0.113631,-0.162026,0.02592,0.979879,-0.499173,-0.097841,0.226002,-0.014371,0.023701,-0.005596,-0.311642,0.231088,-0.921671,0.31692062939901705
1760636563.879381,-0.118788,-0.162754,0.027216,0.979112,-0.496553,-0.059781,0.202641,-0.017078,0.026844,-0.011762,-0.312243,0.241473,-0.918801,0.3175531369121416
1760636563.879848,-0.123942,-0.163477,0.02851,0.978315,-0.493933,-0.021721,0.179279,-0.019833,0.030014,-0.018033,-0.312797,0.251831,-0.915827,0.31813639352873435
1760636563.880149,-0.128935,-0.163666,0.029423,0.977611,-0.478419,0.01532,0.152578,-0.019719,0.03143,-0.013956,-0.312416,0.261727,-0.913179,0.31773516705139304
1760636563.909337,-0.133592,-0.163483,0.030039,0.976997,-0.441641,0.039303,0.125744,-0.019312,0.031242,-0.012622,-0.31142,0.27086,-0.910853,0.31668685385098594
1760636563.939637,-0.137812,-0.162989,0.030435,0.976482,-0.391032,0.070148,0.103819,-0.020188,0.029628,-0.018248,-0.309924,0.279063,-0.908885,0.3151129345967328
1760636563.939928,-0.141479,-0.162169,0.030577,0.976089,-0.335036,0.10172,0.074009,-0.021247,0.029442,-0.019271,-0.307931,0.286109,-0.90737,0.31301756607057607
1760636563.967538,-0.144622,-0.161134,0.030484,0.975803,-0.287621,0.127497,0.055744,-0.02099,0.035918,-0.017793,-0.305652,0.292069,-0.906241,0.31062309351145617
1760636563.999328,-0.147411,-0.159897,0.030344,0.975593,-0.258473,0.14532,0.052064,-0.019295,0.036973,-0.00799,-0.303043,0.297331,-0.905406,0.30788406334165636
1760636563.999584,-0.149926,-0.158554,0.030219,0.975433,-0.226105,0.148489,0.046819,-0.016866,0.032367,0.005974,-0.300257,0.302068,-0.904766,0.304961939684224
1760636564.028766,-0.152118,-0.157215,0.03011,0.975314,-0.194836,0.141697,0.044222,-0.014268,0.026643,0.010124,-0.297507,0.306192,-0.904288,0.30208023424746794
1760636564.058709,-0.154014,-0.155947,0.030069,0.975221,-0.164556,0.134852,0.048444,-0.01246,0.024108,0.005958,-0.294903,0.309775,-0.90392,0.2993540492834085
1760636564.060028,-0.155744,-0.154727,0.030095,0.97514,-0.145857,0.134745,0.050954,-0.011029,0.024237,0.003255,-0.292387,0.313058,-0.903606,0.2967220782594754
1760636564.100878,-0.157432,-0.153533,0.030212,0.975054,-0.145264,0.135162,0.063332,-0.008296,0.023224,0.007109,-0.289894,0.316287,-0.903285,0.2941161118726116
1760636564.102881,-0.159049,-0.152369,0.030386,0.974969,-0.1315,0.123991,0.057888,-0.007424,0.020588,0.010454,-0.287444,0.319395,-0.902974,0.2915572528679943
1760636564.134481,-0.160465,-0.151256,0.030562,0.974904,-0.112035,0.122804,0.051927,-0.008995,0.018474,0.00589,-0.285112,0.322122,-0.902745,0.28912328048726715
1760636564.137124,-0.161669,-0.150139,0.030653,0.974875,-0.096581,0.124012,0.041857,-0.008928,0.017203,0.00165,-0.282823,0.324419,-0.902643,0.28673586461728007
1760636564.168285,-0.162737,-0.149019,0.030618,0.974871,-0.090126,0.121817,0.023804,-0.009743,0.020721,0.002997,-0.280582,0.326421,-0.90262,0.2844004432028265
1760636564.173467,-0.16382,-0.147988,0.030452,0.974851,-0.099848,0.111186,0.019698,-0.008734,0.027304,0.005082,-0.278555,0.328413,-0.902525,0.2822893230590883
1760636564.206745,-0.16504,-0.147003,0.030283,0.9748,-0.118267,0.108466,0.019222,-0.0078,0.026024,0.004505,-0.276602,0.330666,-0.902304,0.2802561741251072
1760636564.243269,-0.166436,-0.146036,0.030067,0.974715,-0.144353,0.109908,0.01619,-0.005632,0.021379,-0.000859,-0.274679,0.333236,-0.901945,0.2782559073427758
1760636564.24451,-0.168077,-0.14506,0.029769,0.974588,-0.163067,0.118918,0.01039,0.000353,0.015601,-0.000586,-0.272741,0.336248,-0.901416,0.2762407323109437
1760636564.275296,-0.169802,-0.143994,0.029404,0.974458,-0.153997,0.1288,0.004922,0.003463,0.008918,-0.000213,-0.270646,0.339398,-0.900866,0.2740640390609292
1760636564.275587,-0.171275,-0.142872,0.028942,0.974379,-0.116059,0.131512,-0.010239,0.005561,0.005566,0.002302,-0.268508,0.342044,-0.900505,0.27184383164753373
1760636564.31433,-0.172295,-0.141721,0.028395,0.974384,-0.077051,0.128815,-0.025812,0.006867,0.006216,0.002673,-0.266396,0.343811,-0.900459,0.26965207524857115
1760636564.316406,-0.172934,-0.140582,0.027724,0.974455,-0.04862,0.126499,-0.042677,0.011076,0.007641,0.010058,-0.264393,0.344828,-0.900661,0.2675744373122846
1760636564.353358,-0.173256,-0.139548,0.026963,0.974568,-0.016351,0.112106,-0.064125,0.01532,0.002883,0.015616,-0.262654,0.345225,-0.901017,0.26577187790116386
1760636564.3814,-0.173228,-0.138635,0.026034,0.974728,0.010236,0.108561,-0.089724,0.018088,-0.002702,0.01028,-0.261243,0.344918,-0.901545,0.2643097355170849
1760636564.382475,-0.172977,-0.137745,0.024821,0.97493,0.022654,0.107713,-0.126395,0.017012,-0.000624,0.007942,-0.259996,0.344118,-0.902211,0.26301808650142444
1760636564.412763,-0.17269,-0.136957,0.023367,0.975128,0.016391,0.093397,-0.139385,0.015639,0.00882,0.008918,-0.259031,0.343191,-0.902842,0.2620187190489426
1760636564.41346,-0.172522,-0.136301,0.021943,0.975283,-0.000506,0.078884,-0.124672,0.015854,0.017221,0.008928,-0.258293,0.342497,-0.903316,0.26125492383283183
1760636564.4436,-0.172511,-0.135728,0.020686,0.975392,-0.013768,0.067685,-0.107932,0.01342,0.018059,0.007944,-0.257639,0.342147,-0.903636,0.26057785554758317
1760636564.476063,-0.172582,-0.135203,0.019602,0.975475,-0.019706,0.059276,-0.087941,0.010671,0.019772,0.006421,-0.257009,0.342,-0.903871,0.25992590572360175
1760636564.476273,-0.172765,-0.134731,0.018786,0.975524,-0.01818,0.04766,-0.059567,0.008928,0.019154,0.005715,-0.256375,0.342135,-0.904,0.25926991442177905
1760636564.505247,-0.172994,-0.134324,0.018246,0.97555,-0.014203,0.037261,-0.035894,0.006807,0.018917,0.003298,-0.255767,0.342431,-0.90406,0.258640978751461
1760636564.540513,-0.173225,-0.133967,0.017965,0.975563,-0.011047,0.029647,-0.011787,0.005583,0.01732,0.000708,-0.255163,0.342797,-0.904092,0.25801624229014103
1760636564.540772,-0.173475,-0.13362,0.017931,0.975567,-0.008545,0.030501,0.008338,0.002106,0.015192,0.00065,-0.254489,0.343265,-0.904104,0.25731932798065615
1760636564.573986,-0.17373,-0.133287,0.018096,0.975564,-0.008619,0.017882,0.032447,0.001127,0.01282,0.004197,-0.253773,0.343794,-0.904105,0.25657884677137094
1760636564.574701,-0.173989,-0.133097,0.018512,0.975536,-0.003217,0.007898,0.049871,0.000815,0.006953,0.002293,-0.253239,0.344394,-0.904026,0.2560269024338159
1760636564.604954,-0.174161,-0.132897,0.019058,0.975522,0.005025,0.008507,0.060764,0.000775,0.003441,-0.000802,-0.25265,0.344861,-0.904012,0.2554182875424454
1760636564.637857,-0.174273,-0.132631,0.019682,0.975526,0.006694,0.02453,0.06236,0.000668,-0.002882,-0.004278,-0.251909,0.345237,-0.904076,0.25465234646699975
1760636564.638146,-0.174401,-0.132235,0.020175,0.975547,0.002283,0.042317,0.047303,-0.000571,-0.008157,-0.000219,-0.250965,0.345608,-0.904197,0.2536769618467998
1760636564.668785,-0.174555,-0.131736,0.020465,0.975581,-0.009011,0.047196,0.028493,-0.000606,-0.011536,0.003289,-0.249894,0.345977,-0.904352,0.25257082737350045
1760636564.672251,-0.174758,-0.131272,0.020607,0.975604,-0.016437,0.04144,0.017682,0.001583,-0.01421,0.006427,-0.248936,0.346399,-0.904455,0.2515814846428442
1760636564.70232,-0.174938,-0.130894,0.020606,0.975622,-0.022645,0.035006,0.001816,0.003847,-0.013858,0.006824,-0.248196,0.346741,-0.904527,0.2508175811885617
1760636564.733161,-0.17512,-0.130635,0.020433,0.975628,-0.027357,0.025556,-0.013775,0.005426,-0.011096,0.008872,-0.247746,0.347042,-0.904535,0.25035305706875344
1760636564.734451,-0.175297,-0.130522,0.020149,0.975617,-0.029859,0.00863,-0.023335,0.004646,-0.00536,0.013948,-0.247616,0.347306,-0.904469,0.2502189379777854
1760636564.766974,-0.175498,-0.130614,0.019824,0.975576,-0.033471,-0.010188,-0.028252,0.003297,0.000366,0.014784,-0.24789,0.347601,-0.904281,0.2505016631430668
1760636564.773939,-0.175725,-0.13087,0.019518,0.975506,-0.032749,-0.028286,-0.022713,0.002864,0.005299,0.011996,-0.24847,0.347951,-0.903987,0.251100433432401
1760636564.803971,-0.175945,-0.13122,0.019356,0.975423,-0.030431,-0.036323,-0.011445,0.00209,0.008524,0.005981,-0.249179,0.348322,-0.903649,0.2518324349168376
1760636564.833555,-0.1762,-0.131612,0.019321,0.975325,-0.022667,-0.041388,-0.001413,0.003999,0.010026,0.003616,-0.249921,0.34879,-0.903264,0.2525985588054384
1760636564.833909,-0.176421,-0.132024,0.019475,0.975226,-0.014673,-0.046794,0.017842,0.003805,0.012253,0.005017,-0.250636,0.349243,-0.90289,0.25333724270825997
1760636564.865469,-0.176594,-0.132467,0.019838,0.975128,-0.008468,-0.057347,0.035794,0.002056,0.012599,0.007356,-0.251337,0.349658,-0.902535,0.2540612935625289
1760636564.930433,-0.176797,-0.133047,0.020469,0.974999,-0.0103,-0.063139,0.041516,0.001451,0.010073,0.005741,-0.252204,0.350201,-0.902082,0.2549572687297693
1760636564.930781,-0.177001,-0.133627,0.0211,0.974869,-0.012133,-0.068932,0.047239,0.000845,0.007547,0.004126,-0.253069,0.350744,-0.901629,0.2558511916413266
1760636564.931427,-0.17746,-0.134836,0.022362,0.974591,-0.01563,-0.075398,0.050621,0.000804,0.00321,0.00234,-0.254882,0.351932,-0.900655,0.2577256187100046
1760636564.931112,-0.177204,-0.134207,0.02173,0.974738,-0.013965,-0.074724,0.052961,0.000238,0.00502,0.002509,-0.253932,0.351288,-0.901174,0.256743441896533
1760636564.962177,-0.177766,-0.135451,0.022949,0.974436,-0.021105,-0.069247,0.042302,-0.000152,0.001593,0.000952,-0.255818,0.352661,-0.900104,0.2586937855219374
1760636564.992413,-0.178097,-0.136029,0.023447,0.974283,-0.030987,-0.068086,0.038322,-0.000769,0.002966,0.002151,-0.25671,0.353414,-0.899555,0.2596164902708813
1760636564.993525,-0.178512,-0.136598,0.023883,0.974117,-0.039007,-0.061481,0.035695,-0.000148,0.002464,0.002094,-0.257597,0.354308,-0.898949,0.2605344905833978
1760636565.023915,-0.178974,-0.137082,0.024244,0.973955,-0.044884,-0.050452,0.029861,-8.7e-05,0.002722,0.000839,-0.258345,0.355273,-0.898354,0.26130852503057106
1760636565.053596,-0.179468,-0.137477,0.024565,0.973801,-0.052511,-0.043909,0.032692,0.000161,0.005206,0.000201,-0.258934,0.356287,-0.897782,0.2619184316319718
1760636565.054687,-0.180075,-0.137843,0.024898,0.973629,-0.062177,-0.034843,0.035016,-0.000486,0.005738,-0.000169,-0.259449,0.357516,-0.897145,0.26245153820284145
1760636565.087244,-0.180741,-0.138118,0.025218,0.973458,-0.067095,-0.029812,0.0351,-0.000279,0.005396,0.002521,-0.259789,0.358853,-0.896512,0.2628037526421862
1760636565.091024,-0.181444,-0.138328,0.025534,0.973289,-0.068616,-0.023729,0.038974,0.000743,0.005346,0.001875,-0.26,0.36026,-0.895886,0.2630223385354912
1760636565.131914,-0.182193,-0.138507,0.025872,0.973115,-0.073484,-0.023756,0.039374,0.001996,0.005872,0.004838,-0.260139,0.361755,-0.895243,0.2631662899378565
1760636565.133414,-0.183016,-0.138664,0.026234,0.972928,-0.081924,-0.026591,0.043453,0.002364,0.002472,0.003528,-0.260218,0.363398,-0.894555,0.2632479522977959
1760636565.183511,-0.183889,-0.13881,0.026483,0.972736,-0.08153,-0.015664,0.029276,0.003611,-0.00096,0.000432,-0.26031,0.365103,-0.893833,0.2633434022644906
1760636565.183819,-0.184762,-0.138955,0.026732,0.972543,-0.081136,-0.004737,0.015098,0.004857,-0.00439,-0.002666,-0.260401,0.366808,-0.893109,0.263437444139448
1760636565.214991,-0.185579,-0.139026,0.026771,0.972376,-0.080184,-0.008472,0.001551,0.003929,-4.5e-05,0.002198,-0.260435,0.368349,-0.892465,0.2634725680586676
1760636565.215285,-0.186366,-0.139161,0.026685,0.972209,-0.078754,-0.01208,-0.007253,0.002466,0.003847,0.004049,-0.260641,0.369801,-0.891804,0.26368597287976125
1760636565.244426,-0.187055,-0.139314,0.026527,0.972059,-0.073309,-0.016084,-0.009416,0.002198,0.006241,0.004079,-0.260918,0.371048,-0.891204,0.26397310285509906
1760636565.275373,-0.187637,-0.139443,0.026392,0.971932,-0.063332,-0.01457,-0.006959,0.002137,0.006847,0.002929,-0.261154,0.372101,-0.890696,0.26421750615001605
1760636565.275665,-0.188141,-0.139547,0.026296,0.971822,-0.049352,-0.008029,-0.002317,0.002001,0.007971,0.004761,-0.261335,0.373018,-0.890259,0.2644050765184447
1760636565.30712,-0.188592,-0.139598,0.026247,0.971729,-0.041715,-0.005749,0.003149,0.001878,0.008063,0.005162,-0.261403,0.373848,-0.889891,0.2644754780523403
1760636565.311855,-0.18905,-0.139676,0.026259,0.971628,-0.040053,-0.010042,0.004717,0.001131,0.005427,0.004164,-0.261497,0.374708,-0.889501,0.26457300800754446
1760636565.341329,-0.189497,-0.13974,0.026277,0.971531,-0.039562,-0.005984,0.004262,0.001268,0.003725,0.003434,-0.261565,0.375548,-0.889127,0.2646433820322991
1760636565.35557,-0.189927,-0.139792,0.026225,0.971441,-0.041294,-0.003584,-0.004273,0.001053,0.00392,0.003032,-0.261638,0.376339,-0.888772,0.2647187743617777
1760636565.384075,-0.190429,-0.139869,0.026099,0.971335,-0.048542,-0.005392,-0.010389,0.000786,0.004477,0.004815,-0.26178,0.377242,-0.888347,0.2648659654205539
1760636565.415362,-0.190933,-0.13996,0.025918,0.971228,-0.052209,-0.00597,-0.016313,0.000453,0.005208,0.004314,-0.261969,0.378135,-0.887911,0.2650619228583383
1760636565.41568,-0.19141,-0.140063,0.025721,0.971125,-0.048555,-0.008803,-0.012277,-0.000317,0.009495,0.005012,-0.26219,0.378971,-0.887489,0.26529098708899146
1760636565.444903,-0.191886,-0.140178,0.02559,0.971018,-0.047394,-0.009889,-0.000958,-0.001852,0.012562,0.004256,-0.262409,0.379823,-0.88706,0.26551792000164803
1760636565.484687,-0.192343,-0.140198,0.025677,0.970922,-0.042915,-0.003053,0.009549,-0.002299,0.011536,0.00286,-0.262365,0.380699,-0.886698,0.2654721827808349
1760636565.484991,-0.1928,-0.140218,0.025764,0.970826,-0.038437,0.003783,0.020055,-0.002746,0.01051,0.001462,-0.26232,0.381575,-0.886334,0.2654257183249813
1760636565.513899,-0.193217,-0.140149,0.025906,0.970749,-0.028745,0.010814,0.022253,-0.002373,0.009044,0.002628,-0.262089,0.382392,-0.88605,0.26518638846667036
1760636565.515941,-0.193568,-0.139946,0.026028,0.970706,-0.02356,0.025231,0.017915,-0.002998,0.007843,0.003028,-0.261615,0.38308,-0.885893,0.26469522244346183
1760636565.545277,-0.193862,-0.139656,0.026078,0.970687,-0.020076,0.035105,0.008793,-0.002055,0.005246,0.002675,-0.261014,0.383642,-0.885827,0.264072606261417
1760636565.549863,-0.194133,-0.139267,0.025986,0.970692,-0.017868,0.049177,-0.008428,-0.000729,0.002999,0.001914,-0.26028,0.384124,-0.885835,0.26331210955886647
1760636565.578643,-0.194329,-0.138823,0.025653,0.970725,-0.01313,0.052134,-0.029573,0.000403,0.003981,0.001994,-0.259548,0.384402,-0.885929,0.26255409957043263
1760636565.610146,-0.194456,-0.13841,0.025172,0.970771,-0.008393,0.053305,-0.040448,0.001998,0.003596,0.001017,-0.258939,0.384512,-0.886059,0.26192365200071893
1760636565.610828,-0.19454,-0.138011,0.024617,0.970825,-0.010258,0.052531,-0.046336,0.002598,0.003033,0.00021,-0.25839,0.384523,-0.886215,0.26135518644840416
1760636565.641394,-0.194636,-0.137611,0.024025,0.970877,-0.013174,0.052921,-0.049156,0.002949,0.002336,0.001956,-0.257855,0.384548,-0.88636,0.2608014127516951
1760636565.64979,-0.194742,-0.137262,0.023405,0.970921,-0.013734,0.044344,-0.049793,0.004523,0.001993,0.004951,-0.257425,0.384583,-0.88647,0.2603563412695044
1760636565.68744,-0.19481,-0.136997,0.02282,0.970958,-0.007574,0.030968,-0.049407,0.004963,0.003201,0.006505,-0.257145,0.384557,-0.886562,0.2600667144683413
1760636565.689694,-0.194807,-0.136859,0.022295,0.970991,0.001671,0.018911,-0.043788,0.003768,0.006726,0.006787,-0.257091,0.384414,-0.88664,0.26001075891916814
1760636565.718987,-0.194712,-0.136824,0.021911,0.971023,0.008862,0.005081,-0.02817,0.002207,0.011537,0.005338,-0.257186,0.384135,-0.886733,0.2601091503181468
1760636565.752364,-0.194586,-0.136851,0.021754,0.971049,0.015043,-0.005148,-0.006181,0.0008,0.014207,0.003354,-0.257311,0.383858,-0.886817,0.260238429625613
1760636565.753558,-0.194463,-0.136871,0.021881,0.971067,0.020084,-0.007642,0.020495,0.000177,0.013177,0.002224,-0.257311,0.383663,-0.886901,0.26023851939861214
1760636565.783598,-0.194316,-0.13686,0.022281,0.971089,0.029129,-0.008428,0.041605,0.000688,0.00863,1.8e-05,-0.257147,0.383495,-0.887022,0.26006862360843763
1760636565.816544,-0.194122,-0.136797,0.022843,0.971124,0.037791,-0.00266,0.054855,0.001089,0.007133,-0.001289,-0.256825,0.383283,-0.887206,0.25973564596056886
1760636565.816566,-0.193926,-0.136709,0.023452,0.971161,0.03813,0.001641,0.05389,0.002395,0.00355,0.000156,-0.256437,0.383079,-0.887407,0.25933404023233786
1760636565.845171,-0.193758,-0.136573,0.024032,0.971199,0.027853,0.004285,0.051022,0.003697,0.001397,0.002143,-0.255967,0.38292,-0.887611,0.2588478805164598
1760636565.851542,-0.193685,-0.136447,0.024523,0.971219,0.015497,0.002909,0.042074,0.003992,-0.001997,0.003043,-0.25554,0.382914,-0.887737,0.2584061002610701
1760636565.880884,-0.193672,-0.136333,0.024873,0.971229,0.006593,0.006259,0.025162,0.004589,-0.003968,0.003095,-0.255187,0.382982,-0.887809,0.2580410437519921
1760636565.911612,-0.193706,-0.136203,0.025021,0.971237,-0.000857,0.008049,0.005188,0.004817,-0.002163,0.004651,-0.254878,0.383084,-0.887854,0.2577214193984165
1760636565.911904,-0.193799,-0.136125,0.024983,0.97123,-0.012192,0.007212,-0.008271,0.004842,-0.001844,0.004874,-0.254734,0.383248,-0.887824,0.25757263265142044
1760636565.985211,-0.194028,-0.136121,0.024687,0.971192,-0.017302,0.005691,-0.015723,0.004045,-0.000128,0.004519,-0.25482,0.383598,-0.887648,0.2576616024812128
1760636565.985545,-0.194257,-0.136118,0.02439,0.971155,-0.022412,0.00417,-0.023175,0.003249,0.001587,0.004163,-0.254907,0.383947,-0.887472,0.25775160019262827
1760636565.985813,-0.194486,-0.136114,0.024093,0.971117,-0.027522,0.002649,-0.030627,0.002453,0.003303,0.003808,-0.254994,0.384297,-0.887296,0.2578414564288225
1760636565.99104,-0.194703,-0.136169,0.02375,0.971074,-0.024925,-0.003887,-0.028409,0.001834,0.007585,0.005119,-0.255211,0.38461,-0.887098,0.2580658748136597
1760636566.021024,-0.194881,-0.136292,0.023502,0.971027,-0.016874,-0.010607,-0.01783,0.001849,0.010087,0.005645,-0.255526,0.384876,-0.886892,0.258391660801152
1760636566.05007,-0.194972,-0.136391,0.023403,0.970997,-0.005905,-0.012382,-0.005721,0.001098,0.010026,0.004529,-0.255744,0.385018,-0.886768,0.2586170409324042
1760636566.051103,-0.19498,-0.136522,0.023434,0.970977,0.006598,-0.013173,0.002888,0.000662,0.00917,0.003261,-0.25598,0.385041,-0.886689,0.2588613820443321
1760636566.081328,-0.194919,-0.136626,0.023567,0.970971,0.013361,-0.009695,0.010621,0.001167,0.008605,0.002027,-0.256132,0.384962,-0.88668,0.25901848504369207
1760636566.11111,-0.194873,-0.136688,0.023767,0.970966,0.008558,-0.010225,0.016865,0.001519,0.00657,0.000805,-0.256176,0.384928,-0.886681,0.2590642503580062
1760636566.112237,-0.194877,-0.1367,0.023989,0.970959,0.005754,-0.006603,0.017312,0.00204,0.003431,0.000921,-0.256111,0.384993,-0.886672,0.2589969028696079
1760636566.143499,-0.19492,-0.13671,0.024177,0.970944,0.002522,-0.007106,0.011318,0.003171,0.002322,0.003223,-0.256051,0.385122,-0.886633,0.2589349051843022
1760636566.149611,-0.194984,-0.136766,0.024308,0.97092,-0.000278,-0.009445,0.006279,0.001546,0.000808,0.003016,-0.256098,0.385277,-0.886553,0.2589833107284355
1760636566.177863,-0.195014,-0.136838,0.024348,0.970903,-0.001383,-0.005924,-0.001883,0.001718,-5.5e-05,0.00137,-0.256217,0.385343,-0.88649,0.2591064016250079
1760636566.209228,-0.195034,-0.136909,0.024287,0.97089,-0.000585,-0.005839,-0.007387,0.00053,0.002684,0.002936,-0.256374,0.385363,-0.886436,0.25926880651988016
1760636566.209512,-0.195064,-0.136978,0.0242,0.970877,-0.002712,-0.008549,-0.00807,0.000624,0.003569,0.003644,-0.256537,0.385396,-0.886374,0.25943756249283795
1760636566.243502,-0.195112,-0.13705,0.024146,0.970858,-0.005616,-0.006249,-0.004546,0.000916,0.003832,0.002253,-0.25669,0.38547,-0.886297,0.2595959865374664
1760636566.250225,-0.195163,-0.137099,0.024128,0.970841,-0.003365,-0.004704,0.000739,0.000704,0.003595,0.002963,-0.256785,0.385561,-0.88623,0.2596942567724427
1760636566.280216,-0.195216,-0.137171,0.024166,0.97082,-0.00104,-0.006377,0.004842,0.000889,0.004307,0.00324,-0.256902,0.38567,-0.886149,0.259815237922555
1760636566.308273,-0.195254,-0.137258,0.024246,0.970798,0.00171,-0.008537,0.007651,0.00047,0.005193,0.003671,-0.257031,0.38576,-0.886072,0.259948817951413
1760636566.310357,-0.195284,-0.137354,0.024375,0.970775,0.000314,-0.012136,0.010218,0.000601,0.004542,0.003932,-0.25716,0.385849,-0.885996,0.2600822615690522
1760636566.339136,-0.195329,-0.137477,0.024513,0.970745,-0.000504,-0.015222,0.009525,0.000652,0.004291,0.004033,-0.257334,0.385969,-0.885894,0.26026213400583303
1760636566.370733,-0.195363,-0.137583,0.024632,0.97072,0.000469,-0.009648,0.007393,0.000225,0.003448,0.001451,-0.257485,0.386063,-0.885808,0.26041867385613476
1760636566.371955,-0.19541,-0.137678,0.024723,0.970695,0.00263,-0.007205,0.004241,0.000567,0.003404,0.001821,-0.257623,0.386174,-0.88572,0.2605613709136758
1760636566.402309,-0.195428,-0.137746,0.024801,0.97068,0.001475,-0.003808,0.004339,0.000828,0.003345,0.001118,-0.25772,0.386228,-0.885668,0.2606618160674973
1760636566.431498,-0.195448,-0.137775,0.024876,0.97067,0.001977,-0.000117,0.003535,0.000986,0.002854,-0.000418,-0.257744,0.386286,-0.885636,0.26068658917781207
1760636566.432151,-0.195454,-0.137758,0.024895,0.97067,0.003632,0.003517,-0.001001,0.001722,0.001986,0.001306,-0.257704,0.386302,-0.885641,0.26064511068009283
1760636566.467735,-0.19544,-0.137725,0.024878,0.970678,0.003978,0.003182,-0.004431,0.001099,0.001501,0.003141,-0.257648,0.386271,-0.885671,0.26058710958336523
1760636566.468109,-0.195389,-0.137715,0.024835,0.970691,0.006444,-0.001363,-0.005145,0.001482,0.003386,0.004261,-0.257653,0.386164,-0.885716,0.2605923325031035
1760636566.49908,-0.195342,-0.13777,0.024814,0.970693,0.00487,-0.005884,-0.003906,0.001984,0.00261,0.003498,-0.257771,0.386072,-0.885721,0.2607146401874622
1760636566.528798,-0.195332,-0.137872,0.024805,0.970681,0.000174,-0.007123,-0.001464,0.003247,0.001504,0.002979,-0.257969,0.38605,-0.885674,0.2609193208965228
1760636566.529683,-0.195347,-0.137965,0.024835,0.970664,0.001863,-0.008736,3.5e-05,0.003002,0.000417,0.00183,-0.258133,0.386085,-0.885611,0.2610890600344412
1760636566.561195,-0.195335,-0.138006,0.024867,0.97066,0.004193,-0.008074,0.000792,0.002648,9.8e-05,0.003117,-0.258198,0.386072,-0.885597,0.2611565109343885
1760636566.592602,-0.195336,-0.138106,0.024911,0.970644,0.003694,-0.011043,0.002786,0.001699,0.000712,0.002111,-0.258371,0.386085,-0.885541,0.26133555768426037
1760636566.59354,-0.195336,-0.13818,0.025004,0.970631,0.00204,-0.00798,0.004858,0.002129,0.001139,0.001407,-0.258476,0.386108,-0.8855,0.26144432780046684
1760636566.623614,-0.195348,-0.138216,0.025118,0.970621,0.000634,-0.00659,0.010794,0.003576,0.000868,0.000482,-0.258496,0.38616,-0.885472,0.2614649096431838
1760636566.627209,-0.195378,-0.13824,0.025286,0.970607,-0.001186,-0.006564,0.01192,0.003614,0.002313,0.002202,-0.258472,0.386262,-0.885434,0.26144018768677446
1760636566.657523,-0.195452,-0.138277,0.025443,0.970583,-0.004123,-0.00949,0.012133,0.002263,0.002837,0.003069,-0.258473,0.38644,-0.885356,0.26144123138830644
1760636566.687489,-0.195522,-0.138297,0.025606,0.970562,-0.004499,-0.008023,0.01308,0.001803,0.004407,0.00199,-0.258438,0.386614,-0.885291,0.2614048227968745
1760636566.68856,-0.195609,-0.138333,0.025761,0.970535,-0.00609,-0.008852,0.011491,0.000981,0.004736,0.001062,-0.258435,0.386819,-0.885202,0.26140179364067007
1760636566.718659,-0.195719,-0.138374,0.025925,0.970502,-0.006305,-0.009283,0.016323,0.00136,0.006944,0.004736,-0.258436,0.387067,-0.885094,0.26140266178738614
1760636566.748615,-0.195865,-0.138423,0.026187,0.970459,-0.009393,-0.014023,0.026776,0.001013,0.006513,0.006505,-0.25841,0.387408,-0.884952,0.2613758396738249
1760636566.749918,-0.196019,-0.138457,0.026541,0.970413,-0.009296,-0.012431,0.03774,0.001265,0.004378,0.001041,-0.258315,0.387789,-0.884813,0.2612774656425275
1760636566.781201,-0.196206,-0.138453,0.026942,0.970365,-0.011904,-0.000715,0.039842,0.003089,0.001167,-0.004129,-0.258127,0.388243,-0.884668,0.2610830460560421
1760636566.811454,-0.19645,-0.138332,0.027266,0.970324,-0.017245,0.004055,0.028229,0.003039,-0.001162,-0.000207,-0.25774,0.388785,-0.884543,0.2606824446595192
1760636566.811731,-0.196732,-0.138292,0.027447,0.970267,-0.02442,-0.001824,0.016438,0.002861,-7.5e-05,0.00198,-0.25756,0.389357,-0.884344,0.2604961106044134
1760636566.841098,-0.197068,-0.138318,0.027487,0.970194,-0.037656,-0.005977,-0.000124,0.00461,0.002052,0.003404,-0.257558,0.389993,-0.884064,0.26049410979411186
1760636566.847215,-0.197477,-0.138382,0.027424,0.970104,-0.04623,-0.014624,-0.005367,0.004536,0.001165,0.00479,-0.257658,0.390737,-0.883706,0.260597666332177
1760636566.877583,-0.197948,-0.138515,0.027372,0.96999,-0.051596,-0.013176,-0.000585,0.004042,6.9e-05,0.002539,-0.25788,0.391598,-0.88326,0.2608274345430666
1760636566.910906,-0.198453,-0.138648,0.027361,0.969868,-0.050073,-0.012867,0.004363,0.004015,0.000572,0.002624,-0.258081,0.392533,-0.882787,0.26103527241236996
1760636566.912867,-0.198982,-0.138755,0.0274,0.969743,-0.051953,-0.012903,0.012095,0.002584,0.002638,0.002795,-0.25821,0.393527,-0.882306,0.26116894032927646
1760636566.945693,-0.199511,-0.138813,0.027573,0.969622,-0.048458,-0.015262,0.025566,0.003267,0.002971,0.003058,-0.258191,0.394555,-0.881852,0.26114935243029463
1760636566.947742,-0.199972,-0.138872,0.027843,0.96951,-0.039998,-0.013772,0.032204,0.001661,0.004175,0.004176,-0.25814,0.395483,-0.881452,0.2610963623781104
1760636566.977535,-0.200326,-0.138945,0.028151,0.969418,-0.023782,-0.016728,0.037649,0.001656,0.005362,0.002793,-0.258113,0.396223,-0.881127,0.2610685374633107
1760636567.025142,-0.200591,-0.13904,0.028537,0.969338,-0.016503,-0.017348,0.038865,0.000101,0.004871,0.001661,-0.258106,0.396817,-0.880862,0.2610612218052122
1760636567.026044,-0.200804,-0.13909,0.028949,0.969275,-0.013898,-0.014729,0.036415,-0.000738,0.002898,-0.000518,-0.258006,0.397321,-0.880664,0.26095773581253595
1760636567.027252,-0.200974,-0.13917,0.029262,0.969219,-0.011147,-0.017283,0.025946,-0.003135,0.001483,0.001645,-0.258011,0.397721,-0.880482,0.26096290190974525
1760636567.057351,-0.201103,-0.139319,0.029502,0.969163,-0.005002,-0.016067,0.012008,-0.002601,-0.001371,0.001802,-0.258179,0.398024,-0.880295,0.26113698511034517
1760636567.090661,-0.201142,-0.139481,0.029546,0.96913,0.003992,-0.012179,-0.010295,-0.000953,-0.003795,-0.001523,-0.258464,0.398109,-0.880174,0.2614317444542152
1760636567.090969,-0.201055,-0.139613,0.029363,0.969135,0.005174,-0.009225,-0.035825,-0.001464,-0.003794,0.00127,-0.258801,0.397897,-0.88017,0.2617808121324079
1760636567.133863,-0.201008,-0.139849,0.028966,0.969123,-0.00504,-0.013303,-0.048712,-0.00306,-0.001397,-0.000877,-0.259417,0.397705,-0.880076,0.2624184590857903
1760636567.13508,-0.20103,-0.140133,0.028442,0.969093,-0.019518,-0.01775,-0.059266,-0.00377,0.001399,-0.000811,-0.260168,0.397605,-0.879899,0.26319627479558466
1760636567.159905,-0.201215,-0.140468,0.027864,0.969023,-0.038398,-0.024248,-0.055496,-0.002486,0.000877,-0.00048,-0.261021,0.397792,-0.879562,0.2640797517463315
1760636567.192077,-0.201505,-0.140819,0.027307,0.968927,-0.042357,-0.020509,-0.05692,-0.001201,-0.003446,0.00275,-0.261881,0.398177,-0.879132,0.264970756324636
1760636567.192415,-0.201761,-0.141153,0.026728,0.968842,-0.030623,-0.018772,-0.060061,-0.001325,-0.002305,0.004091,-0.262724,0.398495,-0.878737,0.2658441777574705
1760636567.220446,-0.201869,-0.141443,0.026117,0.968793,-0.013177,-0.011071,-0.061263,-0.001636,0.001556,0.004792,-0.263514,0.398526,-0.878486,0.2666631167067243
1760636567.225971,-0.201901,-0.141638,0.025519,0.968774,-0.013515,-0.003518,-0.056342,-0.001615,0.005719,0.005836,-0.264127,0.398422,-0.878349,0.2672986489192934
1760636567.257132,-0.201955,-0.141804,0.025001,0.968752,-0.017411,-0.003627,-0.045811,-0.001456,0.008031,0.007096,-0.264647,0.398379,-0.878212,0.2678378279018369
1760636567.286417,-0.202091,-0.141903,0.024625,0.968719,-0.023188,-0.005109,-0.02702,-0.001123,0.008711,0.005693,-0.264975,0.398528,-0.878046,0.268177844959589
1760636567.290179,-0.202284,-0.141987,0.024394,0.968672,-0.022077,0.003127,-0.013255,-0.001421,0.008589,0.00284,-0.265208,0.398821,-0.877842,0.26841963385072354
1760636567.32037,-0.202517,-0.141951,0.024264,0.968632,-0.019871,0.009141,-0.004827,-0.001123,0.007927,0.002457,-0.265169,0.399218,-0.877673,0.26837926064523115
1760636567.355848,-0.202777,-0.141849,0.024205,0.968594,-0.022574,0.013237,0.00578,0.000128,0.006836,0.002081,-0.264972,0.399685,-0.87752,0.2681749378039857
1760636567.357313,-0.203095,-0.141722,0.02421,0.968546,-0.024258,0.01583,0.00814,0.000425,0.004554,0.002978,-0.264695,0.400276,-0.877334,0.267887728161529
1760636567.387793,-0.203396,-0.141563,0.024234,0.968505,-0.023448,0.015246,0.006364,0.000767,0.002252,0.002915,-0.264351,0.400841,-0.87718,0.2675309610574984
1760636567.389126,-0.203679,-0.141416,0.02419,0.968468,-0.023287,0.0151,-0.001794,0.000403,0.001662,0.001868,-0.26406,0.401356,-0.877032,0.26722927529569845
1760636567.417568,-0.203926,-0.14127,0.024061,0.968441,-0.022539,0.013844,-0.010905,0.001753,0.002456,0.003124,-0.263811,0.401779,-0.876914,0.2669709405698318
1760636567.480035,-0.204093,-0.141191,0.023832,0.968423,-0.018417,0.011072,-0.012622,0.002005,0.002962,0.003691,-0.263737,0.402026,-0.876822,0.2668944755087578
1760636567.480377,-0.20426,-0.141112,0.023603,0.968405,-0.014294,0.0083,-0.014339,0.002256,0.003468,0.004257,-0.263664,0.402274,-0.876731,0.26681860643671873
1760636567.480697,-0.204426,-0.141032,0.023375,0.968387,-0.010171,0.005528,-0.016057,0.002508,0.003975,0.004823,-0.263591,0.402521,-0.87664,0.2667428285092755
1760636567.485926,-0.204557,-0.141011,0.023188,0.968367,-0.009552,0.005857,-0.010101,0.003392,0.00536,0.002683,-0.263614,0.402711,-0.876545,0.26676686757543383
1760636567.515024,-0.204647,-0.14093,0.023074,0.968362,-0.008446,0.009633,-0.006335,0.003518,0.004862,0.001069,-0.263498,0.40285,-0.876516,0.26664661741985346
1760636567.546441,-0.204743,-0.140829,0.022998,0.968359,-0.007547,0.011637,0.001603,0.004184,0.004494,0.000662,-0.263329,0.403006,-0.876495,0.2664714485194139
1760636567.546756,-0.20485,-0.140699,0.023008,0.968355,-0.0052,0.010584,0.005476,0.004656,0.00379,0.00204,-0.263066,0.40321,-0.87648,0.26619887328902825
1760636567.577664,-0.204946,-0.140561,0.023032,0.968354,-0.006259,0.004858,0.006691,0.004427,0.002196,0.002005,-0.262784,0.403395,-0.87648,0.2659064625891107
1760636567.607396,-0.205095,-0.140506,0.0231,0.968329,-0.008975,0.002856,0.003832,0.006648,0.000428,0.002891,-0.262636,0.40369,-0.876389,0.26575296366327894
1760636567.608563,-0.205227,-0.140443,0.023106,0.96831,-0.012972,-0.000726,-0.001253,0.005231,7.8e-05,0.003315,-0.262501,0.403937,-0.876315,0.2656132057452866
1760636567.640021,-0.205397,-0.140461,0.023082,0.968272,-0.010747,-0.005008,-0.004078,0.005656,0.001184,0.004968,-0.262526,0.404244,-0.876166,0.26563909841358635
1760636567.669017,-0.205526,-0.140511,0.023044,0.968238,-0.01,-0.010383,-0.004745,0.00364,0.003754,0.005524,-0.262624,0.404472,-0.876031,0.26574075665847663
1760636567.66969,-0.205643,-0.140608,0.02305,0.968199,-0.008421,-0.014517,-0.000746,0.002488,0.005738,0.002649,-0.262793,0.404689,-0.875881,0.26591569147237765
1760636567.701063,-0.205773,-0.140718,0.023083,0.968154,-0.014544,-0.011571,0.005084,0.0036,0.004349,-0.002279,-0.262974,0.404937,-0.875712,0.26610329895637386
1760636567.743405,-0.205924,-0.140779,0.023144,0.968112,-0.010525,-0.010956,0.006349,0.003013,0.003162,-0.000375,-0.263048,0.405231,-0.875553,0.2661801814728295
1760636567.743717,-0.206074,-0.14084,0.023205,0.96807,-0.006506,-0.010341,0.007615,0.002427,0.001975,0.001528,-0.263121,0.405525,-0.875395,0.26625583022988797
1760636567.745261,-0.206158,-0.14092,0.023275,0.968039,-0.003874,-0.011636,0.005363,0.000985,0.003048,0.003794,-0.263235,0.405698,-0.875281,0.26637389098765774
1760636567.77444,-0.20622,-0.140974,0.023336,0.968016,-0.002943,-0.013086,0.001821,0.000854,0.004289,0.004482,-0.263305,0.405827,-0.8752,0.2664464840802083
1760636567.808075,-0.206246,-0.141117,0.023402,0.967988,-0.003325,-0.016369,0.007648,0.000961,0.004615,0.003735,-0.263547,0.405893,-0.875097,0.2666972364883747
1760636567.810234,-0.206289,-0.141232,0.023547,0.967959,-0.001838,-0.015851,0.011532,0.000753,0.003264,0.002074,-0.263698,0.40601,-0.874997,0.2668538288276404
1760636567.838779,-0.206356,-0.141332,0.023694,0.967926,-0.005383,-0.013345,0.014913,0.000356,0.003994,0.001469,-0.263819,0.406172,-0.874885,0.2669793506834308
1760636567.870399,-0.206502,-0.141451,0.023872,0.967873,-0.007886,-0.013139,0.01474,0.00115,0.003393,0.002947,-0.263955,0.40649,-0.874697,0.2671201730900532
1760636567.870639,-0.206638,-0.141578,0.024032,0.967822,-0.008572,-0.017204,0.014903,0.00074,0.00343,0.003275,-0.264113,0.406782,-0.874513,0.2672841154766655
1760636567.926431,-0.20674,-0.141731,0.024188,0.967774,-0.007096,-0.019041,0.013494,0.000236,0.002678,0.001854,-0.264326,0.407012,-0.874342,0.267504871203386
1760636567.926749,-0.206842,-0.141884,0.024345,0.967725,-0.005619,-0.020879,0.012084,-0.000269,0.001926,0.000433,-0.264539,0.407241,-0.87417,0.2677259566663667
1760636567.927205,-0.206928,-0.142028,0.024507,0.967682,-0.002249,-0.013105,0.010716,-0.001214,0.00197,0.000873,-0.264734,0.407443,-0.874017,0.26792812442842234
1760636567.958621,-0.206935,-0.142113,0.024627,0.967665,0.00309,-0.011258,0.010013,-0.000907,0.002304,0.002566,-0.264844,0.407487,-0.873964,0.26804199455629335
1760636567.987403,-0.206901,-0.142219,0.02477,0.967653,0.009846,-0.01246,0.010695,-0.002133,0.001807,0.000893,-0.264988,0.407462,-0.873931,0.2681915716278265
1760636567.988521,-0.206778,-0.14228,0.024913,0.967667,0.015731,-0.006849,0.008206,-0.000463,0.00047,-0.000716,-0.265056,0.407274,-0.873999,0.2682618553084434
1760636568.022541,-0.206648,-0.142322,0.025034,0.967685,0.014646,-0.005348,0.006071,0.000112,0.001611,0.001258,-0.265099,0.407067,-0.874082,0.26830654422915684
1760636568.026118,-0.206538,-0.142385,0.025136,0.967697,0.018426,-0.005244,0.007105,-0.000638,0.003805,0.00209,-0.265188,0.406891,-0.874137,0.26839883534283737
1760636568.073142,-0.206395,-0.142428,0.02523,0.967718,0.017018,-0.005424,0.004023,-0.002243,0.004373,0.001615,-0.265246,0.406652,-0.87423,0.26845913718146514
1760636568.073276,-0.206252,-0.142555,0.025282,0.967729,0.011626,-0.021557,-0.007861,-0.007354,0.012885,-0.003165,-0.265479,0.4064,-0.874277,0.26870067047845764
1760636568.104829,-0.206198,-0.142839,0.025251,0.967699,-0.003261,-0.032126,-0.014986,-0.016032,0.03186,-0.022045,-0.266038,0.40629,-0.874158,0.2692805692087949
1760636568.106706,-0.206344,-0.143235,0.025173,0.967612,-0.024245,-0.032653,-0.010623,-0.020286,0.054596,-0.03556,-0.266802,0.406532,-0.873812,0.2700733570135661
1760636568.136745,-0.206617,-0.143469,0.025157,0.967519,-0.023425,-0.021391,0.000144,-0.022645,0.060293,-0.029397,-0.267222,0.407031,-0.873452,0.2705090082624321
1760636568.165467,-0.206585,-0.143626,0.025243,0.9675,0.034612,-0.014383,0.007784,-0.024755,0.053937,-0.021436,-0.267487,0.406993,-0.873389,0.27078392000664403
1760636568.166281,-0.205897,-0.143705,0.025471,0.967629,0.119005,-0.003578,0.007786,-0.021856,0.042566,-0.014158,-0.267618,0.405785,-0.87391,0.270920070097498
1760636568.199083,-0.204516,-0.143652,0.025731,0.967923,0.186091,0.009111,0.000825,-0.017913,0.033621,-0.010868,-0.267564,0.403304,-0.875075,0.2708638433317038
1760636568.205038,-0.202671,-0.143456,0.026042,0.968332,0.220081,0.023285,-0.000249,-0.016173,0.023006,-0.011998,-0.26727,0.399977,-0.87669,0.2705588226295661
1760636568.234058,-0.200607,-0.143163,0.026269,0.968799,0.233777,0.036308,-0.008477,-0.013597,0.014097,-0.009646,-0.266853,0.396218,-0.878522,0.27012611697655825
1760636568.248303,-0.19845,-0.142814,0.026394,0.969291,0.235803,0.041497,-0.024332,-0.012338,0.010421,-0.005794,-0.266382,0.392251,-0.880443,0.2696374329457665
1760636568.280575,-0.196258,-0.142436,0.026322,0.969795,0.236625,0.046022,-0.042035,-0.009685,0.008657,-0.006405,-0.265936,0.388159,-0.882389,0.26917479583255566
1760636568.284627,-0.194005,-0.141982,0.02605,0.970322,0.240877,0.064053,-0.064447,-0.006444,0.007337,-0.005114,-0.26543,0.383892,-0.884406,0.26864987557963865
1760636568.313952,-0.191629,-0.141451,0.025573,0.970884,0.248665,0.076291,-0.076987,-0.008209,0.013211,-0.008564,-0.264865,0.379334,-0.88654,0.2680637927820697
1760636568.344772,-0.189211,-0.140745,0.025018,0.971475,0.255235,0.1016,-0.072506,-0.008077,0.015108,-0.007863,-0.263994,0.374669,-0.88878,0.26716082951804987
1760636568.346645,-0.186698,-0.139894,0.024489,0.972098,0.270763,0.103707,-0.071034,-0.004907,0.012939,0.004793,-0.262836,0.369828,-0.891148,0.2659603403115599
1760636568.365394,-0.184045,-0.138975,0.024011,0.972747,0.284449,0.099988,-0.072059,-0.003028,0.007722,0.006456,-0.261537,0.364732,-0.893627,0.26461425327027727
1760636568.395526,-0.181371,-0.13821,0.023569,0.973369,0.287417,0.099215,-0.068293,0.000154,0.005474,-0.006105,-0.26051,0.359596,-0.896005,0.263550444818845
1760636568.425485,-0.178699,-0.137298,0.023116,0.974003,0.285698,0.110635,-0.0662,0.001958,0.005097,-0.005612,-0.259196,0.354454,-0.898432,0.2621896253303081
1760636568.425877,-0.176086,-0.136346,0.022666,0.974623,0.275494,0.112526,-0.065024,0.006343,0.006399,-0.00755,-0.257789,0.349416,-0.900807,0.2607331639719368
1760636568.473838,-0.173617,-0.13511,0.022184,0.975249,0.272133,0.128968,-0.064149,0.009922,0.003117,-0.003016,-0.255828,0.344635,-0.903205,0.2587040397686512
1760636568.474149,-0.171147,-0.133872,0.021702,0.975867,0.268772,0.14541,-0.063273,0.01349,-0.000155,0.001489,-0.253854,0.339844,-0.905574,0.25666269844918693
1760636568.505628,-0.16856,-0.132571,0.021158,0.976506,0.277708,0.139826,-0.075688,0.013346,-0.000635,0.000369,-0.25178,0.334809,-0.908025,0.2545191162024575
1760636568.507726,-0.165919,-0.131286,0.020462,0.977147,0.273701,0.136163,-0.09225,0.014171,0.009318,-0.008138,-0.249781,0.329627,-0.91047,0.2524540630088691
1760636568.538379,-0.163366,-0.130056,0.01971,0.977757,0.255495,0.135516,-0.095932,0.017739,0.024904,-0.013566,-0.247887,0.324592,-0.912794,0.2504984662659073
1760636568.543,-0.160965,-0.128757,0.018945,0.978342,0.250017,0.137834,-0.086608,0.01762,0.026945,-0.003428,-0.245837,0.319837,-0.915024,0.2483830398522854
1760636568.579122,-0.158508,-0.127518,0.018313,0.978917,0.259733,0.124838,-0.074534,0.01764,0.019213,0.001097,-0.243854,0.315003,-0.917229,0.24633775604673483
1760636568.582374,-0.155929,-0.126404,0.017809,0.979485,0.282695,0.107076,-0.072938,0.017797,0.006265,0.002792,-0.242068,0.309963,-0.919416,0.24449670534993068
1760636568.612498,-0.153215,-0.1254,0.017419,0.980049,0.307579,0.092986,-0.065939,0.018808,-0.007146,0.014426,-0.240458,0.304684,-0.9216,0.242837797708431
1760636568.641324,-0.150208,-0.124563,0.01711,0.980627,0.354327,0.061665,-0.070341,0.019753,-0.016189,0.025085,-0.239158,0.298859,-0.923843,0.24149869973790597
1760636568.642153,-0.146698,-0.123978,0.016776,0.981238,0.40093,0.050009,-0.081713,0.021556,-0.018367,0.023161,-0.238381,0.292051,-0.926219,0.24069833724968268
1760636568.67366,-0.142714,-0.123492,0.016404,0.981893,0.430179,0.041204,-0.089919,0.018939,-0.013451,0.018769,-0.237829,0.284311,-0.928765,0.24013012874301742
1760636568.702494,-0.138526,-0.123045,0.016055,0.982554,0.433765,0.039115,-0.080732,0.01571,-0.004763,0.024385,-0.237348,0.27617,-0.931341,0.239634925599953
1760636568.703517,-0.134295,-0.122779,0.015924,0.983177,0.433343,0.011279,-0.059237,0.015506,-0.009522,0.022963,-0.237149,0.267981,-0.933781,0.2394300256724009
1760636568.733653,-0.12999,-0.122699,0.015905,0.983766,0.445878,-0.012905,-0.059842,0.013667,-0.011166,0.018102,-0.237278,0.259663,-0.936095,0.23956291944268945
1760636568.763599,-0.125548,-0.122754,0.015941,0.984335,0.461873,-0.017411,-0.059117,0.013628,-0.015029,0.017186,-0.237659,0.251076,-0.938338,0.23995518922502074
1760636568.764757,-0.120978,-0.122951,0.015925,0.984883,0.473296,-0.02994,-0.070066,0.012391,-0.014414,0.017778,-0.238331,0.242213,-0.940495,0.24064700993718982
1760636568.802751,-0.116409,-0.123224,0.015844,0.9854,0.456543,-0.035344,-0.06689,0.013764,-0.007548,0.011927,-0.23916,0.233324,-0.94253,0.24150060483347613
1760636568.803039,-0.112037,-0.123552,0.015807,0.985867,0.440904,-0.048366,-0.067369,0.011112,-0.010574,0.018953,-0.240069,0.224813,-0.944365,0.24243702018634858
1760636568.837311,-0.107804,-0.124012,0.015731,0.986282,0.423427,-0.050113,-0.068592,0.009761,-0.005968,0.016421,-0.241229,0.216552,-0.945999,0.24363201295727477
1760636568.842178,-0.103673,-0.124562,0.015597,0.986657,0.411837,-0.065976,-0.073589,0.005475,-0.001899,0.0167,-0.242566,0.208466,-0.947472,0.2450100320161689
1760636568.872494,-0.09968,-0.125314,0.015442,0.986976,0.39854,-0.09533,-0.081577,0.002651,0.003601,0.008129,-0.244285,0.200633,-0.948721,0.24678224766990065
1760636568.902563,-0.09586,-0.126148,0.015253,0.987251,0.38258,-0.089753,-0.078386,0.0043,0.008595,0.009608,-0.246155,0.193124,-0.949795,0.24871121697631066
1760636568.91649,-0.092109,-0.127036,0.015004,0.987498,0.376721,-0.100177,-0.087222,0.003911,0.015627,0.011703,-0.248132,0.185727,-0.950756,0.250751346673786
1760636568.94829,-0.08848,-0.128017,0.014735,0.987707,0.369304,-0.103873,-0.084616,0.004279,0.023847,0.012998,-0.25028,0.178557,-0.951566,0.25296937980675266
1760636568.948592,-0.084871,-0.129102,0.014432,0.987887,0.367339,-0.113666,-0.09019,0.001936,0.028181,0.013333,-0.252627,0.171413,-0.952259,0.25539436069053434
1760636568.97615,-0.081294,-0.130289,0.014163,0.988036,0.378147,-0.128684,-0.086861,0.001556,0.028518,0.016193,-0.255158,0.164334,-0.952832,0.2580110969137298
1760636568.980902,-0.077502,-0.131571,0.013993,0.988173,0.420277,-0.147521,-0.081444,0.000169,0.018743,0.029168,-0.25786,0.156853,-0.953365,0.2608067143236164
1760636569.027714,-0.073274,-0.133171,0.013845,0.988284,0.468546,-0.174927,-0.096161,-0.003782,0.016143,0.018817,-0.261192,0.148518,-0.953793,0.26425687062350467
1760636569.028486,-0.068676,-0.134904,0.013732,0.988381,0.502383,-0.190949,-0.093025,-0.00604,0.013762,0.016465,-0.264787,0.139461,-0.954169,0.2679830307029778
1760636569.060649,-0.063875,-0.136794,0.013782,0.988442,0.513801,-0.206125,-0.072378,-0.01083,0.011252,0.013196,-0.268665,0.130045,-0.954415,0.2720067261151614
1760636569.062767,-0.059033,-0.138772,0.014076,0.988463,0.519269,-0.21384,-0.04631,-0.009956,-0.001423,0.021134,-0.27268,0.12061,-0.954515,0.27617749009483367
1760636569.09627,-0.054136,-0.140946,0.014626,0.988428,0.515705,-0.235807,-0.023922,-0.010354,-0.013684,0.017105,-0.277047,0.111142,-0.954407,0.28071939722541034
1760636569.100888,-0.049342,-0.143171,0.015409,0.988347,0.504987,-0.232472,-0.003419,-0.010412,-0.030113,0.018069,-0.281484,0.101946,-0.954135,0.2853403171147133
1760636569.145139,-0.044636,-0.145414,0.016248,0.98823,0.493683,-0.231059,-0.002823,-0.010748,-0.045556,0.016039,-0.285954,0.092947,-0.953725,0.29000182082231934
1760636569.146076,-0.040011,-0.147555,0.017023,0.988098,0.473506,-0.212053,-0.007489,-0.011683,-0.049589,0.004391,-0.290236,0.084093,-0.953253,0.2944734667635558
1760636569.177013,-0.035564,-0.149419,0.017721,0.987975,0.443189,-0.171553,-0.007594,-0.0062,-0.056949,-0.00014,-0.293983,0.075569,-0.952819,0.2983912145599127
1760636569.181839,-0.031313,-0.150886,0.018271,0.987886,0.412119,-0.144542,-0.020212,-0.005269,-0.062458,0.001911,-0.296971,0.067381,-0.952506,0.3015190314968574
1760636569.211139,-0.027237,-0.152108,0.018608,0.987813,0.381098,-0.101677,-0.02954,-0.002504,-0.064408,-0.009571,-0.299495,0.059471,-0.952243,0.3041631908568435
1760636569.248043,-0.023421,-0.152823,0.018721,0.987799,0.350876,-0.053521,-0.058409,-0.000523,-0.074628,-0.010025,-0.301039,0.051993,-0.952193,0.30578212544864247
1760636569.248329,-0.019771,-0.153108,0.018408,0.98784,0.319137,-0.016618,-0.105452,-0.004363,-0.074064,-0.009769,-0.301765,0.044698,-0.952334,0.3065434047066344
1760636569.280041,-0.016353,-0.153118,0.017633,0.987915,0.282074,0.003276,-0.135823,-0.004492,-0.063599,-0.007885,-0.301958,0.03771,-0.952575,0.30674589037905825
1760636569.280341,-0.013347,-0.152925,0.01653,0.988009,0.227867,0.027541,-0.152217,-0.000734,-0.057543,-0.002054,-0.301742,0.03143,-0.952871,0.3065194149732022
1760636569.309109,-0.010764,-0.152566,0.015238,0.988117,0.185392,0.028765,-0.162385,-0.000257,-0.053953,0.010234,-0.301178,0.025922,-0.953216,0.3059276347062031
1760636569.340911,-0.008467,-0.15226,0.013838,0.988207,0.154077,0.032014,-0.161229,-0.000774,-0.047742,0.007101,-0.300694,0.020948,-0.953491,0.30542012286823317
1760636569.341773,-0.006552,-0.152,0.012459,0.98828,0.125798,0.032969,-0.148538,0.00019,-0.040407,0.002383,-0.300274,0.016738,-0.953706,0.3049799332160612
1760636569.372246,-0.004923,-0.151672,0.011278,0.988354,0.107813,0.031408,-0.114969,0.001595,-0.035296,0.006629,-0.299701,0.013153,-0.953943,0.30437908494921895
1760636569.404649,-0.003515,-0.151425,0.010377,0.988408,0.094249,0.026183,-0.088359,0.003099,-0.034172,0.010454,-0.299266,0.010092,-0.954116,0.30392341121791344
1760636569.406592,-0.002352,-0.151223,0.009705,0.988449,0.069189,0.030351,-0.07116,0.00605,-0.028294,0.001557,-0.298907,0.007585,-0.954252,0.30354711511626875
1760636569.435306,-0.001562,-0.150884,0.009192,0.988508,0.031736,0.037275,-0.043563,0.006103,-0.026463,-0.00075,-0.298271,0.005863,-0.954463,0.3028807500265527
1760636569.441359,-0.001217,-0.150494,0.008829,0.988571,-0.016273,0.040305,-0.024314,0.002401,-0.023097,-0.003613,-0.297527,0.005063,-0.9547,0.30210129243184897
1760636569.470371,-0.001452,-0.150154,0.008592,0.988624,-0.075123,0.033632,-0.012105,0.002586,-0.022179,-0.003434,-0.296866,0.005452,-0.954903,0.301409192078862
1760636569.500573,-0.002333,-0.149814,0.008364,0.988676,-0.14607,0.033407,0.0038,0.005724,-0.014646,-0.002139,-0.296195,0.00712,-0.955101,0.30070640388808767
1760636569.501965,-0.003899,-0.149524,0.008082,0.988717,-0.203631,0.020739,0.00376,0.007942,-0.010272,-0.000651,-0.295611,0.010127,-0.955255,0.3000949567757938
1760636569.531148,-0.006013,-0.149225,0.007783,0.988754,-0.251952,0.037347,0.011999,0.007803,-0.006321,-0.001211,-0.295,0.014214,-0.955391,0.29945567293560255
1760636569.564338,-0.00836,-0.148903,0.007479,0.988788,-0.258375,0.023862,0.011033,0.005919,-0.012882,0.000511,-0.294342,0.018759,-0.955516,0.298766954486196
1760636569.56541,-0.010654,-0.148628,0.00718,0.98881,-0.233803,0.033608,0.00606,0.006821,-0.015623,0.005729,-0.293777,0.023203,-0.955592,0.298175905289902
1760636569.599412,-0.012533,-0.148368,0.006818,0.988829,-0.18887,0.015583,-0.007363,0.005766,-0.016291,0.008181,-0.29325,0.026809,-0.95566,0.29762447891181126
1760636569.599666,-0.014021,-0.148304,0.006487,0.988821,-0.140094,-0.002403,-0.015368,0.003949,-0.012815,0.009911,-0.293111,0.029653,-0.955619,0.2974789810973741
1760636569.63116,-0.015035,-0.148318,0.006155,0.988806,-0.103894,-0.002576,-0.012501,0.005732,-0.004393,0.003094,-0.29313,0.031559,-0.955552,0.2974988907555419
1760636569.660146,-0.015802,-0.148281,0.0059,0.988801,-0.089718,0.000732,-0.002711,0.004565,0.001739,0.004457,-0.293055,0.033001,-0.955526,0.2974205310757004
1760636569.661018,-0.016525,-0.148291,0.005805,0.988789,-0.087206,-0.00128,0.013148,0.00231,0.001587,-0.000879,-0.293065,0.034402,-0.955474,0.29743084917259976
1760636569.694195,-0.017314,-0.148243,0.005789,0.988782,-0.093375,0.014107,0.012703,0.0042,0.000817,-0.006068,-0.29296,0.035955,-0.955449,0.2973210354065975
1760636569.723339,-0.018202,-0.148029,0.005736,0.988799,-0.097179,0.019936,0.004929,0.002291,0.000193,-9.6e-05,-0.292533,0.037694,-0.955512,0.2968747072046226
1760636569.723698,-0.019154,-0.147836,0.005606,0.98881,-0.097376,0.013313,-0.002951,0.000543,0.001197,0.001143,-0.292149,0.039537,-0.955555,0.29647316622053577
1760636569.752359,-0.02009,-0.147807,0.005443,0.988797,-0.088099,-0.01554,0.001039,-0.000305,-0.000317,0.006673,-0.292084,0.04134,-0.955499,0.29640507548979805
1760636569.78391,-0.020901,-0.148053,0.005317,0.988744,-0.071644,-0.033595,0.001064,0.001499,-0.004903,0.003259,-0.29255,0.042906,-0.955287,0.2968924690504306
1760636569.78417,-0.021394,-0.14836,0.005172,0.988688,-0.038098,-0.031734,-0.015866,0.001833,-0.007466,-0.001323,-0.293143,0.043838,-0.955063,0.2975126213599499
1760636569.823372,-0.02156,-0.148643,0.00491,0.988644,-0.010004,-0.031702,-0.029145,0.003685,-0.00036,0.002091,-0.293698,0.044091,-0.954881,0.29809312420705975
1760636569.823659,-0.021543,-0.149024,0.004663,0.988588,-0.001018,-0.038337,-0.020402,0.00325,0.005271,0.005246,-0.294446,0.043985,-0.954655,0.29887587613219296
1760636569.852568,-0.021521,-0.149451,0.004448,0.988525,-0.010912,-0.043067,-0.013468,0.002825,0.009328,0.003679,-0.295281,0.043877,-0.954402,0.2997497375376676
1760636569.860241,-0.021651,-0.149907,0.004404,0.988453,-0.028205,-0.049736,0.005841,0.002436,0.010641,0.001564,-0.296161,0.044123,-0.954118,0.3006709242074396
1760636569.890444,-0.022001,-0.150363,0.004493,0.988376,-0.043532,-0.04764,0.026918,0.00074,0.008234,0.000543,-0.297032,0.044842,-0.953814,0.301582866402648
1760636569.920439,-0.022537,-0.150841,0.004765,0.98829,-0.046158,-0.06229,0.035325,-0.000163,0.001829,0.003021,-0.297935,0.045984,-0.953478,0.3025286665883121
1760636569.920748,-0.023118,-0.15136,0.005141,0.988195,-0.043491,-0.045117,0.045672,0.000211,-0.001096,0.001718,-0.298909,0.047246,-0.953111,0.3035492819203905
1760636569.950355,-0.023634,-0.151806,0.005573,0.988112,-0.040449,-0.050038,0.049044,-0.001344,-0.002214,-0.001096,-0.29974,0.048399,-0.952793,0.3044199495695097
1760636569.979003,-0.024159,-0.152197,0.006015,0.988037,-0.042777,-0.035841,0.051981,-0.002031,-0.000926,-0.006483,-0.300462,0.049571,-0.952505,0.30517692409190866
1760636569.979882,-0.02474,-0.152477,0.006435,0.987976,-0.056509,-0.028238,0.046353,-0.000955,-0.004326,-0.004996,-0.300969,0.050848,-0.952277,0.30570870820375656
1760636570.010246,-0.02537,-0.152679,0.00678,0.987927,-0.059005,-0.020649,0.04152,-0.00256,-0.009914,0.000688,-0.301327,0.052197,-0.952091,0.3060840707731402
1760636570.040834,-0.025926,-0.15286,0.007031,0.987883,-0.049446,-0.014037,0.026208,-0.002628,-0.012578,0.002136,-0.301651,0.053374,-0.951923,0.306423922299089
1760636570.042817,-0.02632,-0.153095,0.007131,0.987835,-0.025934,-0.033426,0.004173,-0.00531,-0.014583,0.00936,-0.302089,0.054184,-0.951739,0.30688315158146146
1760636570.071172,-0.026423,-0.153484,0.007076,0.987772,-0.004955,-0.043099,-0.01138,-0.003546,-0.010394,0.006647,-0.302841,0.054372,-0.951489,0.30767218351964104
1760636570.102428,-0.026292,-0.153974,0.006921,0.987701,0.008722,-0.047972,-0.021221,-0.001558,-0.003415,0.003185,-0.303796,0.054069,-0.951202,0.30867433342023165
1760636570.103514,-0.026045,-0.154441,0.006794,0.987635,0.013161,-0.041774,-0.014864,-0.001138,-0.002652,0.001571,-0.304709,0.053544,-0.950939,0.3096329624135844
1760636570.170287,-0.025871,-0.154731,0.006604,0.987596,0.007277,-0.03156,-0.018266,-0.000932,-0.001749,0.000146,-0.305282,0.053143,-0.950778,0.31023453887129737
1760636570.170612,-0.025697,-0.155021,0.006413,0.987556,0.001393,-0.021345,-0.021668,-0.000727,-0.000846,-0.00128,-0.305854,0.052742,-0.950616,0.3108354188754006
1760636570.170847,-0.025523,-0.155311,0.006222,0.987516,-0.004491,-0.011131,-0.02507,-0.000521,5.8e-05,-0.002707,-0.306427,0.052341,-0.950454,0.3114372017994283
1760636570.200846,-0.025566,-0.155411,0.005952,0.987501,-0.02091,-0.012543,-0.025242,-0.000364,0.003354,0.002616,-0.306632,0.052343,-0.950388,0.3116524999508406
1760636570.202832,-0.025766,-0.15555,0.005683,0.987476,-0.032115,-0.016066,-0.020284,0.001049,0.004547,0.002111,-0.306911,0.052653,-0.950281,0.31194557653678084
1760636570.23246,-0.026004,-0.155774,0.005508,0.987435,-0.028953,-0.025736,-0.008594,0.001047,0.002111,0.003416,-0.307346,0.05307,-0.950117,0.31240272940319497
1760636570.261158,-0.026244,-0.156011,0.005392,0.987392,-0.020684,-0.025461,-0.007484,0.001426,-0.001542,0.005665,-0.307806,0.053508,-0.949943,0.3128863197506831
1760636570.262286,-0.026359,-0.156311,0.005317,0.987342,-0.009344,-0.025009,-0.002,0.001068,0.000193,0.001317,-0.308384,0.053712,-0.949744,0.31349387522739175
1760636570.302622,-0.026412,-0.156561,0.005275,0.987301,0.00654,-0.027255,-0.004127,0.001705,-0.00249,0.002394,-0.308867,0.053805,-0.949582,0.3140015922803276
1760636570.303449,-0.026348,-0.156824,0.005324,0.987261,0.009881,-0.028086,0.006101,-0.001683,0.000378,0.00118,-0.309372,0.053694,-0.949424,0.31453256109193756
1760636570.333709,-0.026268,-0.157099,0.005476,0.987218,0.004568,-0.02894,0.016401,-0.000279,0.003376,0.001827,-0.309895,0.053585,-0.94926,0.31508246159586173
1760636570.337216,-0.026286,-0.15734,0.005729,0.987178,-0.004201,-0.030247,0.030143,-0.002349,0.005052,0.000844,-0.310344,0.0537,-0.949106,0.31555499481786325
1760636570.367463,-0.026459,-0.157603,0.0061,0.987129,-0.018087,-0.028671,0.044599,-0.001858,0.002322,0.002278,-0.310826,0.05416,-0.948923,0.31606179747924357
1760636570.398876,-0.026757,-0.157903,0.006506,0.987071,-0.026594,-0.027435,0.045989,-0.000473,-0.001688,-0.001674,-0.311375,0.054876,-0.948702,0.31663941629906883
1760636570.399662,-0.027123,-0.158096,0.006891,0.987027,-0.024552,-0.013573,0.034319,-0.000945,-0.003173,-0.000769,-0.311717,0.05572,-0.94854,0.3169994782234468
1760636570.42987,-0.027449,-0.158165,0.007142,0.987005,-0.024804,-0.008236,0.021503,-0.0024,-0.00283,0.002919,-0.311827,0.056444,-0.948461,0.3171152594625125
1760636570.480748,-0.027785,-0.158267,0.007229,0.986979,-0.031064,-0.0122,0.014162,-0.003368,-0.001813,0.001546,-0.31201,0.057135,-0.948359,0.31730800529170883
1760636570.48103,-0.028121,-0.158369,0.007316,0.986952,-0.037323,-0.016165,0.006822,-0.004337,-0.000796,0.000172,-0.312194,0.057826,-0.948257,0.317501542167913
1760636570.482849,-0.028491,-0.158507,0.007267,0.98692,-0.041199,-0.0086,-0.003717,-0.003074,-0.000487,-0.001681,-0.312454,0.058539,-0.948127,0.31777542301086825
1760636570.513159,-0.028824,-0.158658,0.007121,0.986887,-0.032663,-0.013663,-0.010656,-0.005749,-0.000222,0.003576,-0.312744,0.059152,-0.947994,0.31808051447979424
1760636570.517155,-0.029046,-0.158816,0.006959,0.986856,-0.018232,-0.017293,-0.007584,-0.004977,0.004887,0.002557,-0.313052,0.05954,-0.947868,0.31840481107671015
1760636570.550411,-0.029126,-0.158999,0.006866,0.986825,-0.00412,-0.011076,-0.003074,-0.005667,0.006176,0.002975,-0.313409,0.059668,-0.947742,0.31878071862090107
1760636570.58183,-0.029142,-0.159133,0.006858,0.986803,0.000727,-0.006514,0.005461,-0.003706,0.006275,0.002659,-0.313666,0.059697,-0.947655,0.31905141192204833
1760636570.583953,-0.029077,-0.159224,0.006965,0.98679,0.009353,-0.002175,0.011031,-0.002826,0.005351,0.002145,-0.313837,0.059603,-0.947604,0.3192315998297998
1760636570.613196,-0.028999,-0.159282,0.007164,0.986781,0.018018,0.000857,0.015122,-0.00157,0.002843,0.001762,-0.313937,0.059513,-0.947577,0.3193367761880916
1760636570.61901,-0.028812,-0.159338,0.00731,0.986777,0.02902,-0.006543,0.008153,-0.002725,-0.001008,0.001733,-0.314041,0.059191,-0.947563,0.31944622416054447
1760636570.647548,-0.028534,-0.15943,0.007427,0.986769,0.037253,-0.006756,-0.001662,-0.001413,0.000358,0.002523,-0.314217,0.05868,-0.947536,0.31963174489913465
1760636570.677753,-0.028214,-0.159527,0.007406,0.986763,0.03402,-0.009649,-0.009261,0.000137,0.001322,0.001429,-0.314413,0.058043,-0.94751,0.3198382770041507
1760636570.678696,-0.02794,-0.159641,0.00733,0.986753,0.020274,-0.009419,-0.010458,0.001141,0.00314,-0.000566,-0.314642,0.05748,-0.947469,0.3200793017686201
1760636570.708929,-0.02778,-0.159699,0.007194,0.986749,0.007823,-0.002731,-0.009998,0.001358,0.002486,0.002712,-0.314766,0.057122,-0.947449,0.32021008520884475
1760636570.742365,-0.027715,-0.159762,0.007096,0.986741,0.003486,-0.002542,-0.01187,0.000445,0.000676,0.004826,-0.314894,0.056962,-0.947416,0.3203449740784726
1760636570.742644,-0.027652,-0.159782,0.006985,0.98674,0.00318,-0.00668,-0.007753,0.00115,-0.001742,0.001811,-0.31494,0.056802,-0.94741,0.3203935394206935
1760636570.771966,-0.027591,-0.159843,0.006888,0.986733,0.009989,-0.000758,-0.012194,0.001839,-0.003462,0.000519,-0.315065,0.056653,-0.947378,0.3205250431793347
1760636570.775908,-0.027455,-0.159811,0.006789,0.986742,0.012065,0.00168,-0.006834,-0.001188,-0.003912,1.5e-05,-0.315011,0.056352,-0.947414,0.3204681170758576
1760636570.804981,-0.027363,-0.159846,0.006759,0.986739,0.006534,-0.001966,-0.004604,-9.7e-05,-0.002232,0.002118,-0.315083,0.056161,-0.947401,0.32054410576057324
1760636570.834846,-0.027341,-0.159899,0.006755,0.986732,-0.003743,-0.008596,0.006416,-0.000206,-1e-05,0.001389,-0.315185,0.056118,-0.94737,0.3206514621763532
1760636570.836124,-0.027436,-0.159995,0.00683,0.986713,-0.012132,-0.013195,0.009841,0.00031,-0.002931,0.004303,-0.315364,0.056328,-0.947298,0.3208400706569137
1760636570.867621,-0.027561,-0.160124,0.006891,0.986688,-0.017725,-0.011562,0.009043,-0.000801,-0.005469,0.00027,-0.315604,0.056595,-0.947202,0.32109303485060336
1760636570.898883,-0.027684,-0.160209,0.006935,0.986671,-0.007179,-0.005164,0.006262,0.000372,-0.005236,-0.000359,-0.315762,0.056853,-0.947134,0.3212595145484966
1760636570.899192,-0.027784,-0.160256,0.006944,0.98666,-0.005528,0.001663,-0.00076,-0.001195,-0.006112,-0.004673,-0.315851,0.057051,-0.947092,0.32135344652382053
1760636570.928357,-0.027807,-0.160199,0.006895,0.986669,-0.001693,0.009119,-0.008923,0.001357,-0.006288,-0.002319,-0.315743,0.057082,-0.947126,0.32123966676441795
1760636570.958257,-0.027783,-0.16011,0.00679,0.986685,0.000292,0.012936,-0.013107,0.001917,-0.00504,0.003236,-0.31558,0.057001,-0.947186,0.321067632305734
1760636570.960325,-0.027691,-0.16,0.006608,0.986706,0.00262,0.006521,-0.015264,0.000559,-0.003127,0.003038,-0.31538,0.056761,-0.947266,0.32085719139199814
1760636570.988742,-0.027576,-0.159948,0.006475,0.986719,0.002325,0.000779,-0.012311,0.001623,0.000847,0.004384,-0.315291,0.056491,-0.947312,0.32076333290898357
1760636571.027262,-0.027513,-0.160017,0.006431,0.98671,0.002257,-0.010122,-0.002706,0.001581,0.003068,0.002884,-0.315426,0.056353,-0.947275,0.32090567936545494
1760636571.027535,-0.02745,-0.160085,0.006388,0.986701,0.002189,-0.021024,0.0069,0.001539,0.005289,0.001384,-0.315562,0.056215,-0.947238,0.3210489686885619
1760636571.056236,-0.027437,-0.160332,0.006557,0.98666,0.000305,-0.029199,0.026561,0.002334,0.00432,0.000847,-0.316026,0.056243,-0.947082,0.32153787813858203
1760636571.05812,-0.027489,-0.160607,0.006856,0.986612,0.000557,-0.024996,0.033482,0.00092,-0.000288,0.000158,-0.316537,0.056444,-0.946899,0.3220766478583966
1760636571.090713,-0.027482,-0.160782,0.007223,0.986581,0.010338,-0.026789,0.033703,-3.6e-05,-0.000722,0.004922,-0.316852,0.05655,-0.946788,0.32240852523318
1760636571.150964,-0.027465,-0.161095,0.007569,0.986528,0.008483,-0.029073,0.027935,0.002171,0.001457,0.002359,-0.317433,0.056628,-0.946589,0.32302105538887305
1760636571.156842,-0.027533,-0.161329,0.007818,0.986486,0.003438,-0.025924,0.022795,0.00144,-0.000732,0.002356,-0.317867,0.056845,-0.94643,0.32347886887802757
1760636571.157168,-0.027602,-0.161564,0.008067,0.986443,-0.001606,-0.022774,0.017655,0.00071,-0.002922,0.002353,-0.318302,0.057062,-0.946271,0.32393761338782323
1760636571.196271,-0.027631,-0.161776,0.008215,0.986406,0.001006,-0.018515,0.008714,-0.000134,-0.002389,0.002197,-0.3187,0.057168,-0.94613,0.32435767930995174
1760636571.197185,-0.027614,-0.161943,0.008302,0.986379,0.004149,-0.017009,0.004574,-0.000786,-0.000584,0.003415,-0.319016,0.057165,-0.946024,0.324690979985281
1760636571.217209,-0.027573,-0.162091,0.008386,0.986355,0.000969,-0.014686,0.008759,-0.001437,0.001527,0.002148,-0.319295,0.057112,-0.945933,0.3249853990507981
1760636571.266236,-0.027637,-0.162156,0.008479,0.986342,-0.004038,-0.006728,0.006357,-0.001989,-0.000597,0.002288,-0.319414,0.057268,-0.945883,0.32511109967156965
1760636571.266539,-0.0277,-0.162222,0.008572,0.986328,-0.009046,0.001229,0.003956,-0.002541,-0.00272,0.002427,-0.319533,0.057424,-0.945834,0.3252364729412912
1760636571.298702,-0.027794,-0.162271,0.008606,0.986317,-0.010211,-0.001894,-0.000218,-0.002621,-0.004206,0.00361,-0.319622,0.05762,-0.945791,0.3253307198746136
1760636571.298993,-0.027894,-0.162335,0.008581,0.986304,-0.008625,-0.004894,-0.005422,-0.002248,-0.002864,0.002737,-0.319744,0.05781,-0.945739,0.3254592107970504
1760636571.333812,-0.027975,-0.162415,0.008507,0.986289,-0.006798,-0.005987,-0.007143,-0.001841,-0.001537,0.002307,-0.3199,0.057946,-0.945678,0.3256238329720578
1760636571.337203,-0.028007,-0.162452,0.008407,0.986283,-0.002031,-0.000421,-0.006281,-0.001525,-0.000182,0.002788,-0.319976,0.057977,-0.94565,0.3257041730119133
1760636571.366166,-0.027986,-0.162462,0.008346,0.986283,-0.000224,0.001758,-0.003777,-0.002474,-0.000255,0.001825,-0.32,0.057916,-0.945646,0.3257293825261753
1760636571.39759,-0.027933,-0.162396,0.008332,0.986295,0.005046,0.008778,0.002107,-0.003135,0.000146,0.00023,-0.319876,0.057806,-0.945694,0.3255987210759972
1760636571.39883,-0.027876,-0.162312,0.00836,0.98631,0.006586,0.011835,0.004142,-0.002518,0.000769,0.000998,-0.319715,0.057703,-0.945755,0.3254287122576618
1760636571.429832,-0.02784,-0.162185,0.008393,0.986332,0.003159,0.013244,0.004503,-0.001611,0.000129,0.002229,-0.319469,0.05764,-0.945842,0.3251690861341897
1760636571.458771,-0.027831,-0.162095,0.008411,0.986347,-0.002687,0.009372,0.001406,-0.00139,-0.000855,0.002831,-0.319296,0.057629,-0.945901,0.3249865518287535
1760636571.459839,-0.027878,-0.162048,0.008387,0.986353,-0.00496,0.005048,-0.002048,-0.001808,-0.001533,0.002696,-0.319206,0.057713,-0.945926,0.3248916630359167
1760636571.47591,-0.027924,-0.161987,0.008334,0.986363,-0.003829,0.009653,-0.003726,-0.002512,-0.000949,0.001073,-0.319091,0.057786,-0.945961,0.3247701078649301
1760636571.506053,-0.027942,-0.161887,0.008281,0.986379,0.000597,0.011354,-0.003204,-0.002816,-0.000681,0.003162,-0.318902,0.057804,-0.946023,0.3245708908674626
1760636571.538127,-0.027932,-0.161779,0.008274,0.986397,0.003772,0.011834,0.002979,-0.002631,8.8e-05,0.003479,-0.318695,0.057782,-0.946094,0.3243525265920495
1760636571.539481,-0.027883,-0.161659,0.008314,0.986418,0.003725,0.016349,0.004808,-0.001452,-0.001022,0.000633,-0.318462,0.057696,-0.946178,0.32410662460899486
1760636571.583464,-0.027851,-0.161509,0.008326,0.986443,0.003505,0.017865,-0.000791,-0.001703,-0.002416,0.002413,-0.318176,0.057636,-0.946278,0.3238048901049782
1760636571.585279,-0.027833,-0.161363,0.008278,0.986468,-0.001695,0.016549,-0.009243,-0.002356,-0.003291,0.002844,-0.317899,0.057584,-0.946374,0.3235128021633387
1760636571.61587,-0.027864,-0.161237,0.008114,0.986489,-0.008151,0.013471,-0.020329,-0.002279,-0.002716,0.002701,-0.317665,0.057592,-0.946452,0.3232660361106532
1760636571.616548,-0.02795,-0.161149,0.007848,0.986503,-0.014803,0.010148,-0.027589,-0.002883,-0.002601,0.002904,-0.317509,0.057674,-0.9465,0.32310131353247157
1760636571.646211,-0.028051,-0.161081,0.007495,0.986514,-0.019973,0.010709,-0.034405,-0.003936,-0.001533,-6.6e-05,-0.317396,0.05776,-0.946532,0.32298235721909974
1760636571.675757,-0.028184,-0.161011,0.007095,0.986525,-0.023278,0.013514,-0.034312,-0.003317,-0.000262,-0.000274,-0.317282,0.057894,-0.946562,0.32286215410151525
1760636571.677841,-0.02835,-0.160864,0.006692,0.986547,-0.025228,0.018764,-0.030881,-0.003991,0.002189,-0.000615,-0.31702,0.05809,-0.946638,0.3225858202773307
1760636571.706176,-0.028542,-0.16068,0.006326,0.986574,-0.027538,0.027051,-0.029001,-0.002837,0.002496,-0.001601,-0.316683,0.05835,-0.946735,0.32223045067991857
1760636571.736281,-0.028749,-0.160382,0.005981,0.986618,-0.025711,0.033843,-0.027059,-0.002133,0.002591,0.000139,-0.316127,0.058648,-0.946902,0.32164446191929513
1760636571.737243,-0.028967,-0.160053,0.005654,0.986667,-0.025176,0.040258,-0.030719,-0.001666,0.001074,0.000341,-0.315511,0.058971,-0.947088,0.32099503695723414
1760636571.768502,-0.029166,-0.159692,0.00528,0.986722,-0.024041,0.039232,-0.032863,-0.000536,0.000424,0.00167,-0.314835,0.059244,-0.947296,0.32028270242136997
1760636571.777698,-0.029347,-0.159343,0.00488,0.986775,-0.021645,0.03965,-0.036578,0.000711,0.00064,0.002387,-0.314184,0.059472,-0.947497,0.3195971610997934
1760636571.816549,-0.029505,-0.158981,0.004452,0.986831,-0.018097,0.037525,-0.037858,0.000399,0.000666,0.001497,-0.313513,0.059648,-0.947709,0.31889019474347724
1760636571.816857,-0.02962,-0.158676,0.004022,0.986878,-0.014326,0.033531,-0.037272,0.000369,0.001399,0.001785,-0.31295,0.059739,-0.947889,0.31829746494168615
1760636571.847512,-0.029688,-0.158389,0.003617,0.986924,-0.012005,0.031445,-0.033974,0.001211,0.004132,0.001569,-0.312421,0.059745,-0.948063,0.3177405731497942
1760636571.883673,-0.029802,-0.158137,0.003349,0.986962,-0.014459,0.025328,-0.02497,0.002045,0.003794,0.00213,-0.31195,0.059887,-0.948209,0.3172448332853899
1760636571.883991,-0.029917,-0.157884,0.003082,0.987,-0.016913,0.01921,-0.015966,0.00288,0.003456,0.002691,-0.311479,0.060029,-0.948355,0.3167490876692638
1760636571.917067,-0.030083,-0.157735,0.002919,0.987019,-0.015714,0.011681,-0.008883,0.001436,0.002762,0.00307,-0.311198,0.060305,-0.94843,0.3164533095896664
1760636571.918314,-0.030249,-0.157645,0.002812,0.987028,-0.013459,0.006011,-0.006628,0.002244,0.001552,0.002418,-0.31103,0.060601,-0.948466,0.3162766117728934
1760636571.950392,-0.030393,-0.157593,0.002711,0.987033,-0.010361,0.00188,-0.007386,0.002567,0.000614,0.00175,-0.310934,0.060853,-0.948481,0.31617570933084593
1760636571.978762,-0.030505,-0.157591,0.002601,0.98703,-0.007587,0.000256,-0.0083,0.001986,0.001184,0.00127,-0.310935,0.061038,-0.948469,0.3161766946964454
1760636571.980751,-0.030586,-0.157596,0.002495,0.987027,-0.007362,-0.000917,-0.009618,0.001903,0.000236,0.000763,-0.31095,0.061165,-0.948456,0.3161924462917579
1760636572.009991,-0.030655,-0.157628,0.0024,0.98702,-0.004011,-0.001783,-0.010467,0.001017,0.00084,0.001082,-0.311016,0.061271,-0.948427,0.31626205022972426
1760636572.01415,-0.030694,-0.157657,0.00228,0.987014,-0.004085,-0.003184,-0.009589,0.000659,0.00149,0.001593,-0.31108,0.061309,-0.948404,0.31632925244557425
1760636572.042854,-0.030739,-0.157681,0.002197,0.987009,-0.00622,-0.004693,-0.005003,0.001198,0.001562,0.00047,-0.311129,0.061373,-0.948384,0.3163807448593367
1760636572.073087,-0.030804,-0.157741,0.002133,0.986998,-0.004594,-0.004732,-0.003963,0.000905,0.001392,-0.000503,-0.311249,0.06148,-0.948338,0.31650691916833357
1760636572.074335,-0.03081,-0.157754,0.002072,0.986996,0.002366,-0.000619,-0.005706,0.001103,-0.000736,-0.000434,-0.311277,0.061472,-0.948329,0.316536484812364
1760636572.106985,-0.030752,-0.157761,0.002011,0.986996,0.011308,0.00174,-0.006417,0.002098,-9.8e-05,0.000773,-0.311294,0.061338,-0.948332,0.3165544035379091
1760636572.141957,-0.030609,-0.157742,0.001972,0.987004,0.017099,0.00153,-0.005692,0.001254,0.000635,0.003353,-0.311264,0.061045,-0.948361,0.316522758345098
1760636572.142194,-0.030439,-0.157708,0.001956,0.987015,0.017103,-0.001558,-0.001884,-0.000271,0.001358,0.002125,-0.311202,0.060705,-0.948403,0.3164575711289731
1760636572.1701,-0.030271,-0.157711,0.001978,0.987019,0.012683,3.4e-05,-0.000937,0.000495,0.000818,-0.002291,-0.311208,0.060379,-0.948422,0.31646383539673495
1760636572.171912,-0.03015,-0.157659,0.001986,0.987031,0.010596,0.009364,-0.003176,0.001016,-0.001828,-0.003455,-0.311109,0.060144,-0.948469,0.31635979155719157
1760636572.201695,-0.03001,-0.157525,0.001957,0.987057,0.013772,0.012321,-0.005012,-0.000222,-0.00218,-0.000143,-0.310855,0.05986,-0.948571,0.31609230487211226
1760636572.266523,-0.029906,-0.157392,0.001997,0.987081,0.010733,0.012343,-0.000528,0.000102,-0.001515,0.000112,-0.310599,0.059668,-0.948667,0.31582295762724655
1760636572.266874,-0.029802,-0.15726,0.002037,0.987105,0.007694,0.012364,0.003956,0.000426,-0.000851,0.000366,-0.310342,0.059475,-0.948762,0.3155529761990197
1760636572.267119,-0.029697,-0.157127,0.002078,0.98713,0.004656,0.012385,0.00844,0.00075,-0.000186,0.00062,-0.310086,0.059283,-0.948858,0.31528360319380555
1760636572.292161,-0.029667,-0.157015,0.002156,0.987148,0.00046,0.010971,0.01091,0.00012,-1.3e-05,0.001756,-0.309866,0.059248,-0.948932,0.31505222202114397
1760636572.292506,-0.029707,-0.156896,0.002257,0.987166,-0.001208,0.007087,0.010742,-0.000171,6.8e-05,0.00228,-0.309631,0.05936,-0.949002,0.31480497564088805
1760636572.32441,-0.029757,-0.156811,0.002383,0.987177,-0.003437,0.004211,0.010495,-0.000418,0.000141,0.003258,-0.309458,0.059497,-0.94905,0.31462299305062413
1760636572.361443,-0.029828,-0.156779,0.002493,0.98718,-0.007448,-0.001635,0.01242,5.5e-05,0.001557,0.002973,-0.309389,0.059673,-0.949062,0.314550261131268
1760636572.36224,-0.029938,-0.156808,0.002606,0.987172,-0.009598,-0.008164,0.014207,-2.7e-05,0.001123,0.00247,-0.309436,0.059925,-0.94903,0.3145999330814185
1760636572.393861,-0.03007,-0.156911,0.002711,0.987151,-0.007443,-0.010622,0.010927,-0.000797,0.000379,0.002155,-0.309627,0.060218,-0.948949,0.31480084551698173
1760636572.394626,-0.030148,-0.157024,0.002769,0.987131,-0.001718,-0.009368,0.006233,-0.000364,0.000173,0.000984,-0.30984,0.060389,-0.948869,0.31502474060473606
1760636572.425774,-0.030163,-0.157134,0.002792,0.987113,0.003697,-0.008931,0.000717,-0.000592,0.001407,0.00222,-0.310049,0.060426,-0.948798,0.31524468132716554
1760636572.456669,-0.030109,-0.157236,0.002815,0.987098,0.006938,-0.00899,-0.000146,-0.001754,0.001927,0.002243,-0.310246,0.060326,-0.94874,0.31545188893557163
1760636572.456953,-0.030038,-0.157353,0.00283,0.987081,0.008142,-0.005751,0.000783,-0.001857,0.000833,0.000477,-0.310471,0.06019,-0.948675,0.31568858668681393
1760636572.474765,-0.02994,-0.157413,0.00286,0.987075,0.010873,-0.001821,-0.00011,-0.000905,1e-06,-0.000157,-0.310586,0.060006,-0.948649,0.3158095716032057
1760636572.503526,-0.029801,-0.15741,0.002885,0.987079,0.013822,0.000988,-0.001836,-0.002087,0.000162,4.6e-05,-0.310581,0.059741,-0.948668,0.31580411375170275
1760636572.533682,-0.029659,-0.157395,0.0029,0.987086,0.013573,0.001991,-0.000549,-0.002322,0.00133,0.000513,-0.310554,0.059466,-0.948694,0.31577574531869634
1760636572.534727,-0.029568,-0.157376,0.002905,0.987092,0.008843,0.001592,-0.0014,-0.001153,0.001431,0.002477,-0.310517,0.059287,-0.948717,0.3157369183143435
1760636572.565058,-0.029488,-0.157359,0.002894,0.987097,0.005345,0.001064,-0.001208,-0.000812,0.000341,0.002239,-0.310486,0.059126,-0.948737,0.3157043662520817
1760636572.573389,-0.029428,-0.15736,0.002868,0.987099,0.003221,0.001012,-0.004293,-0.001309,0.000868,0.001212,-0.310491,0.058998,-0.948744,0.31570941923141116
1760636572.613591,-0.0294,-0.157332,0.002817,0.987104,-0.000698,0.004387,-0.008619,-0.001783,-0.000412,-0.000755,-0.310441,0.058929,-0.948764,0.31565702143159585
1760636572.614714,-0.02943,-0.157294,0.002711,0.98711,-0.005888,0.009458,-0.010496,-0.001304,-1.6e-05,-0.000425,-0.310372,0.058955,-0.948785,0.31558442333190106
1760636572.645145,-0.029491,-0.157149,0.002582,0.987131,-0.009087,0.01846,-0.013354,-0.000531,-0.000426,-0.00132,-0.310101,0.059034,-0.948869,0.3152992640327078
1760636572.676434,-0.029542,-0.156963,0.002393,0.98716,-0.006307,0.022706,-0.018641,-0.000774,-0.001221,0.00054,-0.309753,0.059076,-0.94898,0.31493325542603506
1760636572.676724,-0.029538,-0.156753,0.002152,0.987194,-0.000799,0.021575,-0.02485,-0.000555,-0.00209,0.001836,-0.309365,0.058993,-0.949112,0.3145251261197025
1760636572.706191,-0.029488,-0.156593,0.001884,0.987221,0.003967,0.017072,-0.028623,-0.000416,-0.000473,0.002709,-0.309073,0.058812,-0.949218,0.3142181891128241
1760636572.710919,-0.029417,-0.156455,0.001605,0.987246,0.004065,0.01169,-0.025008,0.000195,0.002086,0.003479,-0.308824,0.058586,-0.949313,0.3139563856345227
1760636572.739786,-0.029348,-0.156353,0.0014,0.987264,0.00343,0.01113,-0.015814,0.000403,0.002842,0.003442,-0.308641,0.058385,-0.949385,0.31376395442723304
1760636572.769973,-0.029291,-0.156292,0.001277,0.987276,0.002493,0.007849,-0.007002,0.000676,0.003524,0.003047,-0.308531,0.058236,-0.94943,0.3136482812036115
1760636572.77112,-0.02926,-0.156221,0.001263,0.987288,0.00089,0.00516,0.001468,0.000373,0.002749,0.00325,-0.308396,0.05817,-0.949478,0.31350633150387625
1760636572.790854,-0.02927,-0.156209,0.001317,0.987289,0.001012,0.000437,0.007086,0.000622,0.001466,0.002664,-0.30837,0.058208,-0.949484,0.31347903502695784
1760636572.822665,-0.029284,-0.156206,0.001412,0.987289,0.002558,-0.002145,0.006694,0.001203,-0.001294,0.002196,-0.308358,0.058264,-0.949484,0.3134665626447611
1760636572.863286,-0.029284,-0.156272,0.001455,0.987279,0.000997,-0.004297,0.002325,0.00025,-0.000918,0.002086,-0.308484,0.058277,-0.949443,0.31359879605233354
1760636572.863615,-0.029284,-0.156339,0.001499,0.987268,-0.000563,-0.006448,-0.002044,-0.000702,-0.000542,0.001975,-0.308609,0.05829,-0.949401,0.31373038603789316
1760636572.895458,-0.029302,-0.156408,0.001489,0.987257,-0.003415,-0.005857,-0.002016,-0.000425,-0.000199,0.001631,-0.308742,0.058323,-0.949356,0.3138701311762936
1760636572.895754,-0.029355,-0.156465,0.001448,0.987246,-0.008421,-0.003523,-0.003472,0.000114,0.000225,-0.000439,-0.308854,0.058414,-0.949314,0.31398787807206463
1760636572.926055,-0.029419,-0.156496,0.001413,0.987239,-0.009989,-0.000247,-0.003337,0.000383,-0.000425,0.00028,-0.308914,0.05853,-0.949287,0.31405106535425936
1760636572.930863,-0.029491,-0.156511,0.001352,0.987235,-0.008865,-0.001063,-0.004469,-0.00035,-1.2e-05,3.4e-05,-0.308946,0.058652,-0.949269,0.3140847284187512
1760636572.960851,-0.029565,-0.156519,0.001279,0.987232,-0.006717,0.000497,-0.004012,-0.000605,0.000557,0.000313,-0.308966,0.058776,-0.949255,0.31410570201054283
1760636572.989908,-0.029638,-0.156503,0.00122,0.987232,-0.007314,3.8e-05,-0.003991,-0.000262,0.000242,0.000136,-0.308936,0.058901,-0.949257,0.3140741637881641
1760636572.991863,-0.029714,-0.156523,0.001158,0.987227,-0.007444,0.00062,-0.003208,-4.9e-05,0.000495,0.000446,-0.308978,0.059032,-0.949235,0.3141183836297532
1760636573.029594,-0.029802,-0.156532,0.001126,0.987223,-0.008106,0.000244,-0.000546,0.000162,0.000567,-0.000194,-0.308997,0.059194,-0.949219,0.31413827692875784
1760636573.03065,-0.029906,-0.156533,0.001118,0.987219,-0.009303,0.001213,0.001205,0.001631,-0.000277,0.000182,-0.308997,0.059398,-0.949206,0.3141383560016256
1760636573.060668,-0.030018,-0.156529,0.00112,0.987217,-0.007911,0.003483,0.001365,0.000702,-0.000119,7.8e-05,-0.308988,0.05962,-0.949195,0.31412889653635984
1760636573.089917,-0.030106,-0.15651,0.001125,0.987217,-0.005853,0.001484,0.001008,0.000561,0.001521,0.001591,-0.308951,0.059794,-0.949196,0.31409002347388
1760636573.091921,-0.030199,-0.1565,0.001091,0.987216,-0.009647,0.000523,0.000141,0.000675,0.001755,0.000294,-0.308932,0.059968,-0.949192,0.31406980172689575
1760636573.123145,-0.030337,-0.156501,0.001054,0.987211,-0.011953,0.00117,-0.001188,0.000812,0.000576,0.000215,-0.308935,0.060227,-0.949174,0.31407314872171105
1760636573.1648,-0.030378,-0.156493,0.000967,0.987211,-0.003639,0.003146,-0.005879,0.000697,0.000305,0.001188,-0.308925,0.060282,-0.949174,0.31406256142381656
1760636573.165117,-0.030419,-0.156485,0.00088,0.987211,0.004675,0.005123,-0.010569,0.000581,3.3e-05,0.00216,-0.308914,0.060336,-0.949174,0.3140510416595957
1760636573.195615,-0.030354,-0.156438,0.000807,0.987221,0.010958,0.007562,-0.011426,0.001636,0.002474,0.004627,-0.308829,0.060185,-0.949211,0.3139617475403932
1760636573.196922,-0.030259,-0.156393,0.000729,0.987231,0.00682,0.005003,-0.007022,0.000221,0.004138,0.00375,-0.308748,0.059973,-0.949251,0.3138765140874615
1760636573.226182,-0.030213,-0.156325,0.000707,0.987243,-0.000624,0.004126,0.000417,0.000619,0.00368,-0.001249,-0.308619,0.059877,-0.949299,0.3137408933911799
