timestamp,quat_x,quat_y,quat_z,quat_w,rot_x,rot_y,rot_z,acc_x,acc_y,acc_z,grav_x,grav_y,grav_z,pitch_rad
1760630301.921586,0.021943,-0.595694,0.0,0.802911,-0.009575,-0.001559,-0.001554,1.051236,0.337109,-0.655788,-0.95658,-0.035236,-0.289333,1.2750324762863219
1760630301.922219,-0.051545,-0.391071,0.127986,0.90996,-0.013948,0.000803,-0.007277,0.792611,0.108742,-0.257596,-0.698523,0.193911,-0.688814,0.7733310885588742
1760630301.922309,-0.121161,-0.157073,0.246359,0.94866,-0.018321,0.003165,-0.013001,0.331839,-0.00384,-0.026402,-0.23832,0.307274,-0.921296,0.2406356338612576
1760630301.950728,-0.140554,-0.083971,0.278458,0.94639,-0.018011,0.000935,-0.016821,0.173715,-0.009672,-0.001555,-0.080661,0.312802,-0.946387,0.0807487376263997
1760630301.951078,-0.158997,-0.0103,0.308677,0.937727,-0.017701,-0.001295,-0.020642,0.01375,-0.001724,0.001042,0.078839,0.30455,-0.949228,-0.07892089765861147
1760630301.981542,-0.160448,-0.004011,0.311102,0.936726,-0.008562,-0.002319,-0.006958,1.1e-05,-0.004431,0.000284,0.092317,0.303087,-0.948481,-0.09244861601773212
1760630302.018028,-0.160567,-0.00441,0.311041,0.936724,-0.003129,-0.005422,0.007746,0.000228,-0.001378,-0.001365,0.091625,0.303557,-0.948398,-0.09175365261472043
1760630302.048181,-0.160519,-0.004373,0.31116,0.936693,-0.002739,-0.007229,0.010564,-0.000189,-0.000793,-0.000633,0.091701,0.303435,-0.948429,-0.09183003460647197
1760630302.048438,-0.16047,-0.004337,0.311278,0.936662,-0.002348,-0.009037,0.013382,-0.000607,-0.000208,9.8e-05,0.091777,0.303313,-0.948461,-0.09190632782762034
1760630302.048778,-0.160422,-0.004301,0.311397,0.936631,-0.001958,-0.010844,0.0162,-0.001024,0.000377,0.00083,0.091854,0.303191,-0.948493,-0.09198361530976035
1760630302.076686,-0.159936,-0.004181,0.31171,0.936611,-0.002044,-0.006827,0.006551,-0.000649,0.003925,0.003888,0.091876,0.302202,-0.948806,-0.09200574733707802
1760630302.124025,-0.159925,-0.004262,0.311713,0.936611,0.000321,-0.002256,0.000323,-0.000661,0.004,0.003963,0.091717,0.302233,-0.948811,-0.0918461176383892
1760630302.124359,-0.159915,-0.004344,0.311716,0.936612,0.002687,0.002316,-0.005906,-0.000673,0.004075,0.004037,0.091559,0.302265,-0.948817,-0.09168736848700788
1760630302.15871,-0.160189,-0.004378,0.311466,0.936648,0.003354,0.025245,-0.018821,0.00035,0.002022,0.007152,0.091585,0.302809,-0.94864,-0.09171356683189169
1760630302.159018,-0.160339,-0.004266,0.311309,0.936675,0.00372,0.030553,-0.020802,-0.00059,-1.6e-05,0.004908,0.091839,0.303028,-0.948546,-0.09196859895969293
1760630302.187787,-0.160474,-0.004137,0.311117,0.936716,0.005811,0.034828,-0.022481,-0.000591,-0.000474,0.002862,0.092102,0.303212,-0.948462,-0.09223269174737748
1760630302.18988,-0.160757,-0.00382,0.310653,0.936823,0.008884,0.036424,-0.021512,-0.000591,-0.000887,0.001011,0.092721,0.303576,-0.948285,-0.09285437261489829
1760630302.229778,-0.160864,-0.003651,0.310508,0.936853,0.007158,0.036571,-0.020514,-0.000207,-0.000429,0.00118,0.093057,0.303679,-0.948219,-0.09319184100227144
1760630302.230132,-0.16097,-0.003482,0.310363,0.936884,0.005433,0.036719,-0.019516,0.000177,3e-05,0.001349,0.093393,0.303782,-0.948153,-0.09352930810790608
1760630302.261027,-0.161083,-0.003053,0.309966,0.936997,0.002809,0.03925,-0.0168,0.002415,-0.000844,0.000278,0.094139,0.303761,-0.948086,-0.09427860502860998
1760630302.294932,-0.161153,-0.002642,0.30966,0.937088,0.004368,0.027383,-0.007633,0.000895,-0.002466,-0.001413,0.094853,0.303665,-0.948046,-0.09499577713687365
1760630302.295276,-0.161183,-0.002471,0.309569,0.937113,0.006182,0.026034,-0.007844,0.002443,-0.000972,-0.001725,0.095163,0.303624,-0.948028,-0.09530719156560305
1760630302.326386,-0.161191,-0.002326,0.309484,0.93714,0.009776,0.022336,-0.008211,0.002886,-0.00103,-0.001426,0.095412,0.303557,-0.948024,-0.09555736859089464
1760630302.328414,-0.161136,-0.001947,0.309338,0.937199,0.012716,0.014611,-0.006905,0.000952,0.00028,-0.00018,0.096042,0.303238,-0.948063,-0.09619022716546342
1760630302.358847,-0.161054,-0.00183,0.309279,0.937232,0.009734,0.011599,-0.006279,0.002125,0.000696,-0.000368,0.096192,0.303023,-0.948116,-0.0963409738023067
1760630302.426054,-0.161023,-0.001777,0.309278,0.937238,0.007924,0.006225,-0.002135,0.00198,0.000276,3.7e-05,0.096271,0.302932,-0.948137,-0.09642034777141453
1760630302.426412,-0.160991,-0.001724,0.309277,0.937244,0.006115,0.000852,0.002009,0.001835,-0.000143,0.000441,0.09635,0.302842,-0.948158,-0.09649969159549922
1760630302.426732,-0.160959,-0.001671,0.309276,0.93725,0.004306,-0.004521,0.006154,0.00169,-0.000563,0.000846,0.096429,0.302751,-0.948179,-0.09657906388637356
1760630302.454161,-0.160903,-0.001621,0.309463,0.937198,0.003582,-0.013389,0.019292,0.000452,-0.001305,9.9e-05,0.09655,0.3026,-0.948215,-0.09670062079704046
1760630302.454496,-0.160858,-0.001642,0.309589,0.937164,0.002986,-0.013583,0.015413,0.000601,-0.001257,0.001068,0.096522,0.302516,-0.948244,-0.09667254946335216
1760630302.484297,-0.160808,-0.001667,0.309731,0.937126,0.002168,-0.012236,0.013249,0.0005,-0.000483,0.001989,0.096489,0.302428,-0.948276,-0.09663934214488222
1760630302.516233,-0.160714,-0.001642,0.30999,0.937056,0.004536,-0.00842,0.008998,0.000536,-0.000282,0.00203,0.096563,0.302215,-0.948336,-0.096713723570174
1760630302.516529,-0.160652,-0.001656,0.310044,0.937049,0.004612,-0.006508,0.005274,0.000562,0.001609,0.001932,0.096514,0.302105,-0.948376,-0.09666449688904509
1760630302.545405,-0.160609,-0.001636,0.310068,0.937049,0.005427,-0.002705,0.002677,0.000139,0.001485,0.001628,0.096533,0.302011,-0.948404,-0.09668358647213356
1760630302.579697,-0.160548,-0.001576,0.310052,0.937064,0.002593,0.002327,-0.004711,0.000914,0.000305,-0.000156,0.096603,0.301866,-0.948443,-0.096753918366001
1760630302.581842,-0.160592,-0.001553,0.309925,0.937099,0.000897,0.002617,-0.006924,0.000824,-0.001005,0.000333,0.096633,0.301944,-0.948415,-0.09678406996064826
1760630302.613514,-0.160629,-0.001526,0.309867,0.937112,0.001443,0.003702,-0.004749,0.000628,-0.00179,0.001453,0.096688,0.302,-0.948392,-0.09683928857235657
1760630302.613857,-0.160666,-0.001498,0.30981,0.937124,0.001988,0.004787,-0.002574,0.000432,-0.002575,0.002573,0.096743,0.302056,-0.948368,-0.09689459896477477
1760630302.642509,-0.160657,-0.001436,0.309802,0.937128,0.003848,0.005543,0.002291,0.000806,-0.002562,0.001876,0.096852,0.302003,-0.948374,-0.0970040905636263
1760630302.674119,-0.160625,-0.001309,0.30986,0.937115,0.000955,0.005898,0.004927,0.001258,-0.002138,0.001199,0.097089,0.301859,-0.948396,-0.09724217691062727
1760630302.674358,-0.160616,-0.001259,0.309874,0.937112,0.0011,0.005019,0.004056,0.00194,-0.000516,0.000567,0.097183,0.30181,-0.948402,-0.09733662047769097
1760630302.72379,-0.160624,-0.001191,0.309896,0.937103,0.000788,0.002731,0.002117,0.001286,-0.000578,0.00012,0.097321,0.301782,-0.948397,-0.09747525538790003
1760630302.72415,-0.160633,-0.001124,0.309919,0.937095,0.000476,0.000442,0.000178,0.000633,-0.00064,-0.000327,0.097459,0.301753,-0.948392,-0.09761391971930111
1760630302.754077,-0.160598,-0.001113,0.30994,0.937094,-0.00161,-0.008538,-0.000825,0.001139,-0.00045,-0.000753,0.097466,0.30168,-0.948414,-0.09762100003380816
1760630302.754383,-0.1606,-0.001176,0.309953,0.937089,-0.000888,-0.015492,-0.001576,0.002241,-0.001112,9.9e-05,0.097354,0.301721,-0.948413,-0.09750841480620896
1760630302.786293,-0.160595,-0.001191,0.309975,0.937082,0.001957,-0.003602,0.001601,0.003948,-0.001854,0.004771,0.097328,0.301719,-0.948416,-0.09748231902110298
1760630302.8166,-0.160607,-0.00107,0.309997,0.937073,0.001953,0.015205,0.004537,0.002134,0.001436,0.003098,0.09757,0.301664,-0.948409,-0.09772544193807187
1760630302.821066,-0.160541,-0.001018,0.310024,0.937076,0.000196,-0.000971,-0.001047,0.000151,0.00251,0.000851,0.097635,0.301509,-0.948451,-0.0977908094396158
1760630302.852783,-0.160518,-0.001072,0.310041,0.937074,-0.000643,-0.01241,-0.001115,0.000135,0.001092,0.000171,0.097526,0.3015,-0.948465,-0.09768129373059388
1760630302.853166,-0.160496,-0.001126,0.310057,0.937072,-0.001482,-0.023849,-0.001184,0.000118,-0.000327,-0.000509,0.097416,0.301491,-0.94848,-0.09757068990843831
1760630302.881795,-0.160452,-0.001258,0.310117,0.93706,0.003342,-0.025623,0.006238,0.000782,-0.003302,0.001472,0.09716,0.301488,-0.948507,-0.0973134894655636
1760630302.91299,-0.160288,-0.001538,0.310439,0.936981,0.013089,-0.024788,0.028282,-0.001351,-0.004353,0.000335,0.096637,0.301328,-0.948611,-0.09678804145705576
1760630302.913326,-0.16018,-0.001657,0.310669,0.936923,0.01395,-0.024508,0.033893,-0.000918,-0.001711,-0.000343,0.096421,0.301182,-0.948679,-0.09657105959758072
1760630302.943534,-0.160033,-0.001708,0.310936,0.936859,0.01885,-0.02449,0.035555,-0.002499,-0.001058,0.00057,0.09632,0.300918,-0.948773,-0.09646959020933611
1760630302.974145,-0.159598,-0.001804,0.311552,0.936728,0.01516,-0.015634,0.033895,-0.002464,0.00436,0.000945,0.096066,0.300125,-0.94905,-0.09621439693266068
1760630302.974437,-0.159432,-0.001843,0.311739,0.936694,0.01446,-0.018935,0.023311,-0.003915,0.004902,0.002127,0.09595,0.299826,-0.949156,-0.09609788022556963
1760630303.030225,-0.15916,-0.001944,0.311908,0.936685,0.010215,-0.003874,0.001563,-0.0019,0.00391,0.004469,0.095644,0.299378,-0.949329,-0.09579040060044162
1760630303.030566,-0.159122,-0.001964,0.311902,0.936693,0.010443,-0.003793,-0.001822,-0.002403,0.002293,0.003232,0.095581,0.299322,-0.949353,-0.09572711095050447
1760630303.030742,-0.159084,-0.001983,0.311896,0.936701,0.010672,-0.003712,-0.005208,-0.002905,0.000676,0.001996,0.095519,0.299265,-0.949377,-0.09566484509194194
1760630303.059114,-0.158906,-0.001891,0.311757,0.936778,0.023967,0.018142,-0.012116,-0.001139,-0.001843,0.005595,0.095538,0.298899,-0.94949,-0.09568396722113913
1760630303.090621,-0.158835,-0.001489,0.311486,0.936881,0.012467,0.027686,-0.009104,-0.001635,-0.000546,0.000278,0.096159,0.298546,-0.949539,-0.09630778190001595
1760630303.090963,-0.158822,-0.001333,0.31141,0.936908,0.009261,0.022664,-0.004569,-0.001015,-0.000339,0.000173,0.096421,0.298434,-0.949547,-0.09657106369528533
1760630303.121381,-0.158799,-0.001208,0.311325,0.936941,0.00981,0.020748,-0.009165,-3.1e-05,-0.000874,0.000877,0.096612,0.298322,-0.949563,-0.09676293933920915
1760630303.152414,-0.158721,-0.000886,0.311106,0.937027,0.010736,0.019841,-0.004267,0.000977,-0.002348,0.001136,0.097098,0.298003,-0.949614,-0.0972511973916416
1760630303.152768,-0.158674,-0.000761,0.311059,0.937051,0.007854,0.019855,-0.004762,0.000544,-0.001516,0.000224,0.097287,0.297845,-0.949644,-0.09744111728933783
1760630303.1925,-0.158702,-0.000584,0.311003,0.937065,0.00706,0.017109,-0.002122,0.000996,-0.001259,0.00066,0.097619,0.29779,-0.949627,-0.09777472171725334
1760630303.192792,-0.158729,-0.000406,0.310946,0.937079,0.006267,0.014362,0.000519,0.001447,-0.001002,0.001096,0.097952,0.297736,-0.94961,-0.09810929188657563
1760630303.231162,-0.158711,-0.000209,0.310978,0.937072,0.00832,0.015421,0.004907,0.001499,-0.000972,0.001147,0.09832,0.297578,-0.949621,-0.09847912318194718
1760630303.231514,-0.158694,-1.3e-05,0.311011,0.937064,0.010373,0.016481,0.009294,0.001551,-0.000942,0.001197,0.098687,0.29742,-0.949633,-0.09884786312544626
1760630303.260802,-0.158649,0.000118,0.311065,0.937054,0.004717,0.013762,0.00661,0.001881,0.000928,-0.000629,0.098922,0.297251,-0.949661,-0.09908406238634618
1760630303.324154,-0.15866,0.000341,0.311078,0.937047,-0.001438,0.009494,-0.003952,0.001008,0.000914,0.001898,0.09935,0.297131,-0.949654,-0.09951416930872987
1760630303.324486,-0.158668,0.000421,0.311059,0.937052,0.001346,0.008948,-0.001053,0.000994,-7.2e-05,0.001949,0.099498,0.297098,-0.949649,-0.09966289010825716
1760630303.324976,-0.158676,0.0005,0.31104,0.937057,0.004129,0.008402,0.001846,0.000981,-0.001057,0.002001,0.099646,0.297066,-0.949643,-0.09981167611830093
1760630303.355007,-0.158628,0.00071,0.311156,0.937026,0.013253,0.002711,0.015566,0.000542,-0.001944,-0.000629,0.100046,0.296836,-0.949673,-0.10021367211604877
1760630303.355311,-0.158576,0.000764,0.311251,0.937004,0.005937,-0.001675,0.013165,0.000466,-0.001483,-0.000173,0.100146,0.296696,-0.949706,-0.10031419680966437
1760630303.388095,-0.158488,0.000836,0.311544,0.936921,0.003658,-0.002786,0.026022,0.000822,-0.002306,0.000308,0.100317,0.29646,-0.949762,-0.10048602886460262
1760630303.388428,-0.158455,0.000867,0.311751,0.936858,0.000501,-0.002818,0.033442,0.000983,-0.003282,-0.000659,0.100421,0.296359,-0.949782,-0.10059060752991023
1760630303.438463,-0.158481,0.000933,0.312096,0.936739,-0.000131,0.0035,0.026173,0.000588,-0.00113,0.001239,0.10067,0.296329,-0.949766,-0.10084077987961838
1760630303.438814,-0.158473,0.000986,0.31224,0.936692,0.002381,0.002034,0.025122,0.000417,-0.000802,0.000879,0.10081,0.296265,-0.949771,-0.10098150687907681
1760630303.469837,-0.158438,0.001036,0.312519,0.936605,-0.000869,-0.001027,0.005089,0.000135,0.002231,0.000565,0.100971,0.296139,-0.949793,-0.10114335110361974
1760630303.470147,-0.158473,0.001046,0.31253,0.936595,-0.007187,-0.001181,0.000452,0.000388,0.000365,0.002491,0.101014,0.296197,-0.94977,-0.1011866050331572
1760630303.499018,-0.158511,0.001019,0.312517,0.936593,-0.006931,-2.8e-05,-0.000958,0.000347,-0.000255,0.001352,0.100983,0.296284,-0.949747,-0.10115536474498757
1760630303.530228,-0.158616,0.001022,0.312488,0.936585,-0.006367,-0.000347,-0.001324,-0.001066,-0.001334,0.00069,0.101047,0.296475,-0.94968,-0.10121975036658147
1760630303.530518,-0.158675,0.00101,0.312498,0.936571,-0.007098,0.000412,-0.00413,-4.5e-05,0.000504,0.001882,0.101063,0.296591,-0.949642,-0.10123584005001846
1760630303.566489,-0.158828,0.000959,0.312365,0.93659,-0.008901,0.006196,-0.00774,0.000897,-0.001886,0.001154,0.101021,0.296914,-0.949546,-0.10119357867808607
1760630303.623828,-0.158877,0.000999,0.312335,0.936592,-0.008853,0.005719,-0.00725,0.000636,-0.00159,0.000314,0.101117,0.296982,-0.949514,-0.10129012253599555
1760630303.624169,-0.158926,0.001039,0.312304,0.936594,-0.008805,0.005242,-0.006761,0.000376,-0.001294,-0.000525,0.101212,0.29705,-0.949483,-0.10138557446310949
1760630303.624561,-0.158975,0.001079,0.312273,0.936595,-0.008758,0.004765,-0.006271,0.000116,-0.000997,-0.001365,0.101308,0.297117,-0.949451,-0.10148214755307029
1760630303.654369,-0.159108,0.001057,0.312163,0.93661,-0.011737,-0.004528,-0.00136,0.000215,-0.001382,-0.001447,0.101315,0.297384,-0.949367,-0.10148915069156275
1760630303.654742,-0.159164,0.000955,0.312145,0.936606,-0.01576,-0.013028,-0.007204,6.8e-05,-0.00143,-0.002406,0.101154,0.297553,-0.949332,-0.10132724340154746
1760630303.688478,-0.159377,0.000829,0.312093,0.936588,-0.01399,0.00728,-0.002974,0.002476,-0.001983,0.006678,0.101034,0.298023,-0.949197,-0.10120665819453267
1760630303.68888,-0.159504,0.000861,0.312061,0.936576,-0.0155,0.017667,-0.006747,0.000485,0.001436,0.005506,0.101162,0.298237,-0.949116,-0.10133533171879285
1760630303.718469,-0.159646,0.000901,0.312003,0.936572,-0.024426,0.011223,-0.008774,-0.000321,0.001757,0.001501,0.101307,0.298477,-0.949025,-0.10148108869334815
1760630303.746936,-0.160059,0.000753,0.311745,0.936587,-0.028044,-0.00779,-0.024609,-0.000379,0.002635,-0.001251,0.101206,0.29935,-0.948761,-0.10137954485370378
1760630303.797177,-0.160217,0.00062,0.311626,0.9366,-0.025915,-0.009199,-0.017267,-0.000386,0.00038,-0.001,0.101016,0.299732,-0.94866,-0.10118862771516139
1760630303.797553,-0.160374,0.000486,0.311506,0.936613,-0.023786,-0.010607,-0.009926,-0.000393,-0.001874,-0.00075,0.100826,0.300114,-0.94856,-0.10099759843601595
1760630303.797811,-0.160532,0.000353,0.311387,0.936626,-0.021658,-0.012015,-0.002585,-0.0004,-0.004129,-0.000499,0.100636,0.300497,-0.948459,-0.10080661917721077
1760630303.828022,-0.160712,3.1e-05,0.311511,0.936553,-0.00958,-0.014869,0.019791,-0.001139,-0.001221,0.001437,0.100185,0.301012,-0.948343,-0.10035336979718337
1760630303.828346,-0.160737,-4e-05,0.311699,0.936487,-0.002864,-0.01263,0.020612,-0.001031,0.000349,0.000851,0.100128,0.30108,-0.948327,-0.1002961231026644
1760630303.864333,-0.160679,-0.000113,0.31203,0.936386,0.000263,-0.014194,0.017385,-0.001833,0.002973,-0.001481,0.100062,0.300986,-0.948364,-0.10022977128629086
1760630303.926471,-0.16046,-0.000155,0.312029,0.936424,0.012679,-0.011596,0.009685,-0.00202,0.002738,0.000745,0.099847,0.300615,-0.948505,-0.10001362463698808
1760630303.926737,-0.160242,-0.000197,0.312028,0.936462,0.025095,-0.008998,0.001985,-0.002208,0.002502,0.002971,0.099632,0.300243,-0.948645,-0.09979758760355902
1760630303.927088,-0.160023,-0.000238,0.312027,0.9365,0.03751,-0.0064,-0.005714,-0.002395,0.002266,0.005196,0.099417,0.299871,-0.948785,-0.09958153466621614
1760630303.955376,-0.159773,-0.000175,0.311949,0.936568,0.040748,0.00198,-0.014105,-0.002603,0.002433,0.005785,0.099355,0.299385,-0.948945,-0.09951922243268822
1760630303.955681,-0.159523,-0.000111,0.311871,0.936637,0.043985,0.01036,-0.022496,-0.002812,0.002599,0.006374,0.099293,0.298899,-0.949105,-0.09945688408430221
1760630303.986347,-0.159083,0.000201,0.311468,0.936846,0.027833,0.019556,-0.021651,-0.001634,-0.000297,0.001857,0.099476,0.297948,-0.949385,-0.09964077708849056
1760630303.992953,-0.158975,0.000396,0.311122,0.936979,0.016118,0.011052,-0.018636,-0.00286,-0.003174,-0.001242,0.099664,0.297667,-0.949453,-0.099829756466071
1760630304.022996,-0.158916,0.000428,0.310984,0.937035,0.00957,0.00487,-0.014055,-0.002153,-0.002508,-0.001136,0.099643,0.297554,-0.949491,-0.0998086156314827
1760630304.053307,-0.158915,0.000443,0.310893,0.937065,0.001685,0.004054,-0.01108,-0.00227,-0.002084,-0.000139,0.099641,0.297552,-0.949492,-0.09980659009692604
1760630304.053651,-0.158914,0.000458,0.310803,0.937095,-0.0062,0.003238,-0.008104,-0.002386,-0.00166,0.000858,0.09964,0.29755,-0.949492,-0.09980565466620143
1760630304.081877,-0.159067,0.000365,0.310737,0.937091,-0.011889,0.000353,0.004545,-0.002944,8.8e-05,0.004279,0.09954,0.297894,-0.949395,-0.09970511884883612
1760630304.120962,-0.159139,0.000385,0.310751,0.937074,-0.013477,0.006915,0.003438,-0.002384,0.000959,0.005855,0.099626,0.298011,-0.949349,-0.09979157315568846
1760630304.121475,-0.159211,0.000405,0.310765,0.937058,-0.015065,0.013476,0.002332,-0.001825,0.00183,0.007431,0.099713,0.298129,-0.949303,-0.09987899106907515
1760630304.15177,-0.159551,0.00062,0.310663,0.937033,-0.018683,0.027013,-0.014305,-0.002328,0.005252,0.003842,0.100295,0.298624,-0.949086,-0.10046393110334724
1760630304.152069,-0.159739,0.00072,0.310509,0.937052,-0.016507,0.026766,-0.026982,-0.002213,0.003311,0.004871,0.100551,0.29892,-0.948966,-0.10072120540573876
1760630304.182706,-0.159929,0.001329,0.309794,0.937256,0.026642,0.06144,-0.04245,0.001369,-0.008664,0.000412,0.101581,0.298966,-0.948842,-0.10175648749151568
1760630304.257608,-0.159865,0.001676,0.309465,0.937375,0.01487,0.059439,-0.044515,0.000341,-0.005364,0.002852,0.102088,0.298669,-0.948881,-0.1022661484606121
1760630304.257901,-0.159801,0.002024,0.309135,0.937494,0.003099,0.057437,-0.046579,-0.000686,-0.002064,0.005291,0.102595,0.298373,-0.948919,-0.10277586753388941
1760630304.258494,-0.159736,0.002372,0.308805,0.937613,-0.008673,0.055436,-0.048644,-0.001714,0.001235,0.00773,0.103102,0.298077,-0.948957,-0.1032855779548126
1760630304.258887,-0.159672,0.002719,0.308475,0.937732,-0.020445,0.053435,-0.050708,-0.002742,0.004535,0.010168,0.10361,0.297782,-0.948995,-0.10379624292314317
1760630304.288488,-0.160354,0.003357,0.30752,0.937927,-0.053607,0.070249,-0.056603,-0.000598,-0.002301,0.008578,0.104921,0.298735,-0.948551,-0.10511446140404472
1760630304.288802,-0.160803,0.003649,0.307093,0.937989,-0.051647,0.082669,-0.053754,-3.4e-05,-0.003579,0.005256,0.105609,0.299422,-0.948258,-0.10580630443881668
1760630304.319046,-0.1621,0.004397,0.30611,0.938084,-0.055396,0.080141,-0.05799,0.000678,0.003569,-0.001268,0.10749,0.301435,-0.947408,-0.10769812523803185
1760630304.349989,-0.162588,0.004664,0.305613,0.93816,-0.04867,0.081232,-0.062594,0.002448,-0.002575,0.002864,0.108129,0.302217,-0.947087,-0.10834077910762333
1760630304.350292,-0.163076,0.004931,0.305116,0.938236,-0.041944,0.082323,-0.067197,0.004218,-0.008719,0.006994,0.108768,0.302999,-0.946764,-0.10898356112808645
1760630304.380267,-0.163787,0.00601,0.303965,0.938479,-0.005949,0.084809,-0.049008,0.002352,-0.009609,-0.007823,0.110852,0.303768,-0.946275,-0.11108031830195732
1760630304.411336,-0.163969,0.006395,0.303618,0.938557,-0.010216,0.070998,-0.0466,0.000534,-0.003785,-0.005799,0.111572,0.303904,-0.946147,-0.11180478137785597
1760630304.411643,-0.16415,0.00678,0.30327,0.938635,-0.014482,0.057188,-0.044193,-0.001283,0.002038,-0.003775,0.112292,0.304041,-0.946018,-0.11252931300337032
1760630304.44146,-0.16471,0.007568,0.302345,0.938829,-0.025208,0.068823,-0.049918,0.001072,-0.003663,0.005261,0.11381,0.304694,-0.945626,-0.11405715287949438
1760630304.473504,-0.164932,0.00794,0.301999,0.938899,-0.020948,0.070865,-0.042168,0.001358,-0.00372,0.004158,0.114528,0.304914,-0.945468,-0.11477992088625406
1760630304.473795,-0.165154,0.008312,0.301652,0.938968,-0.016689,0.072906,-0.034418,0.001644,-0.003777,0.003055,0.115247,0.305135,-0.94531,-0.11550363926559026
1760630304.523971,-0.165762,0.00917,0.300889,0.939098,-0.024225,0.068777,-0.04118,0.000292,0.00632,-0.004269,0.116976,0.305815,-0.944878,-0.1172443901017927
1760630304.524312,-0.166082,0.009478,0.30045,0.939179,-0.027149,0.067217,-0.056333,0.002155,0.003912,0.001954,0.117601,0.306266,-0.944654,-0.1178737690048589
1760630304.530577,-0.166677,0.0102,0.299528,0.93936,-0.012959,0.077807,-0.054391,0.002609,-0.004974,-0.002228,0.119013,0.30703,-0.944229,-0.11929576270175334
1760630304.566053,-0.166843,0.010532,0.299189,0.939435,-0.005624,0.064872,-0.045062,0.000999,-0.003608,-0.004962,0.119624,0.307173,-0.944105,-0.11991119014730063
1760630304.568121,-0.167097,0.01118,0.298475,0.93961,0.011075,0.043966,-0.031016,0.000563,-0.005578,0.00408,0.120759,0.307339,-0.943907,-0.12105441668803874
1760630304.596894,-0.167109,0.011547,0.298202,0.93969,0.018934,0.05188,-0.028459,0.002282,-0.00456,0.00824,0.121366,0.307174,-0.943883,-0.12166589780088607
1760630304.628836,-0.167056,0.011936,0.29797,0.939768,0.027812,0.057469,-0.026433,0.001831,-0.001787,0.009202,0.12199,0.306875,-0.9439,-0.12229454760258697
1760630304.629149,-0.167003,0.012325,0.297738,0.939846,0.03669,0.063058,-0.024408,0.001381,0.000985,0.010164,0.122614,0.306575,-0.943916,-0.12292334107059207
1760630304.65846,-0.166855,0.013443,0.297185,0.940032,0.015397,0.065768,-0.022606,0.004255,0.006049,0.007002,0.124447,0.305708,-0.943957,-0.1247705258228544
1760630304.691201,-0.166919,0.013786,0.296968,0.940084,0.006171,0.058943,-0.029754,0.005418,0.009986,0.007148,0.125058,0.305647,-0.943896,-0.125386337106665
1760630304.691468,-0.166982,0.014128,0.296751,0.940136,-0.003056,0.052118,-0.036902,0.006581,0.013922,0.007294,0.125669,0.305586,-0.943835,-0.12600214796444462
1760630304.750629,-0.167613,0.015581,0.294828,0.940606,0.022721,0.066114,-0.075717,0.010286,-0.000623,-0.005538,0.128145,0.306128,-0.943326,-0.12849836820499008
1760630304.750925,-0.167522,0.016165,0.294065,0.940851,0.036111,0.062409,-0.067056,0.008054,-0.000662,-0.00532,0.128942,0.305719,-0.94335,-0.12930204013257743
1760630304.792608,-0.167419,0.01676,0.29334,0.941085,0.041495,0.059232,-0.058462,0.007574,-0.001889,-0.009114,0.129766,0.305278,-0.94338,-0.13013300049545626
1760630304.792934,-0.167174,0.017233,0.292755,0.941302,0.039229,0.025004,-0.046774,0.005162,-0.002202,-0.011974,0.130324,0.304633,-0.943512,-0.13069572659548812
1760630304.825358,-0.166839,0.017465,0.292367,0.941478,0.046337,0.006391,-0.021502,0.006577,-0.008796,-0.004406,0.130442,0.303938,-0.94372,-0.13081471898358424
1760630304.826595,-0.166384,0.017654,0.292288,0.94158,0.052483,-0.003189,0.003424,0.006997,-0.008613,-0.000773,0.13051,0.303008,-0.944009,-0.13088338170431327
1760630304.85745,-0.165864,0.017784,0.292437,0.941623,0.052353,-0.015858,0.026818,0.004563,-0.008035,-0.002103,0.130501,0.301962,-0.944345,-0.13087434755506486
1760630304.899947,-0.16524,0.017784,0.292949,0.941573,0.052492,-0.028329,0.04296,0.004217,-0.006421,-0.000616,0.130304,0.300751,-0.944759,-0.13067559659991287
1760630304.900297,-0.164615,0.017784,0.293461,0.941523,0.05263,-0.0408,0.059102,0.003872,-0.004807,0.000869,0.130105,0.29954,-0.945171,-0.13047489603140763
1760630304.906785,-0.163981,0.017648,0.294088,0.941441,0.041895,-0.048058,0.058826,0.003929,-0.000447,0.00209,0.129679,0.298376,-0.945598,-0.13004520929579935
1760630304.937145,-0.163462,0.017408,0.294725,0.941337,0.028643,-0.055681,0.05683,0.003354,0.001876,0.004379,0.129126,0.297484,-0.945954,-0.12948760078182794
1760630304.967153,-0.163037,0.017036,0.295349,0.941222,0.0164,-0.061857,0.052926,0.00174,0.004582,0.008476,0.128375,0.296845,-0.946257,-0.12873028576565437
1760630304.967436,-0.162774,0.016568,0.295909,0.941099,-0.000166,-0.066241,0.039057,0.000596,0.005846,0.003252,0.127518,0.296567,-0.94646,-0.12786618652289652
1760630304.995682,-0.162622,0.015956,0.296368,0.940992,-0.010599,-0.080634,0.030007,-0.000591,0.004626,-0.002489,0.12642,0.296593,-0.946599,-0.12675924412097062
1760630305.03165,-0.16257,0.015144,0.296758,0.940891,-0.024763,-0.094906,0.027054,-0.001187,-0.000603,-0.006984,0.124986,0.296933,-0.946683,-0.1253137577212703
1760630305.032909,-0.162598,0.014192,0.29726,0.940743,-0.029759,-0.107562,0.042886,-0.001773,-0.006374,-0.006473,0.12337,0.297489,-0.946721,-0.12368508290221014
1760630305.063938,-0.162626,0.013178,0.297967,0.940529,-0.031996,-0.110231,0.064933,-0.002036,-0.00505,-0.004153,0.121704,0.298055,-0.946759,-0.12200638755834899
1760630305.065875,-0.162601,0.012176,0.298877,0.940258,-0.025069,-0.113413,0.089012,-0.003384,-0.002609,-0.002798,0.120093,0.298495,-0.946825,-0.12038360978678676
1760630305.123717,-0.162406,0.011248,0.299975,0.939954,-0.018442,-0.108831,0.09066,-0.003194,0.001542,2.7e-05,0.11858,0.29856,-0.946996,-0.11885962713504934
1760630305.124042,-0.16221,0.010319,0.301073,0.939647,-0.011816,-0.104249,0.092308,-0.003004,0.005691,0.00285,0.117066,0.298627,-0.947163,-0.11733503342537537
1760630305.125633,-0.161918,0.009496,0.302118,0.93937,-0.001958,-0.095278,0.086625,-0.003056,0.006548,0.006182,0.115678,0.298465,-0.947385,-0.11593749121571532
1760630305.154178,-0.161498,0.008798,0.303076,0.939141,0.024075,-0.086668,0.080966,-0.002227,0.005645,0.005801,0.114417,0.298005,-0.947682,-0.11466816019594121
1760630305.185084,-0.16092,0.008319,0.303896,0.93898,0.047794,-0.062994,0.068161,-0.003092,0.00398,0.008761,0.113429,0.297144,-0.948071,-0.11367369038732923
1760630305.187106,-0.160198,0.008048,0.3046,0.938877,0.072914,-0.049494,0.06104,-0.004267,0.002155,0.006115,0.112705,0.29591,-0.948544,-0.11294492954301603
1760630305.215396,-0.15933,0.007973,0.305222,0.938824,0.088309,-0.034745,0.055195,-0.003304,0.000526,0.00272,0.112233,0.294299,-0.949101,-0.11246991641258806
1760630305.246277,-0.158504,0.008,0.305679,0.938815,0.082057,-0.024754,0.040364,-0.001662,-4.5e-05,0.000958,0.111924,0.29272,-0.949625,-0.11215902685763098
1760630305.248277,-0.157735,0.008078,0.306069,0.938817,0.077458,-0.022503,0.043879,-0.001963,-0.001505,0.00156,0.111722,0.291223,-0.950109,-0.11195574448115933
1760630305.276701,-0.157028,0.008184,0.306528,0.938784,0.067095,-0.01569,0.04701,-0.002135,-0.00148,0.002221,0.111633,0.289813,-0.950551,-0.1118661307340154
1760630305.284384,-0.15649,0.00832,0.306987,0.938723,0.053466,-0.013017,0.047595,-0.004512,-0.000213,-0.000211,0.111701,0.288693,-0.950883,-0.11193464095541886
1760630305.313789,-0.156,0.008354,0.307458,0.93865,0.041516,-0.022979,0.049509,-0.004995,-0.001277,-0.002385,0.11161,0.287723,-0.951188,-0.11184302974459505
1760630305.345066,-0.155626,0.008289,0.307966,0.938546,0.027376,-0.025386,0.049703,-0.003328,-0.001508,-0.000856,0.111415,0.287019,-0.951423,-0.11164686165227217
1760630305.346984,-0.155386,0.008214,0.308467,0.938422,0.010609,-0.023064,0.042619,-0.002466,0.00164,-0.000619,0.111279,0.286568,-0.951575,-0.1115099948178359
1760630305.375933,-0.15525,0.008038,0.308918,0.938298,0.005774,-0.025472,0.043674,-0.002664,-0.00018,0.000154,0.111004,0.286375,-0.951666,-0.11123319718623137
1760630305.383109,-0.155159,0.007867,0.309368,0.938166,0.001709,-0.01768,0.044967,-0.002463,-0.001668,0.004392,0.110764,0.286262,-0.951727,-0.11099180981003691
1760630305.424921,-0.155069,0.00784,0.30989,0.938009,0.00946,-0.009353,0.056751,-0.001898,-0.001923,0.00451,0.110816,0.286053,-0.951784,-0.11104410917124787
1760630305.426919,-0.154899,0.007895,0.310508,0.937832,0.016963,-0.004192,0.070247,-0.002042,-0.002093,0.00257,0.111003,0.285636,-0.951888,-0.11123221046689874
1760630305.455687,-0.154651,0.008015,0.311186,0.937647,0.026336,-0.002442,0.072865,-0.003412,-0.002584,0.002257,0.111281,0.285028,-0.952038,-0.1115119199708781
1760630305.463162,-0.154372,0.008193,0.311826,0.937479,0.030442,0.000696,0.060941,-0.004094,-0.002819,0.000178,0.111637,0.284331,-0.952204,-0.1118702294925057
1760630305.493125,-0.154015,0.008332,0.312373,0.937354,0.037426,-0.008253,0.045993,-0.002767,-0.003446,-0.001617,0.111841,0.283528,-0.95242,-0.11207545900450348
1760630305.521887,-0.153631,0.008438,0.312738,0.937295,0.035693,1.2e-05,0.032727,-0.002201,-0.001935,0.002442,0.111909,0.282717,-0.952653,-0.11214389576193248
1760630305.522206,-0.153332,0.008636,0.313006,0.937252,0.028399,0.015052,0.023417,-0.002973,-0.001303,0.003116,0.112176,0.282015,-0.952829,-0.11241265791620123
1760630305.552716,-0.153136,0.008884,0.313158,0.937231,0.023667,0.014733,0.014343,-0.001139,-0.003722,0.001017,0.112563,0.281483,-0.952941,-0.11280208859234454
1760630305.581568,-0.152895,0.009107,0.313269,0.937231,0.03102,0.017507,0.012681,-0.002774,-0.003396,-0.000817,0.112865,0.28089,-0.953081,-0.11310594398242833
1760630305.592891,-0.152659,0.009316,0.313354,0.937239,0.025005,0.015586,0.007262,-0.003858,-0.000244,0.000787,0.113134,0.280317,-0.953217,-0.11337676448719598
1760630305.622686,-0.152472,0.009563,0.313372,0.937262,0.028651,0.022356,0.003717,-0.001304,-0.000187,0.002379,0.113486,0.279819,-0.953322,-0.1137309886202572
1760630305.623012,-0.15227,0.009914,0.313361,0.937294,0.03291,0.026236,-0.000976,1.1e-05,6e-05,0.002645,0.114015,0.27923,-0.953431,-0.11426350733318284
1760630305.652357,-0.151996,0.01033,0.313288,0.937359,0.041712,0.038699,0.000435,0.00031,0.001229,0.004803,0.114604,0.278477,-0.953581,-0.11485635020478775
1760630305.681744,-0.15177,0.010842,0.313153,0.937434,0.034213,0.049679,-0.011137,-0.000369,0.002941,0.00373,0.115383,0.277759,-0.953696,-0.11564060348806833
1760630305.685506,-0.151605,0.01142,0.312941,0.937525,0.040191,0.055898,-0.018413,0.000169,0.000174,0.001362,0.1163,0.277119,-0.953771,-0.11656379625767686
1760630305.725122,-0.151411,0.012027,0.312654,0.937645,0.043496,0.054542,-0.023489,-0.000216,0.000523,-0.000233,0.117233,0.276418,-0.95386,-0.11750324413991203
1760630305.726892,-0.151186,0.012623,0.312321,0.937784,0.044645,0.056675,-0.026991,2.9e-05,0.000707,0.001557,0.118112,0.275674,-0.953967,-0.11838837923392878
1760630305.755356,-0.15103,0.013233,0.311913,0.937937,0.036559,0.060111,-0.032141,-0.000339,0.001184,0.000329,0.11904,0.275058,-0.95403,-0.11932291127692332
1760630305.760223,-0.150908,0.013812,0.311517,0.93808,0.033335,0.055703,-0.03274,0.000715,-0.002387,-0.000477,0.119935,0.274521,-0.954072,-0.12022443582258309
1760630305.793213,-0.150766,0.014388,0.311171,0.938209,0.034008,0.055226,-0.024132,0.001269,-0.003016,0.001539,0.120826,0.273946,-0.954125,-0.12112194574317191
1760630305.823304,-0.150666,0.0149,0.310863,0.938319,0.028069,0.054274,-0.020303,0.000599,-0.001642,0.000298,0.121635,0.273482,-0.954156,-0.1219368773201758
1760630305.823621,-0.15059,0.015437,0.310579,0.938416,0.026316,0.050354,-0.020409,0.000914,-0.002993,-0.000499,0.122514,0.273044,-0.954168,-0.12282261598018988
1760630305.853282,-0.150468,0.015961,0.310318,0.938514,0.029609,0.043697,-0.020692,0.00259,-0.000931,-0.001585,0.123345,0.272526,-0.954209,-0.12365997057186857
1760630305.860552,-0.150311,0.016436,0.310078,0.93861,0.031691,0.045329,-0.016526,0.001575,-0.000991,-0.000415,0.124069,0.271974,-0.954273,-0.12438953094632248
1760630305.890676,-0.150139,0.016892,0.309875,0.938696,0.030803,0.033197,-0.017263,0.00037,-0.000742,-0.000636,0.124762,0.271401,-0.954346,-0.12508793151154357
1760630305.921023,-0.149922,0.017259,0.309679,0.938789,0.033169,0.024649,-0.015139,0.001294,-0.002732,-0.003069,0.125261,0.270801,-0.954451,-0.12559088547608455
1760630305.921366,-0.149709,0.017543,0.309467,0.938888,0.024727,0.01294,-0.015242,0.001817,-0.004166,-0.003487,0.125601,0.270262,-0.954559,-0.1259336025777332
1760630305.949171,-0.149544,0.017719,0.309328,0.938956,0.016346,0.008659,-0.009371,0.005199,-0.005143,-0.001088,0.12579,0.269868,-0.954646,-0.12612406266292686
1760630306.018174,-0.149492,0.017871,0.309325,0.938963,0.012196,0.004879,-0.002542,0.00423,-0.004903,-0.001441,0.126043,0.269679,-0.954666,-0.12637909710232084
1760630306.018494,-0.149441,0.018023,0.309322,0.938969,0.008045,0.001099,0.004286,0.003262,-0.004663,-0.001794,0.126296,0.269491,-0.954685,-0.12663421431283184
1760630306.01881,-0.149389,0.018175,0.309318,0.938975,0.003895,-0.002681,0.011115,0.002293,-0.004423,-0.002147,0.126548,0.269302,-0.954705,-0.12688824800588175
1760630306.019194,-0.149299,0.018149,0.309439,0.938951,0.00335,-0.014493,0.011454,0.000989,-0.003522,-0.002063,0.126481,0.269137,-0.954761,-0.1268206329289622
1760630306.062396,-0.149242,0.01805,0.309591,0.938911,3.3e-05,-0.022272,0.012305,0.002487,-0.006626,0.001489,0.126302,0.269074,-0.954802,-0.1266402408519136
1760630306.06453,-0.149153,0.017909,0.309749,0.938876,0.00135,-0.021464,0.015717,0.002887,-0.008244,0.000775,0.126028,0.268979,-0.954865,-0.1263640302072454
1760630306.093329,-0.149012,0.017774,0.309979,0.938825,0.004427,-0.021675,0.021865,0.001788,-0.005003,0.000688,0.125755,0.268774,-0.954959,-0.12608880610353324
1760630306.099303,-0.148855,0.017631,0.310253,0.938762,0.004332,-0.024435,0.025302,0.000458,-0.003716,0.000816,0.125468,0.26854,-0.955062,-0.1257995844196446
1760630306.129599,-0.148716,0.017477,0.310514,0.938701,0.005372,-0.023111,0.024218,-0.000612,-0.003224,0.001576,0.125167,0.268346,-0.955156,-0.12549619489469596
1760630306.158084,-0.148549,0.017351,0.310776,0.938643,0.002694,-0.021287,0.021938,-0.000593,-0.001168,0.000914,0.124904,0.268084,-0.955264,-0.12523111376882576
1760630306.158355,-0.148448,0.017178,0.310998,0.938589,0.001002,-0.025491,0.015831,-0.001432,7.8e-05,0.003443,0.124579,0.267979,-0.955336,-0.12490354297280225
1760630306.189994,-0.148265,0.017037,0.311186,0.938557,0.016727,-0.02193,0.016389,-0.003261,-0.001039,0.002122,0.124258,0.267707,-0.955454,-0.12458003603046922
1760630306.219427,-0.147949,0.016854,0.311309,0.93857,0.019314,-0.022546,0.009932,-0.003382,-0.003123,0.004005,0.123752,0.267227,-0.955654,-0.12407010246603253
1760630306.221152,-0.147695,0.016785,0.311457,0.938562,0.020357,-0.007608,0.009778,0.000719,-0.005951,0.006242,0.123509,0.266786,-0.955809,-0.1238251806584899
1760630306.250446,-0.147513,0.016843,0.311534,0.938564,0.011321,0.004036,0.010646,-0.001078,-0.004866,0.002155,0.123527,0.266407,-0.955912,-0.12384336476045583
1760630306.256969,-0.147377,0.016914,0.311657,0.938543,0.011634,0.003881,0.01452,-0.00201,-0.00369,-0.000691,0.123611,0.266096,-0.955988,-0.12392798516376201
1760630306.286979,-0.147294,0.016998,0.311798,0.938508,0.003793,0.002617,0.01212,-0.000982,-0.000515,0.000103,0.123758,0.265873,-0.956031,-0.12407612569460644
1760630306.322891,-0.147298,0.017039,0.311862,0.938486,-0.004972,-0.001585,0.001554,0.000251,-0.000615,0.000649,0.123855,0.265846,-0.956026,-0.12417387142267168
1760630306.324773,-0.147348,0.017054,0.311881,0.938471,-0.013035,-0.002961,0.000853,0.000735,-0.001867,0.000678,0.123919,0.265927,-0.955995,-0.12423838961300966
1760630306.35426,-0.147468,0.016914,0.311909,0.938445,-0.019306,-0.003594,0.000409,0.002307,-0.004902,0.00394,0.12374,0.26623,-0.955934,-0.1240579834463851
1760630306.356206,-0.147642,0.016811,0.311898,0.938424,-0.01987,-0.007935,0.002001,0.00219,-0.006492,0.000131,0.123651,0.266615,-0.955838,-0.12396831973043268
1760630306.38545,-0.14783,0.016657,0.311958,0.938377,-0.02156,-0.012896,0.006631,0.001865,-0.015141,-0.000886,0.123495,0.267048,-0.955738,-0.12381102992900588
1760630306.416091,-0.148105,0.016423,0.311996,0.938325,-0.045165,-0.018043,0.002418,0.003659,-0.021899,-0.009079,0.123237,0.267694,-0.95559,-0.12355111174416446
1760630306.418227,-0.148366,0.016018,0.312088,0.93826,-0.03173,-0.03647,0.012128,0.007632,-0.030069,-0.001879,0.122666,0.268414,-0.955462,-0.12297568606221279
1760630306.458816,-0.148475,0.015693,0.312327,0.938169,-0.025599,-0.03622,0.02383,0.00916,-0.036926,-0.000274,0.122191,0.268787,-0.955418,-0.1224970864718709
1760630306.460731,-0.148549,0.015371,0.312628,0.938062,-0.044436,-0.025045,0.020664,0.010078,-0.046136,-0.000644,0.121719,0.269086,-0.955394,-0.12202154681537697
1760630306.495466,-0.148872,0.014953,0.31291,0.937923,-0.074163,-0.043692,0.017764,0.011291,-0.054472,0.002384,0.121216,0.269904,-0.955227,-0.12151481761085112
1760630306.525525,-0.14904,0.014554,0.313244,0.937792,-0.046552,-0.040358,0.026042,0.012601,-0.070549,0.012498,0.120669,0.27042,-0.95515,-0.12096380934264933
1760630306.555815,-0.148977,0.014334,0.313664,0.937665,-0.014807,-0.030501,0.040432,0.014223,-0.08265,0.018299,0.120338,0.270389,-0.955201,-0.12063032561009143
1760630306.586217,-0.148654,0.014285,0.314186,0.937542,0.014731,-0.022496,0.053821,0.014369,-0.089247,0.022373,0.120195,0.269762,-0.955396,-0.12048631064437504
1760630306.586473,-0.148159,0.014427,0.314793,0.937414,0.019929,-0.012777,0.060171,0.013946,-0.093417,0.025934,0.120327,0.26869,-0.955681,-0.12061932504450736
1760630306.626475,-0.147786,0.014566,0.315486,0.937238,0.005499,-0.01746,0.068436,0.010816,-0.094053,0.029656,0.120553,0.26783,-0.955894,-0.12084697038646636
1760630306.626807,-0.147412,0.014706,0.316179,0.937062,-0.008932,-0.022143,0.0767,0.007688,-0.094688,0.033377,0.120778,0.266969,-0.956107,-0.12107356005848294
1760630306.657386,-0.147221,0.014644,0.317004,0.936814,-0.031246,-0.043786,0.091974,0.004383,-0.096711,0.030869,0.120777,0.266553,-0.956223,-0.12107257436710235
1760630306.667171,-0.14729,0.014366,0.318083,0.936441,-0.067143,-0.052914,0.119819,0.004532,-0.094091,0.024859,0.120607,0.266718,-0.956199,-0.12090125834991167
1760630306.698576,-0.147644,0.01389,0.319454,0.935926,-0.104822,-0.070922,0.146548,0.00319,-0.081578,0.019787,0.120331,0.267494,-0.956016,-0.12062334795539606
1760630306.700625,-0.148382,0.013055,0.321142,0.935243,-0.166747,-0.093461,0.169046,-0.002097,-0.057365,0.019332,0.119722,0.269161,-0.955625,-0.12000985509841085
1760630306.729372,-0.149724,0.011775,0.322982,0.934412,-0.254347,-0.122054,0.170605,-0.007246,-0.034028,0.017105,0.118722,0.272202,-0.954888,-0.11900268389923628
1760630306.731866,-0.151815,0.00985,0.324752,0.933483,-0.355117,-0.15151,0.142244,-0.011354,-0.015002,0.021783,0.116995,0.277037,-0.95371,-0.11726355327712042
1760630306.760836,-0.154741,0.007384,0.326253,0.932502,-0.444118,-0.166919,0.111484,-0.011782,-0.003493,0.015189,0.114741,0.283775,-0.952001,-0.11499429389993131
1760630306.79248,-0.158421,0.004395,0.327479,0.931472,-0.529999,-0.191836,0.071888,-0.01111,0.011506,0.009981,0.111947,0.29225,-0.949767,-0.11218217644365223
1760630306.794521,-0.162845,0.000879,0.328337,0.930417,-0.608609,-0.200801,0.03063,-0.010687,0.025207,0.001616,0.108572,0.302451,-0.946961,-0.10878646573223312
1760630306.823126,-0.167988,-0.00311,0.328741,0.929354,-0.687051,-0.221123,-0.028618,-0.012433,0.039936,-0.007268,0.104669,0.314286,-0.94354,-0.1048611185382646
1760630306.856251,-0.173706,-0.007611,0.328579,0.928334,-0.75252,-0.236291,-0.08537,-0.016212,0.046234,-0.01355,0.100021,0.327516,-0.939537,-0.10018849153967031
1760630306.856552,-0.179938,-0.012567,0.327987,0.927302,-0.810549,-0.264244,-0.129893,-0.018283,0.053769,-0.025668,0.094728,0.341958,-0.934928,-0.09487029310495523
1760630306.884125,-0.186622,-0.018207,0.326999,0.926236,-0.87373,-0.308914,-0.174372,-0.017377,0.06141,-0.025359,0.088323,0.357619,-0.929682,-0.08843819801301374
1760630306.923763,-0.193878,-0.024641,0.325313,0.925189,-0.896954,-0.321148,-0.223128,-0.013654,0.062699,-0.017132,0.080548,0.37478,-0.923608,-0.08063536369269116
1760630306.924066,-0.201115,-0.031072,0.323595,0.924053,-0.920178,-0.333382,-0.271885,-0.009894,0.064137,-0.009264,0.072735,0.391792,-0.917174,-0.07279930410906046
1760630306.95281,-0.208325,-0.03757,0.321388,0.922984,-0.895229,-0.315982,-0.300838,-0.004884,0.062708,-0.003773,0.064554,0.40871,-0.910378,-0.06459894572607647
1760630306.95491,-0.215299,-0.043799,0.318819,0.921999,-0.859955,-0.288096,-0.322539,-0.00378,0.064061,-0.004267,0.056518,0.424939,-0.903456,-0.056548127276055744
1760630306.984091,-0.222033,-0.049663,0.316048,0.921058,-0.830647,-0.258991,-0.329863,-0.002073,0.067475,0.001327,0.048862,0.440403,-0.89647,-0.04888144533306358
1760630306.992187,-0.228751,-0.055191,0.313065,0.920118,-0.834327,-0.218501,-0.345076,-0.000189,0.07139,0.011669,0.041663,0.455513,-0.889254,-0.04167505057535876
1760630307.022044,-0.235701,-0.060362,0.309792,0.919147,-0.849014,-0.169925,-0.355307,0.002879,0.06783,0.018954,0.035074,0.470686,-0.881603,-0.03508120671997034
1760630307.034646,-0.24282,-0.0651,0.306353,0.918122,-0.845569,-0.118118,-0.351235,0.003639,0.059149,0.018369,0.029238,0.485764,-0.873601,-0.02924216395289475
1760630307.062837,-0.250017,-0.069354,0.302861,0.917037,-0.837592,-0.078277,-0.340299,0.002985,0.052521,0.013698,0.024241,0.500559,-0.865363,-0.024243374003857114
1760630307.070639,-0.257272,-0.073288,0.299397,0.915861,-0.83562,-0.053829,-0.317493,0.003075,0.043172,0.015031,0.019809,0.515136,-0.85688,-0.01981028750962073
1760630307.100627,-0.264582,-0.076872,0.29616,0.914536,-0.827104,-0.032345,-0.276034,0.003375,0.037503,0.014073,0.016113,0.529473,-0.848174,-0.016113693924126718
1760630307.130109,-0.271875,-0.080187,0.29322,0.913059,-0.826026,-0.019723,-0.239413,0.002985,0.037734,0.012407,0.013008,0.5435,-0.839308,-0.013008370923823408
1760630307.130399,-0.279175,-0.083373,0.290496,0.91144,-0.825431,-0.019154,-0.218458,0.000476,0.033327,0.013456,0.010219,0.557342,-0.83022,-0.010219178983959222
1760630307.15993,-0.286292,-0.086431,0.288024,0.90973,-0.787952,-0.021482,-0.184618,0.001281,0.027895,0.014589,0.00766,0.570685,-0.821133,-0.0076600770234148624
1760630307.19001,-0.293013,-0.089268,0.285865,0.907995,-0.742833,-0.028701,-0.15252,-0.002112,0.024315,0.011694,0.005414,0.583147,-0.812349,-0.00541402473596839
1760630307.190725,-0.299249,-0.091917,0.284088,0.906254,-0.680921,-0.038577,-0.113555,-0.005777,0.021214,0.008445,0.003426,0.594615,-0.804003,-0.0034260074563556412
1760630307.236044,-0.304807,-0.094371,0.282781,0.904556,-0.598486,-0.050217,-0.06556,-0.006081,0.016951,0.008621,0.001659,0.604803,-0.796374,-0.0016589999572488201
1760630307.238129,-0.309586,-0.096456,0.282012,0.902952,-0.508668,-0.048699,-0.023112,-0.00637,0.017214,0.008198,0.000423,0.613486,-0.789706,-0.00042299983970043453
1760630307.278995,-0.313086,-0.097991,0.281983,0.901588,-0.409046,-0.05588,0.010557,-0.007099,0.019469,0.00629,-0.000125,0.619812,-0.78475,0.0001250000319837206
1760630307.279335,-0.316581,-0.099524,0.28195,0.900209,-0.309424,-0.06306,0.044226,-0.007836,0.021763,0.004331,-0.000665,0.626099,-0.779743,0.0006650001999434279
1760630307.308069,-0.319135,-0.100653,0.282359,0.899052,-0.247278,-0.060885,0.074552,-0.012037,0.026569,-0.001023,-0.000763,0.630678,-0.776044,0.0007630002221350933
1760630307.309207,-0.320999,-0.101639,0.283075,0.898052,-0.184998,-0.07358,0.08712,-0.013603,0.033338,0.003515,-0.00082,0.634091,-0.773258,0.000820000090564244
1760630307.347535,-0.322308,-0.102512,0.283912,0.897219,-0.140876,-0.070889,0.085732,-0.011808,0.0365,0.00955,-0.000938,0.636572,-0.771217,0.0009379999255061054
1760630307.349519,-0.323286,-0.103288,0.284744,0.896515,-0.099087,-0.06966,0.079011,-0.011463,0.03636,0.014229,-0.001091,0.638483,-0.769635,0.0010910003447373042
1760630307.383675,-0.323971,-0.103975,0.285507,0.895945,-0.068322,-0.062804,0.06715,-0.010071,0.035412,0.018073,-0.001319,0.639892,-0.768464,0.0013190000983971043
1760630307.389636,-0.32451,-0.10461,0.286081,0.895493,-0.055051,-0.046602,0.042226,-0.007896,0.034692,0.021074,-0.001683,0.641047,-0.7675,0.0016830005094994789
1760630307.417907,-0.325026,-0.105119,0.286389,0.895148,-0.042983,-0.028175,0.021316,-0.005269,0.02972,0.019708,-0.002026,0.642102,-0.766617,0.002026000669043735
1760630307.459954,-0.325453,-0.105465,0.286346,0.894966,-0.032436,-0.016104,0.005585,-0.003568,0.022772,0.018963,-0.002392,0.642937,-0.765915,0.002392002885194377
1760630307.460249,-0.32588,-0.105812,0.286303,0.894783,-0.021889,-0.004032,-0.010147,-0.001867,0.015825,0.018217,-0.002757,0.643772,-0.765213,0.0027570022184018454
1760630307.525259,-0.326226,-0.105975,0.286169,0.89468,-0.023893,-0.0048,-0.007559,0.000263,0.011588,0.014477,-0.002917,0.64439,-0.764691,0.0029170051482723764
1760630307.525605,-0.326573,-0.106139,0.286035,0.894578,-0.025898,-0.005567,-0.004972,0.002394,0.007352,0.010736,-0.003076,0.645008,-0.76417,0.0030760039729559193
1760630307.525955,-0.326919,-0.106302,0.285901,0.894474,-0.027902,-0.006335,-0.002385,0.004525,0.003115,0.006994,-0.003236,0.645625,-0.763648,0.0032360050325542277
1760630307.527324,-0.327322,-0.106442,0.285845,0.894328,-0.029069,0.001354,0.004343,0.006383,0.000479,0.00588,-0.003262,0.646318,-0.763061,0.0032620062946994276
1760630307.556322,-0.327658,-0.10651,0.285881,0.894186,-0.017254,-0.000699,0.015734,0.00389,-0.000685,0.001598,-0.003137,0.646872,-0.762592,0.0031370054845033034
1760630307.587691,-0.327897,-0.106552,0.286049,0.894039,-0.014979,-0.011329,0.026131,0.001909,-0.001013,-0.00206,-0.002934,0.647265,-0.76226,0.0029340028948000884
1760630307.588519,-0.328078,-0.106694,0.286355,0.893858,-0.021649,-0.025156,0.02817,0.000709,-0.000376,-0.000765,-0.002844,0.647615,-0.761962,0.002844004735430183
1760630307.618642,-0.328232,-0.10691,0.286713,0.893661,-0.015074,-0.036488,0.031381,0.000946,-0.00175,0.000577,-0.002866,0.647962,-0.761668,0.002866002333451086
1760630307.648088,-0.328281,-0.10711,0.287116,0.893489,-0.008381,-0.0328,0.034184,0.001904,-0.000123,0.002608,-0.002894,0.648137,-0.761518,0.002894004603527185
1760630307.651849,-0.328295,-0.107266,0.287536,0.893331,-0.006016,-0.026838,0.03589,0.001494,0.00254,0.002923,-0.002854,0.648237,-0.761434,0.0028540023192613426
1760630307.684742,-0.328303,-0.107397,0.287937,0.893183,-0.006571,-0.026996,0.031471,-0.00046,0.005239,0.003676,-0.002789,0.648316,-0.761367,0.002789002049608192
1760630307.685916,-0.328337,-0.107507,0.288268,0.89305,-0.009413,-0.021372,0.025496,-0.001166,0.006214,0.003948,-0.00272,0.648425,-0.761274,0.0027200026982929513
1760630307.716134,-0.328418,-0.107608,0.288524,0.892926,-0.011191,-0.015838,0.01787,-0.001972,0.007322,0.002284,-0.002659,0.6486,-0.761125,0.0026590027399145014
1760630307.74549,-0.328539,-0.107732,0.288689,0.892813,-0.011522,-0.010925,0.006791,-0.002122,0.00776,0.002578,-0.002678,0.64885,-0.760912,0.0026780024431919676
1760630307.747412,-0.328683,-0.107872,0.288734,0.892728,-0.013748,-0.005141,-0.001555,-0.001406,0.006743,0.004905,-0.002796,0.649142,-0.760662,0.0027960038778532675
1760630307.776852,-0.328811,-0.107985,0.288699,0.892679,-0.010055,-0.005447,-0.006873,-0.002093,0.005602,0.002689,-0.002937,0.649396,-0.760445,0.0029370036514584346
1760630307.850583,-0.328849,-0.108086,0.288573,0.892693,-0.005086,-0.00402,-0.006824,-0.002207,0.004596,0.002401,-0.003181,0.649504,-0.760351,0.0031810066243723304
1760630307.850918,-0.328887,-0.108187,0.288447,0.892708,-0.000117,-0.002594,-0.006775,-0.002322,0.00359,0.002112,-0.003426,0.649613,-0.760257,0.0034260075701269977
1760630307.851236,-0.328925,-0.108288,0.288321,0.892722,0.004852,-0.001168,-0.006727,-0.002436,0.002584,0.001823,-0.003671,0.649721,-0.760164,0.0036710079497863793
1760630307.8515,-0.328912,-0.108382,0.288255,0.892737,0.001859,-0.006141,-0.003852,-0.002907,0.003076,0.000816,-0.003892,0.649747,-0.760141,0.003892008557918625
1760630307.87954,-0.328913,-0.108515,0.28826,0.892719,-0.00165,-0.012549,-0.002271,-0.003934,0.002458,0.002063,-0.004122,0.649816,-0.760081,0.0041220097121799385
1760630307.885655,-0.328928,-0.108673,0.288301,0.892681,0.000203,-0.011701,0.005196,-0.003259,0.000623,0.005233,-0.00436,0.649917,-0.759993,0.004360012774898492
1760630307.915663,-0.328878,-0.108709,0.288447,0.892648,0.013341,-0.011204,0.01519,-0.003839,0.001242,0.003957,-0.00435,0.649858,-0.760043,0.004350014361619766
1760630307.946295,-0.328747,-0.108726,0.288653,0.892627,0.008798,-0.011002,0.016902,-0.00423,0.004834,0.004835,-0.004316,0.649665,-0.760208,0.004316014601023254
1760630307.946605,-0.328668,-0.108771,0.288853,0.892586,0.006141,-0.007358,0.017458,-0.002743,0.00603,0.006301,-0.004301,0.649566,-0.760293,0.004301013405026244
1760630307.974138,-0.328665,-0.108784,0.288982,0.892544,-0.003094,-0.003984,0.006331,-0.001942,0.00752,0.006662,-0.004233,0.64957,-0.76029,0.004233012668357894
1760630308.014982,-0.328745,-0.108808,0.28895,0.892522,-0.001389,0.000181,0.001255,-0.001418,0.007923,0.006666,-0.004246,0.649704,-0.760176,0.004246010917397648
1760630308.01538,-0.328824,-0.108831,0.288917,0.892501,0.000317,0.004345,-0.003822,-0.000893,0.008327,0.00667,-0.004258,0.649838,-0.760061,0.004258012269510366
1760630308.044139,-0.328904,-0.10884,0.288839,0.892495,-0.002606,0.00651,-0.006851,-0.001515,0.008192,0.00583,-0.004278,0.649965,-0.759953,0.004278010129767431
1760630308.046128,-0.329032,-0.108853,0.288706,0.89249,-0.008377,0.006566,-0.011892,-0.000866,0.005881,0.006048,-0.004314,0.650168,-0.759779,0.00431401086246458
1760630308.075235,-0.329167,-0.108875,0.288582,0.892477,-0.000229,0.004744,-0.002041,-0.000965,0.005089,0.004195,-0.004354,0.650387,-0.759591,0.004354012245161344
1760630308.127402,-0.329211,-0.10884,0.288624,0.892452,0.001099,0.001967,0.004471,-0.001409,0.00511,0.004219,-0.004233,0.650437,-0.759548,0.004233013967323349
1760630308.127852,-0.329255,-0.108805,0.288666,0.892426,0.002427,-0.00081,0.010983,-0.001854,0.005131,0.004243,-0.004112,0.650488,-0.759505,0.00411201283872621
1760630308.128614,-0.329267,-0.108799,0.288788,0.892383,0.004824,-0.006152,0.015792,-0.001317,0.004321,0.002189,-0.004004,0.650505,-0.759491,0.004004011967810394
1760630308.158488,-0.329247,-0.108807,0.288976,0.892329,0.005047,-0.006793,0.016193,-0.001587,0.003424,0.0022,-0.003894,0.650477,-0.759516,0.0038940097533507654
1760630308.170657,-0.329184,-0.108828,0.289142,0.892295,0.007857,-0.011312,0.015091,-0.001155,0.003341,0.001107,-0.003851,0.650392,-0.759589,0.0038510094554509555
1760630308.200898,-0.329116,-0.108943,0.289289,0.892259,0.002976,-0.013398,0.006556,-0.000383,0.004589,0.002669,-0.003991,0.650345,-0.759628,0.003991012100542034
1760630308.202254,-0.329126,-0.109045,0.289344,0.892225,0.002804,-0.007199,-0.002439,0.000467,0.003022,0.003097,-0.004124,0.650412,-0.759571,0.004124009872857671
1760630308.241022,-0.329083,-0.109134,0.289347,0.892229,0.006496,-0.011743,-0.004121,-0.002362,0.001044,0.000169,-0.004308,0.65039,-0.759588,0.0043080140992979975
1760630308.24223,-0.328995,-0.10925,0.289336,0.892251,0.006472,-0.015443,-0.006355,-0.002023,0.002489,0.000665,-0.004577,0.650311,-0.759654,0.004577017021133152
1760630308.272412,-0.328913,-0.109412,0.289278,0.89228,0.002431,-0.014514,-0.017829,-0.000379,0.004471,-0.00056,-0.004957,0.650266,-0.759691,0.0049570181738761415
1760630308.312755,-0.328839,-0.10951,0.28909,0.892356,0.002799,-0.002821,-0.022666,0.000617,0.005014,0.001527,-0.005316,0.6502,-0.759745,0.005316023005469572
1760630308.313097,-0.328765,-0.109609,0.288902,0.892432,0.003167,0.008872,-0.027504,0.001613,0.005557,0.003613,-0.005675,0.650134,-0.759799,0.005675027783004952
1760630308.348648,-0.328765,-0.109628,0.288607,0.892525,-0.00435,0.007085,-0.027319,-0.001954,0.002782,-0.000927,-0.005924,0.65014,-0.759791,0.00592403619878699
1760630308.35069,-0.328823,-0.109732,0.288359,0.892571,-0.006658,-0.007853,-0.021182,-0.003072,-0.001295,-0.000787,-0.00625,0.65028,-0.759669,0.006250040283120891
1760630308.379159,-0.32884,-0.109936,0.288256,0.892573,0.001363,-0.016411,-0.006905,-0.002447,-0.003656,0.001841,-0.006671,0.650406,-0.759557,0.006671051803874895
1760630308.381196,-0.328823,-0.110069,0.288337,0.892537,0.004859,-0.015725,0.011138,-0.000241,-0.004653,0.00432,-0.006858,0.650447,-0.759521,0.006858052108094408
1760630308.42379,-0.328751,-0.11015,0.288551,0.892484,0.008556,-0.015735,0.022494,3e-05,-0.004409,0.004379,-0.006892,0.650379,-0.759579,0.006892052492917251
1760630308.425804,-0.328666,-0.110202,0.288871,0.892406,0.006487,-0.018975,0.030063,-0.002132,-0.000584,0.003462,-0.006807,0.650275,-0.759669,0.006807049503736639
1760630308.461061,-0.328613,-0.110276,0.289231,0.892299,0.001835,-0.018832,0.028019,-0.001553,0.002906,0.005138,-0.006708,0.650233,-0.759705,0.0067080515201968244
1760630308.463115,-0.328585,-0.110336,0.289538,0.892202,-0.002059,-0.014042,0.020096,-0.000348,0.006319,0.007406,-0.006608,0.650223,-0.759715,0.00660804645053518
1760630308.491854,-0.328591,-0.110405,0.289712,0.892135,0.000998,-0.008247,0.012022,-0.000971,0.006769,0.006949,-0.006598,0.650267,-0.759677,0.006598048370818555
1760630308.522248,-0.328575,-0.110438,0.289811,0.892105,0.0009,-0.003789,0.002495,-0.001072,0.009183,0.006731,-0.006594,0.650259,-0.759684,0.006594047694804206
1760630308.52345,-0.328621,-0.110503,0.289786,0.892089,-0.003914,-0.00097,-0.004427,-0.002263,0.006402,0.003128,-0.006698,0.650362,-0.759595,0.006698049553233071
1760630308.558775,-0.328664,-0.110633,0.289766,0.892063,-0.003043,-0.010278,-0.004512,-0.001333,0.004476,0.001718,-0.006911,0.650493,-0.759481,0.006911053997870274
1760630308.560736,-0.328704,-0.110714,0.289731,0.892049,0.000884,-0.001501,-0.001126,0.001047,0.003055,0.007353,-0.007053,0.650594,-0.759393,0.007053058384309213
1760630308.601477,-0.328736,-0.110685,0.289708,0.892049,0.008915,0.010892,0.003557,0.000478,0.003619,0.004032,-0.006998,0.65063,-0.759363,0.0069980552480735396
1760630308.603283,-0.328707,-0.110561,0.289718,0.892071,0.015536,0.010195,0.008383,0.000121,0.003053,0.00062,-0.006792,0.650524,-0.759456,0.006792048751646253
1760630308.63169,-0.328632,-0.110452,0.289736,0.892107,0.014698,0.003412,0.004189,-0.001397,0.003661,-0.002121,-0.006637,0.650353,-0.759603,0.006637049417658493
1760630308.664711,-0.328568,-0.110371,0.289787,0.892124,0.013758,-0.000481,0.003686,-0.000699,0.002289,0.000194,-0.006501,0.650215,-0.759723,0.006501043042999401
1760630308.66504,-0.328462,-0.110339,0.289877,0.892138,0.01663,-0.000151,0.00308,0.000436,0.002987,0.003302,-0.006448,0.650036,-0.759876,0.006448044961215481
1760630308.722936,-0.328382,-0.110291,0.289878,0.892173,0.014637,0.000456,0.002065,0.000133,0.002252,0.002418,-0.006417,0.64989,-0.760002,0.00641704009405821
1760630308.723258,-0.328303,-0.110244,0.289878,0.892207,0.012645,0.001064,0.001049,-0.00017,0.001518,0.001533,-0.006386,0.649744,-0.760127,0.006386039884504512
1760630308.733117,-0.328231,-0.110202,0.289879,0.892239,0.008332,0.001064,-0.002045,0.000616,-0.001398,0.000811,-0.006359,0.649612,-0.760239,0.006359044368871336
1760630308.762764,-0.32821,-0.110182,0.289862,0.892254,0.004356,0.001198,-0.000835,-0.000411,-0.000997,0.000833,-0.00635,0.649569,-0.760276,0.006350043296345323
1760630308.763057,-0.328206,-0.110179,0.28986,0.892257,0.001018,-0.002186,-0.002457,0.00012,-8.5e-05,0.001287,-0.006348,0.649562,-0.760282,0.006348043243031377
1760630308.794825,-0.328239,-0.110238,0.289827,0.892248,-0.00688,-0.002641,-0.003965,-0.000214,-0.001345,0.001485,-0.006455,0.649641,-0.760213,0.006455048373826666
1760630308.82456,-0.328317,-0.110338,0.289805,0.892214,-0.012808,-0.009362,-0.003103,-0.000541,-0.000982,0.000923,-0.006593,0.649812,-0.760067,0.006593044641195867
1760630308.828128,-0.328413,-0.110456,0.289802,0.892165,-0.017556,-0.009045,-0.002441,-0.001898,-0.002007,0.001713,-0.006742,0.650018,-0.759889,0.006742050580570412
1760630308.85822,-0.328535,-0.110649,0.289802,0.892097,-0.020842,-0.008627,0.004174,-0.00127,-0.001872,0.001678,-0.006998,0.650302,-0.759644,0.006998054774749149
1760630308.859819,-0.328682,-0.110739,0.289903,0.891998,-0.013547,-0.012442,0.010177,-0.002487,-0.000359,0.002415,-0.006986,0.650575,-0.75941,0.006986056186641658
1760630308.888638,-0.328803,-0.110823,0.290068,0.89189,-0.015196,-0.013735,0.016284,-0.002206,0.001254,0.002365,-0.006933,0.650805,-0.759213,0.006933056949868262
1760630308.918519,-0.328901,-0.110902,0.290259,0.891782,-0.012345,-0.008967,0.022513,-0.001971,0.000203,0.001139,-0.006868,0.650996,-0.75905,0.006868054461654552
1760630308.919802,-0.328961,-0.110918,0.290487,0.891683,-0.00621,-0.006507,0.017143,-0.002319,0.005206,0.003329,-0.00669,0.651098,-0.758964,0.0066900508574031245
1760630308.950221,-0.32903,-0.110962,0.290649,0.8916,-0.005694,-0.00233,0.012621,-0.002008,0.006486,0.001556,-0.006602,0.651228,-0.758854,0.006602045030141083
1760630308.987286,-0.329088,-0.110969,0.290734,0.89155,-0.002991,0.004288,0.006353,-0.001491,0.006101,0.003258,-0.006514,0.651321,-0.758775,0.006514042883138671
1760630308.987614,-0.329135,-0.110977,0.290705,0.891541,-0.004093,0.003083,-0.005489,-0.000852,0.004924,0.004658,-0.00652,0.651397,-0.758709,0.0065200464931953256
1760630309.025291,-0.329207,-0.110959,0.290572,0.89156,-0.004613,0.006392,-0.008098,-0.000715,0.00421,0.004057,-0.006537,0.651498,-0.758622,0.0065370474885138976
1760630309.025602,-0.329279,-0.11094,0.290439,0.891579,-0.005134,0.009702,-0.010708,-0.000579,0.003496,0.003455,-0.006554,0.651599,-0.758535,0.006554048370649231
1760630309.054046,-0.329368,-0.11093,0.290301,0.891592,-0.00356,0.007715,-0.005758,0.000611,0.001792,0.001344,-0.006577,0.651731,-0.758422,0.00657704582811749
1760630309.056164,-0.329467,-0.110889,0.290217,0.891588,-0.004327,0.012814,-0.000291,-0.000941,0.000459,0.000865,-0.006501,0.651862,-0.75831,0.006501044537642009
1760630309.085975,-0.329543,-0.110822,0.290248,0.891558,0.001429,-0.001639,0.005182,-0.000261,0.001335,0.001342,-0.00631,0.651946,-0.758239,0.006310042555076872
1760630309.116167,-0.329633,-0.110815,0.290266,0.89152,-0.003969,-0.004208,0.003718,-0.003645,0.004432,-0.00095,-0.006225,0.652081,-0.758124,0.00622503901995268
1760630309.131714,-0.329697,-0.110912,0.290267,0.891484,-0.00986,-0.00901,-0.003349,-0.002014,0.005148,-0.001343,-0.006352,0.652227,-0.757997,0.006352043162177872
1760630309.135868,-0.329714,-0.110978,0.290249,0.891475,0.006018,0.011793,-0.011187,0.004051,0.010707,0.009022,-0.00647,0.652286,-0.757945,0.006470046726940521
1760630309.164097,-0.329685,-0.110842,0.289982,0.89159,0.01321,0.021761,-0.02525,0.001451,0.011373,9.4e-05,-0.006446,0.652173,-0.758043,0.006446043471382046
1760630309.194816,-0.329598,-0.110832,0.289654,0.89173,0.015934,0.002703,-0.036014,-0.001516,0.010414,-0.000967,-0.006726,0.65203,-0.758164,0.006726047314399761
1760630309.196893,-0.329403,-0.11092,0.289252,0.891921,0.021689,3.9e-05,-0.043864,-0.000384,0.00283,-0.002869,-0.007303,0.651771,-0.758381,0.007303063050226221
1760630309.256273,-0.329174,-0.111016,0.288908,0.892106,0.031269,-0.015718,-0.043187,-0.001715,-0.0013,-0.000371,-0.007875,0.651462,-0.75864,0.007875083749844202
1760630309.257278,-0.32888,-0.111099,0.288759,0.892252,0.032534,-0.01312,-0.024487,-0.000942,-0.005811,0.001497,-0.008323,0.651049,-0.75899,0.008323096541264714
1760630309.287384,-0.328592,-0.111155,0.288756,0.892352,0.029039,-0.014692,-0.001665,-0.000826,-0.007778,0.001394,-0.008613,0.650633,-0.759344,0.008613103071450223
1760630309.324349,-0.328379,-0.111184,0.288978,0.892355,0.023925,-0.017027,0.007982,-0.000819,-0.00672,0.00246,-0.008643,0.65032,-0.759611,0.00864310901486036
1760630309.324653,-0.328166,-0.111214,0.289201,0.892357,0.018811,-0.019361,0.01763,-0.000811,-0.005662,0.003525,-0.008673,0.650008,-0.759878,0.008673107886081109
1760630309.355017,-0.327981,-0.111254,0.28947,0.892333,0.013821,-0.018353,0.018363,-0.000369,-0.003876,0.002847,-0.00867,0.649746,-0.760102,0.008670108259361478
1760630309.357084,-0.327853,-0.111326,0.289693,0.892299,0.001563,-0.017387,0.01231,-0.00014,-0.000757,0.003836,-0.008719,0.649586,-0.760238,0.00871911130759773
1760630309.385403,-0.327854,-0.111465,0.289802,0.892245,-0.014173,-0.011906,-0.00021,-0.000637,-0.000187,0.005181,-0.008882,0.649658,-0.760174,0.0088821215965985
1760630309.418475,-0.32796,-0.111623,0.289775,0.892196,-0.019904,-0.011597,-0.012268,-0.000839,0.000108,0.002936,-0.00911,0.6499,-0.759965,0.009110126910270014
1760630309.419766,-0.328084,-0.111821,0.289642,0.892169,-0.02165,-0.005058,-0.018593,0.002037,0.000862,0.004627,-0.009472,0.650188,-0.759715,0.009472136738124337
1760630309.449416,-0.328235,-0.111963,0.289416,0.892169,-0.021495,0.005265,-0.027259,0.002694,0.002879,0.00438,-0.009786,0.650489,-0.759452,0.009786160872705483
1760630309.465616,-0.328441,-0.112078,0.289093,0.892183,-0.024531,0.00463,-0.035058,-0.000405,0.004621,-0.00147,-0.010089,0.650862,-0.759129,0.01008917131755972
1760630309.496004,-0.328638,-0.112271,0.288746,0.892198,-0.028295,-0.00867,-0.039259,-0.001409,0.005615,-0.004353,-0.01055,0.651257,-0.758784,0.010550194971800932
1760630309.496309,-0.328836,-0.112581,0.288409,0.892195,-0.027783,-0.015786,-0.035682,-0.001007,0.003311,-0.002777,-0.01121,0.651711,-0.758385,0.01121023087282324
1760630309.524184,-0.329015,-0.112856,0.288199,0.892162,-0.019883,-0.014322,-0.018383,-0.000929,0.000251,-6.3e-05,-0.011729,0.65212,-0.758025,0.011729269150381921
1760630309.55473,-0.329098,-0.113047,0.288161,0.89212,-0.00644,-0.011956,0.004566,-0.001803,-0.001886,0.001023,-0.012037,0.652341,-0.75783,0.01203729082028215
1760630309.556807,-0.329074,-0.113118,0.28833,0.892065,0.005672,-0.014355,0.022861,-0.002709,-0.00034,0.000365,-0.012053,0.652342,-0.757829,0.012053290929752892
1760630309.627893,-0.328954,-0.113045,0.288649,0.892016,0.008677,-0.010277,0.021669,-0.002312,0.001723,0.000763,-0.011772,0.652125,-0.75802,0.011772272405290897
1760630309.628239,-0.328833,-0.112973,0.288969,0.891966,0.011682,-0.006198,0.020477,-0.001914,0.003787,0.001161,-0.01149,0.651907,-0.758212,0.011490251720672801
1760630309.628469,-0.328713,-0.1129,0.289288,0.891916,0.014687,-0.00212,0.019285,-0.001516,0.00585,0.001559,-0.011209,0.65169,-0.758403,0.011209231324058684
1760630309.632366,-0.328576,-0.112844,0.289489,0.891908,0.014657,0.001673,0.007496,-0.001258,0.008798,0.002768,-0.011054,0.651454,-0.758608,0.011054221797473889
1760630309.66055,-0.328489,-0.11281,0.28952,0.891935,0.007005,0.004839,-0.006716,-0.001007,0.006638,0.003861,-0.01103,0.651302,-0.758738,0.011030227478021836
1760630309.673162,-0.328431,-0.112792,0.289397,0.891998,0.012005,0.010719,-0.014756,-0.000738,0.003712,0.004816,-0.011126,0.651203,-0.758822,0.011126229763901194
1760630309.703078,-0.328302,-0.112701,0.289214,0.892116,0.021654,0.015061,-0.01887,-0.00072,0.001548,0.00301,-0.011186,0.650956,-0.759033,0.011186233650914241
1760630309.733507,-0.328166,-0.112597,0.289015,0.892244,0.024207,0.013217,-0.018728,-0.002336,2.5e-05,0.001696,-0.011238,0.650692,-0.759259,0.011238233184645346
1760630309.733801,-0.328027,-0.112502,0.288841,0.892363,0.020772,0.010848,-0.014792,-0.001131,-0.001224,0.001221,-0.01129,0.650429,-0.759483,0.011290241126485103
1760630309.761642,-0.327946,-0.112445,0.288677,0.892453,0.008304,0.006134,-0.009611,-0.00097,-0.002719,0.000336,-0.011362,0.650273,-0.759616,0.011362241426126815
1760630309.796103,-0.327953,-0.112408,0.288603,0.89248,-0.00052,0.002126,-0.002806,0.000331,-0.004601,0.00137,-0.011348,0.650264,-0.759623,0.011348248403835599
1760630309.797422,-0.327987,-0.112394,0.288613,0.892466,-0.002315,0.003489,0.005212,-9e-05,-0.004144,0.001919,-0.011293,0.65031,-0.759585,0.011293240048989133
1760630309.838825,-0.328014,-0.112378,0.28866,0.892443,-0.000228,-0.002298,0.006283,-0.000456,-0.001545,-0.001071,-0.011213,0.650345,-0.759556,0.011213236848379592
1760630309.840928,-0.32802,-0.112393,0.288735,0.892414,-0.001068,-0.003791,0.005395,-0.001474,0.001776,-0.003154,-0.01118,0.650363,-0.759541,0.011180235404151138
1760630309.868999,-0.327989,-0.112462,0.288792,0.892398,-0.001203,-0.010954,0.000544,-0.000983,0.003129,-0.002226,-0.011281,0.65035,-0.759551,0.011281238692880485
1760630309.870217,-0.327942,-0.112583,0.288818,0.892392,-0.001325,-0.011611,-0.004068,-0.000867,0.00327,0.000204,-0.011505,0.650338,-0.759557,0.011505261214533524
1760630309.925141,-0.327897,-0.112675,0.288792,0.892405,0.001558,-0.00817,-0.003425,-0.000864,0.001178,0.000987,-0.011716,0.650313,-0.759576,0.011716268268945803
1760630309.92544,-0.327851,-0.112767,0.288766,0.892419,0.004441,-0.00473,-0.002782,-0.000861,-0.000915,0.00177,-0.011927,0.650287,-0.759595,0.011927282795664322
1760630309.929732,-0.327778,-0.112781,0.288766,0.892444,0.009232,0.002116,0.000706,-0.001177,-0.000661,0.0025,-0.011999,0.650181,-0.759684,0.011999293414895931
1760630309.957827,-0.327718,-0.112738,0.288777,0.892468,0.008235,0.00318,0.001943,-0.000255,-0.000201,0.002631,-0.011955,0.650067,-0.759783,0.011955283393989982
1760630309.988517,-0.327689,-0.112675,0.28877,0.892488,0.004432,0.005884,0.00125,-0.000305,0.001116,0.002293,-0.011869,0.649993,-0.759848,0.011869274199599478
1760630309.990672,-0.327681,-0.112598,0.288733,0.892513,0.001143,0.007312,-0.001243,-0.000194,0.000867,0.001354,-0.011766,0.649941,-0.759894,0.011766267768336443
1760630310.01932,-0.327702,-0.112527,0.288682,0.892531,-0.000283,0.004486,-0.002109,0.000109,-4e-06,0.00096,-0.011664,0.649937,-0.759899,0.011664260744632829
1760630310.051495,-0.327726,-0.112528,0.288627,0.89254,-0.001817,0.002141,-0.00309,-0.00018,-0.000506,0.001689,-0.011691,0.649974,-0.759867,0.011691262022979085
1760630310.051796,-0.327776,-0.112536,0.28857,0.892539,-0.006567,0.000661,-0.006967,-0.000423,-0.000754,0.001186,-0.011714,0.650055,-0.759797,0.011714266728049661
1760630310.080698,-0.327839,-0.112576,0.288489,0.892537,-0.004638,0.000482,-0.006692,0.000877,-0.000822,0.002006,-0.011801,0.650171,-0.759696,0.011801276254797507
1760630310.110758,-0.327892,-0.112598,0.288432,0.892533,-0.003215,-0.000249,-0.004146,0.000615,-0.001113,0.000811,-0.011846,0.650263,-0.759616,0.011846284390512602
1760630310.112425,-0.327923,-0.112645,0.288398,0.892527,-0.003506,-0.006058,-0.004376,-0.000493,-0.000259,1.2e-05,-0.011933,0.650334,-0.759555,0.01193328020135209
1760630310.141273,-0.327959,-0.112722,0.288396,0.892504,-0.006504,-0.004999,4e-06,-0.000713,-0.001589,0.001418,-0.012046,0.650428,-0.759473,0.012046285759839787
1760630310.147956,-0.328011,-0.112801,0.288453,0.892457,-0.005806,-0.011849,0.006052,-0.000604,-0.000297,-0.00067,-0.012108,0.650546,-0.75937,0.012108298900928034
1760630310.176753,-0.328042,-0.112904,0.288536,0.892406,-0.008937,-0.00689,0.003517,0.001724,0.001855,0.003997,-0.012209,0.650647,-0.759282,0.01220930495700843
1760630310.223918,-0.328109,-0.112853,0.288524,0.892391,-0.005558,-0.000412,0.0004,0.000927,0.002209,0.001389,-0.012083,0.650725,-0.759217,0.012083297193040902
1760630310.224209,-0.328176,-0.112802,0.288513,0.892377,-0.002179,0.006067,-0.002718,0.000129,0.002564,-0.00122,-0.011958,0.650803,-0.759153,0.011958280125809054
1760630310.226041,-0.328194,-0.112756,0.288461,0.892393,0.000376,0.002758,-0.008128,-0.000719,0.004311,-0.002236,-0.011902,0.650807,-0.75915,0.011902280237644345
1760630310.256197,-0.328204,-0.112781,0.288358,0.892419,-0.000445,-0.003612,-0.015733,-0.001143,0.003609,-0.002116,-0.012014,0.650834,-0.759125,0.012014289043707087
1760630310.285356,-0.328235,-0.112876,0.288212,0.892443,-0.001234,-0.007128,-0.015936,-0.001497,0.000568,-0.001035,-0.012268,0.650926,-0.759042,0.012268308247494378
1760630310.287421,-0.328229,-0.11296,0.288109,0.892468,0.002043,-0.007289,-0.007916,0.000451,-0.002618,2.9e-05,-0.012495,0.650957,-0.759012,0.012495322922565635
1760630310.316946,-0.328172,-0.113011,0.288095,0.892487,0.008833,-0.007332,0.004768,0.000821,-0.004405,0.000956,-0.012633,0.650894,-0.759064,0.012633331321291939
1760630310.351213,-0.328048,-0.112998,0.288237,0.892488,0.015551,-0.0078,0.017714,-0.00064,-0.002412,0.000979,-0.012588,0.650699,-0.759232,0.012588326953013389
1760630310.353367,-0.327934,-0.112945,0.288449,0.892468,0.010203,-0.009673,0.019431,-0.002277,0.000726,-0.00073,-0.012416,0.6505,-0.759405,0.012416316782702948
1760630310.383695,-0.327873,-0.112965,0.288638,0.892427,-1e-05,-0.009413,0.012418,-0.001605,0.003237,0.001033,-0.012352,0.650417,-0.759477,0.012352313132212278
1760630310.385733,-0.327881,-0.113012,0.288757,0.89238,-0.003815,-0.008398,0.003563,-0.001151,0.003765,0.002115,-0.012344,0.650454,-0.759445,0.012344316663659443
1760630310.414495,-0.327859,-0.113086,0.288777,0.892372,-0.001619,-0.004963,-0.003951,-0.000572,0.003163,0.003381,-0.012473,0.650457,-0.759441,0.012473320213767387
1760630310.444782,-0.327882,-0.113149,0.288735,0.892369,-0.002415,-0.003314,-0.007346,-0.002149,0.002821,0.000973,-0.0126,0.650524,-0.759381,0.012600335072209127
1760630310.44607,-0.327897,-0.113266,0.288646,0.892378,-0.00391,-0.008761,-0.011691,-0.001881,0.001094,0.001867,-0.01286,0.650603,-0.759309,0.012860355771660878
1760630310.475753,-0.327974,-0.113392,0.288526,0.892372,-0.013453,0.001401,-0.010644,0.000585,-0.001095,0.005076,-0.013118,0.650782,-0.759151,0.013118379312708196
1760630310.52618,-0.328131,-0.11339,0.288422,0.892349,-0.013207,0.003187,-0.007429,-1e-06,-0.001355,0.002049,-0.013086,0.651022,-0.758946,0.013086374041993247
1760630310.526729,-0.328288,-0.113387,0.288317,0.892325,-0.012962,0.004973,-0.004215,-0.000587,-0.001615,-0.000978,-0.013054,0.651262,-0.75874,0.013054377388454993
1760630310.528245,-0.328403,-0.113397,0.288228,0.89231,-0.00769,0.002532,-0.002824,-0.000551,-0.000188,-0.00168,-0.013061,0.651443,-0.758585,0.013061372848645956
1760630310.556699,-0.328527,-0.113444,0.288184,0.892273,-0.01568,-0.002538,-0.003405,-0.000502,-0.001132,-0.000467,-0.013093,0.651657,-0.758401,0.013093371824807647
1760630310.587301,-0.328671,-0.113538,0.288117,0.892229,-0.01612,-0.002537,-0.003109,0.000476,-0.001618,0.0012,-0.013212,0.651925,-0.758168,0.013212387847982012
1760630310.588709,-0.32879,-0.11361,0.288094,0.892183,-0.012684,-0.003289,0.000214,0.000882,-0.002242,0.001307,-0.013278,0.652144,-0.757979,0.013278388425361108
1760630310.618058,-0.328883,-0.11364,0.288124,0.892136,-0.007318,-0.000188,0.008017,0.000724,-0.001571,0.001344,-0.013246,0.652301,-0.757844,0.013246390165616406
1760630310.624132,-0.328941,-0.113608,0.288198,0.892095,-0.007341,0.000242,0.007131,0.0003,-1e-06,0.001817,-0.013099,0.652376,-0.757782,0.01309937731899618
1760630310.654045,-0.329044,-0.113609,0.288234,0.892045,-0.013311,-0.000615,0.003066,9.7e-05,-1e-06,0.000586,-0.013006,0.652536,-0.757646,0.013006367686140234
1760630310.686718,-0.329194,-0.113627,0.288231,0.891989,-0.01597,-0.000139,-0.001034,0.000576,0.000677,0.000546,-0.01294,0.652775,-0.757441,0.012940364300300959
1760630310.68705,-0.329321,-0.113666,0.288202,0.891946,-0.013878,-1e-06,-0.001844,0.000325,0.00026,0.001105,-0.012946,0.65299,-0.757256,0.012946360429271329
1760630310.716157,-0.329425,-0.113709,0.288179,0.891909,-0.008108,-0.00126,6.6e-05,0.000167,0.000602,0.001752,-0.01297,0.653171,-0.757099,0.012970367089787625
1760630310.745272,-0.329522,-0.113754,0.288158,0.891875,-0.012693,-0.000768,-0.001297,-0.000106,0.001138,0.001485,-0.012999,0.653342,-0.756951,0.012999368974155854
1760630310.747414,-0.329689,-0.11384,0.288137,0.891809,-0.018749,-0.003174,9.1e-05,-0.000336,0.001258,0.000455,-0.013056,0.653643,-0.756691,0.013056365071407047
1760630310.777094,-0.329842,-0.113976,0.288143,0.891733,-0.018643,-0.008344,0.003366,-0.000965,0.0006,-0.000229,-0.013189,0.653944,-0.756428,0.013189382241860271
1760630310.784296,-0.329963,-0.114098,0.288226,0.891645,-0.014843,-0.010703,0.007748,-0.00101,0.000448,0.00052,-0.013261,0.654193,-0.756212,0.013261382568477881
1760630310.827421,-0.330065,-0.11417,0.288346,0.89156,-0.013647,-0.007283,0.008847,-0.001344,0.002347,0.00267,-0.013233,0.654387,-0.756044,0.013233386320034781
1760630310.828744,-0.330154,-0.11425,0.288436,0.891487,-0.008242,-0.005612,0.005388,-0.001769,0.000739,0.001482,-0.013249,0.654565,-0.75589,0.013249383884788019
1760630310.858645,-0.330209,-0.114342,0.288476,0.891442,-0.008885,-0.003788,0.002657,-0.000982,0.002128,0.0014,-0.013344,0.654694,-0.755776,0.013344398323410408
1760630310.888168,-0.330267,-0.114406,0.288515,0.8914,-0.00383,-0.001512,0.000977,-0.000442,0.001591,0.001375,-0.013388,0.654815,-0.75567,0.013388406188008494
1760630310.88984,-0.330286,-0.114459,0.288499,0.891391,-0.004008,-0.0014,-0.001242,-0.000946,0.001218,0.00148,-0.01348,0.65487,-0.755621,0.013480411491755138
1760630310.919233,-0.33031,-0.114512,0.288453,0.891391,-0.001713,-0.000584,-0.004291,-0.001006,0.000614,0.001015,-0.013591,0.654933,-0.755565,0.013591415598137637
1760630310.922115,-0.330341,-0.114521,0.288397,0.891396,-7.6e-05,0.002093,-0.003377,-0.001452,-0.000228,0.001495,-0.013628,0.654985,-0.755519,0.01362842165483671
1760630310.950347,-0.330324,-0.114509,0.288383,0.891408,0.004773,0.001093,0.001402,-0.001419,0.002261,-0.001092,-0.013629,0.654953,-0.755547,0.013629418891555434
1760630310.981031,-0.330286,-0.114499,0.288407,0.891416,0.003531,0.001038,0.006159,-0.002766,0.00623,-0.00329,-0.013619,0.654889,-0.755602,0.013619424702013954
1760630310.983175,-0.33028,-0.114437,0.288484,0.891401,0.002468,0.000774,0.011687,-0.006006,0.013865,-0.007898,-0.013457,0.65485,-0.755639,0.01345740678407639
1760630311.018455,-0.330303,-0.11442,0.288576,0.891365,0.000207,4.8e-05,0.009311,-0.008152,0.022473,-0.012876,-0.013345,0.654879,-0.755616,0.01334539524308436
1760630311.020489,-0.330279,-0.114348,0.2887,0.891343,0.011644,0.00495,0.016011,-0.01183,0.033996,-0.018851,-0.013144,0.654808,-0.755681,0.013144378135511264
1760630311.049033,-0.330124,-0.114138,0.28892,0.891356,0.043096,0.013508,0.033995,-0.013685,0.047015,-0.02441,-0.012716,0.65447,-0.755981,0.01271634303250408
1760630311.079776,-0.329739,-0.113602,0.28931,0.891441,0.075348,0.036965,0.056936,-0.017816,0.072707,-0.031112,-0.011746,0.653618,-0.756734,0.011746265383895851
1760630311.081831,-0.329112,-0.112914,0.289715,0.891628,0.113964,0.049685,0.033056,-0.020251,0.097885,-0.018066,-0.010657,0.652317,-0.757872,0.010657196358276793
1760630311.147658,-0.327608,-0.11149,0.289595,0.8924,0.206104,0.092456,0.00285,-0.019813,0.091461,-0.009813,-0.00924,0.649288,-0.760486,0.009240134994488716
1760630311.148045,-0.326102,-0.110065,0.289474,0.893167,0.298243,0.135227,-0.027356,-0.01938,0.085047,-0.001576,-0.007817,0.64625,-0.763086,0.007817078004510175
1760630311.149393,-0.323364,-0.107962,0.289112,0.894536,0.43815,0.155465,-0.037961,-0.015886,0.07231,-0.001774,-0.006175,0.640948,-0.76756,0.006175036702601441
1760630311.178268,-0.319551,-0.105172,0.288738,0.896357,0.551111,0.192753,-0.033796,-0.011002,0.069054,0.002467,-0.004011,0.633598,-0.773652,0.004011010893710315
1760630311.190723,-0.315003,-0.101872,0.288327,0.898478,0.619628,0.223496,-0.041701,-0.007481,0.067987,0.00744,-0.001411,0.624791,-0.78079,0.001411001308661001
1760630311.221107,-0.310006,-0.098275,0.287784,0.900788,0.673157,0.228227,-0.052541,-0.006235,0.057038,0.009548,0.001379,0.615063,-0.788477,-0.0013790001784023502
1760630311.221429,-0.304457,-0.094432,0.28723,0.903265,0.727716,0.23785,-0.056384,-0.003612,0.04452,0.018443,0.004304,0.604259,-0.796776,-0.004304014455390837
1760630311.249105,-0.298563,-0.090412,0.286643,0.905826,0.779005,0.238099,-0.050982,0.001158,0.030559,0.018014,0.007366,0.592724,-0.805372,-0.007366066404156341
1760630311.279017,-0.292316,-0.086278,0.286206,0.908402,0.812971,0.234295,-0.037606,0.00385,0.031743,0.016343,0.010576,0.580466,-0.814216,-0.010576195456092771
1760630311.281074,-0.28591,-0.082136,0.285783,0.910954,0.824043,0.226752,-0.043095,0.004239,0.032509,0.021067,0.013772,0.567848,-0.823018,-0.013772437816559515
1760630311.310529,-0.279385,-0.078142,0.285286,0.913482,0.81362,0.221092,-0.06693,0.003555,0.027682,0.032547,0.016647,0.555012,-0.831675,-0.016647779391906703
1760630311.352374,-0.272603,-0.074192,0.284691,0.916043,0.831914,0.211225,-0.061905,0.006069,0.018454,0.029207,0.019289,0.541675,-0.840367,-0.01929019087074182
1760630311.352684,-0.265802,-0.070237,0.284076,0.918541,0.850207,0.201358,-0.05688,0.008529,0.009358,0.025641,0.021985,0.528204,-0.848833,-0.02198676848072554
1760630311.360348,-0.258787,-0.0663,0.28358,0.920986,0.850806,0.184263,-0.061691,0.009259,0.005996,0.023305,0.024651,0.514281,-0.857268,-0.024653484448257965
1760630311.390833,-0.251696,-0.062469,0.283089,0.923367,0.85533,0.182691,-0.054025,0.013973,-0.000923,0.032352,0.027142,0.500185,-0.865493,-0.027145335599516547
1760630311.42478,-0.244538,-0.058589,0.282614,0.925688,0.851666,0.180948,-0.061274,0.015068,-0.006879,0.036439,0.02975,0.485848,-0.873537,-0.029754386731509014
1760630311.426838,-0.237377,-0.054763,0.282091,0.927943,0.8499,0.181472,-0.047102,0.014845,-0.018988,0.028355,0.03229,0.47144,-0.881307,-0.03229560820907474
1760630311.463591,-0.23031,-0.050972,0.281747,0.930042,0.818641,0.152786,-0.035068,0.012723,-0.019174,0.013108,0.034966,0.457118,-0.888719,-0.034973112366726226
1760630311.46491,-0.223402,-0.047634,0.281536,0.931966,0.790381,0.110815,-0.025346,0.011768,-0.026211,0.014122,0.037004,0.443228,-0.895645,-0.03701244415062799
1760630311.493929,-0.216659,-0.044567,0.281531,0.933709,0.763259,0.088084,-0.001623,0.009291,-0.032413,0.01668,0.038767,0.429687,-0.902146,-0.03877669358598089
1760630311.500893,-0.210038,-0.041862,0.281794,0.935267,0.739336,0.040531,0.019151,0.007203,-0.039527,0.015824,0.04007,0.416476,-0.908263,-0.04008073973014974
1760630311.531034,-0.203387,-0.039443,0.28239,0.936661,0.7337,0.022931,0.061696,0.007971,-0.048991,0.015961,0.04098,0.403286,-0.914156,-0.040991475621255685
1760630311.560408,-0.196806,-0.03712,0.283375,0.937864,0.706363,0.009108,0.091612,0.007816,-0.042757,0.013207,0.041913,0.390192,-0.919779,-0.04192528312260954
1760630311.560679,-0.19058,-0.034878,0.284437,0.938913,0.656429,0.016091,0.076461,0.00463,-0.037255,0.008809,0.042922,0.377718,-0.924926,-0.04293516239090023
1760630311.589887,-0.184864,-0.032735,0.285238,0.93989,0.604161,0.023437,0.065281,0.003336,-0.043934,0.015546,0.043926,0.366179,-0.929507,-0.0439401421335531
1760630311.619259,-0.179376,-0.030704,0.286242,0.940716,0.590046,0.019044,0.105141,0.001575,-0.046555,0.014203,0.044923,0.35506,-0.933763,-0.044938145450261646
1760630311.623311,-0.174086,-0.028789,0.287612,0.941353,0.551745,-0.013237,0.138124,-0.001643,-0.036788,-0.000356,0.045937,0.344312,-0.937731,-0.0459531625052597
1760630311.65411,-0.16911,-0.027253,0.289148,0.941835,0.508161,-0.040343,0.138854,-0.009744,-0.034398,-0.000801,0.04646,0.334308,-0.941318,-0.04647673170461345
1760630311.660052,-0.164392,-0.026079,0.290727,0.942217,0.473724,-0.058401,0.154423,-0.006142,-0.034672,0.013054,0.046442,0.32495,-0.94459,-0.04645871963691525
1760630311.689756,-0.159979,-0.024939,0.292492,0.942461,0.439731,-0.041232,0.18007,-0.004894,-0.03439,0.009131,0.046576,0.316136,-0.94757,-0.04659285155414663
1760630311.724961,-0.155862,-0.023726,0.294334,0.942609,0.417578,-0.032716,0.184959,-0.008991,-0.036427,0.002473,0.047023,0.3078,-0.950288,-0.04704036333321451
1760630311.726973,-0.151957,-0.022584,0.2963,0.942659,0.391947,-0.039954,0.199746,-0.013459,-0.030574,-0.004854,0.047472,0.29987,-0.952798,-0.04748985715473975
1760630311.755448,-0.148348,-0.021606,0.298253,0.942641,0.361164,-0.031269,0.197086,-0.012747,-0.029108,0.002776,0.047757,0.292565,-0.955052,-0.04777518808124579
1760630311.757575,-0.144994,-0.020588,0.300346,0.942521,0.335239,-0.038504,0.213925,-0.015124,-0.031837,0.000613,0.048289,0.285687,-0.957106,-0.0483077676875353
1760630311.79856,-0.141886,-0.019593,0.302511,0.942322,0.298367,-0.005671,0.21226,-0.013641,-0.020579,0.015373,0.048918,0.279259,-0.958969,-0.04893752841268862
1760630311.799717,-0.139302,-0.018539,0.30456,0.942069,0.24115,0.004205,0.205669,-0.011259,-0.014976,0.010427,0.049921,0.273756,-0.960503,-0.04994174636100291
1760630311.82996,-0.137347,-0.017559,0.306564,0.941725,0.184675,0.021576,0.216619,-0.011128,-0.018124,0.014973,0.05114,0.269453,-0.961655,-0.051162303062693405
1760630311.836879,-0.135927,-0.016694,0.308644,0.941267,0.115146,0.026659,0.220505,-0.006292,-0.018766,0.019169,0.052478,0.266192,-0.96249,-0.052502139864853435
1760630311.866933,-0.135194,-0.015792,0.310742,0.940698,0.056582,0.063039,0.236834,-0.000339,-0.018987,0.023196,0.054309,0.264168,-0.962946,-0.05433575439446994
1760630311.876976,-0.13511,-0.014739,0.312877,0.940019,-0.002033,0.082283,0.226203,0.000254,-0.014623,0.016281,0.056836,0.263235,-0.963056,-0.056866648534920954
1760630311.908925,-0.135662,-0.013734,0.314765,0.939324,-0.064849,0.108044,0.203927,0.003793,-0.01118,0.013318,0.059602,0.263507,-0.962814,-0.05963737066487005
1760630311.915655,-0.13687,-0.012768,0.316318,0.938641,-0.132212,0.128257,0.156106,0.001036,0.004429,0.014976,0.062619,0.26502,-0.962207,-0.06266002513660816
1760630311.945608,-0.138832,-0.011904,0.317317,0.938027,-0.203689,0.144131,0.100198,0.000974,0.003959,0.007413,0.065774,0.268011,-0.961168,-0.06582151672260046
1760630311.975863,-0.14133,-0.01123,0.317788,0.937502,-0.25136,0.134454,0.048755,0.002055,-0.000761,-0.001663,0.06877,0.272133,-0.959799,-0.06882432828438578
1760630312.024962,-0.144045,-0.010811,0.317868,0.937067,-0.26697,0.126387,0.015097,0.0014,-0.012639,0.001815,0.071313,0.276832,-0.958268,-0.07137361658141766
1760630312.054106,-0.14667,-0.010708,0.317399,0.93682,-0.246347,0.109361,-0.02057,0.002209,-0.018475,-0.004804,0.073043,0.281605,-0.956746,-0.07310812319527538
1760630312.054431,-0.149295,-0.010604,0.316927,0.936566,-0.225723,0.092335,-0.056238,0.003024,-0.024305,-0.011449,0.074768,0.286371,-0.955197,-0.07483784113318565
1760630312.056136,-0.151404,-0.010487,0.316171,0.936484,-0.173524,0.088289,-0.079893,0.004121,-0.030291,-0.01364,0.076097,0.290207,-0.953933,-0.07617067241854104
1760630312.085281,-0.152865,-0.010253,0.315162,0.93659,-0.112952,0.080857,-0.110192,0.004247,-0.034124,-0.018894,0.077149,0.292806,-0.953054,-0.07722576617451682
1760630312.115932,-0.15363,-0.009956,0.313932,0.936881,-0.046826,0.073676,-0.125507,0.00304,-0.042392,-0.019542,0.077803,0.294117,-0.952598,-0.07788166723022022
1760630312.117995,-0.153731,-0.009476,0.312625,0.937306,0.020325,0.064545,-0.12874,0.00319,-0.04956,-0.021613,0.078356,0.29411,-0.952554,-0.07843642276384069
1760630312.152137,-0.153148,-0.008842,0.311334,0.937837,0.088906,0.060014,-0.128602,0.004254,-0.053121,-0.013768,0.078775,0.292762,-0.952935,-0.07885669336727141
1760630312.154289,-0.151951,-0.007943,0.31016,0.938429,0.150023,0.06853,-0.102956,0.003054,-0.050915,-0.009155,0.07935,0.290117,-0.953696,-0.07943349281950461
1760630312.18507,-0.150328,-0.006835,0.309294,0.938985,0.175072,0.062794,-0.066837,0.001521,-0.040719,-0.010491,0.080155,0.286539,-0.95471,-0.08024105500684166
1760630312.216233,-0.148523,-0.005731,0.308736,0.939463,0.178819,0.053434,-0.041219,0.000621,-0.035094,-0.007505,0.080941,0.282603,-0.955816,-0.08102963651541588
1760630312.216492,-0.1467,-0.004698,0.308404,0.939864,0.174485,0.042307,-0.020309,-0.001892,-0.030794,-0.008752,0.081655,0.278654,-0.956914,-0.08174601323003564
1760630312.244544,-0.144934,-0.003804,0.308256,0.94019,0.160366,0.023022,-0.005541,-0.001946,-0.027205,-0.009237,0.0822,0.274876,-0.957959,-0.0822928883796696
1760630312.274782,-0.143276,-0.003041,0.308314,0.940428,0.154213,0.020126,0.017309,0.000595,-0.02311,-0.002616,0.082629,0.271357,-0.958925,-0.0827233435200923
1760630312.276936,-0.141743,-0.002299,0.308558,0.940583,0.145915,0.022343,0.029553,0.00247,-0.017092,-0.000516,0.083147,0.26806,-0.959807,-0.08324314338686613
1760630312.326415,-0.14035,-0.001538,0.308943,0.940667,0.138696,0.024009,0.033526,0.002177,-0.012736,-9.2e-05,0.083828,0.264995,-0.960599,-0.08392649345492863
1760630312.326719,-0.138957,-0.000776,0.309328,0.940748,0.131478,0.025676,0.037499,0.001887,-0.008377,0.000321,0.084506,0.261927,-0.961381,-0.08460688569433858
1760630312.332283,-0.137711,-4.3e-05,0.309666,0.94082,0.124058,0.023568,0.029653,0.000946,-0.006991,0.001045,0.085208,0.259149,-0.962071,-0.08531147924240888
1760630312.360516,-0.136604,0.000657,0.309884,0.94091,0.113215,0.026387,0.016417,0.00198,-0.005852,0.001132,0.085899,0.256658,-0.962678,-0.0860049498271295
1760630312.399932,-0.135624,0.001296,0.309937,0.941033,0.104297,0.031908,0.002354,0.003846,-0.005254,0.00284,0.086508,0.254449,-0.963209,-0.08661628550373647
1760630312.401189,-0.13477,0.001948,0.309857,0.941181,0.0943,0.038029,-0.011758,0.005402,-0.003565,0.003832,0.087185,0.252479,-0.963667,-0.08729578978976144
1760630312.431309,-0.134081,0.002579,0.309635,0.941351,0.079124,0.044452,-0.026696,0.006141,-0.001197,0.004206,0.087888,0.250838,-0.964031,-0.08800155072802912
1760630312.432365,-0.133598,0.003193,0.309264,0.94154,0.054756,0.045567,-0.039174,0.005628,0.000399,0.00372,0.088646,0.249601,-0.964283,-0.08876248964944602
1760630312.466175,-0.133373,0.003666,0.308749,0.941739,0.022294,0.040563,-0.053574,0.005758,-0.000343,0.002748,0.089262,0.248942,-0.964396,-0.08938098637587115
1760630312.470981,-0.133427,0.004037,0.308156,0.941924,-0.002883,0.037206,-0.056153,0.005773,-0.003897,0.002474,0.089837,0.248867,-0.964362,-0.08995830290453985
1760630312.499189,-0.133693,0.004245,0.307574,0.942075,-0.030986,0.025284,-0.054232,0.005917,-0.005049,-0.002712,0.090239,0.249288,-0.964216,-0.09036191792281943
1760630312.529784,-0.134151,0.004231,0.307085,0.94217,-0.04919,0.011596,-0.041246,0.007404,-0.00752,-0.000515,0.090364,0.250187,-0.963971,-0.09048746710736601
1760630312.531823,-0.134704,0.004154,0.306788,0.942188,-0.05982,0.007858,-0.018048,0.008376,-0.009738,8.8e-05,0.090478,0.251284,-0.963675,-0.0906019294030908
1760630312.560335,-0.13527,0.004034,0.306741,0.942123,-0.060775,-0.002323,0.004634,0.007843,-0.008606,-0.001164,0.090587,0.252407,-0.963372,-0.09071131131242992
1760630312.624923,-0.135671,0.003738,0.307129,0.94194,-0.057268,-0.018302,0.020277,0.006971,-0.007078,-0.001744,0.090379,0.253292,-0.963159,-0.0905024750243775
1760630312.625245,-0.136073,0.003442,0.307517,0.941757,-0.053761,-0.034281,0.03592,0.006097,-0.005549,-0.002325,0.090172,0.254178,-0.962945,-0.09029462376037524
1760630312.62551,-0.136474,0.003145,0.307904,0.941573,-0.050253,-0.050261,0.051564,0.005223,-0.00402,-0.002907,0.089965,0.255064,-0.96273,-0.09008678446749917
1760630312.629675,-0.136731,0.002703,0.308492,0.941345,-0.043101,-0.058667,0.060775,0.004118,-0.001531,-0.00036,0.089449,0.255754,-0.962595,-0.08956869717517225
1760630312.657744,-0.136898,0.00223,0.309158,0.941103,-0.036647,-0.055384,0.063114,0.005192,0.000896,0.002034,0.088843,0.256292,-0.962508,-0.08896027703439532
1760630312.691032,-0.137026,0.001779,0.309792,0.940877,-0.033659,-0.048885,0.054227,0.003323,0.004497,0.0049,0.088248,0.256747,-0.962441,-0.08836297104507604
1760630312.72021,-0.137179,0.001395,0.310311,0.940684,-0.035392,-0.039553,0.038484,0.001909,0.006679,0.00378,0.08776,0.257219,-0.96236,-0.08787303528800204
1760630312.72051,-0.137361,0.00104,0.310656,0.940544,-0.030322,-0.032777,0.021849,0.000754,0.005745,0.003479,0.087301,0.257743,-0.962261,-0.08741231285311649
1760630312.749761,-0.137575,0.000735,0.310825,0.940458,-0.029205,-0.027703,0.005915,0.001158,0.005643,0.005633,0.086905,0.258309,-0.962145,-0.08701480758978042
1760630312.751874,-0.13778,0.000507,0.310854,0.940418,-0.022692,-0.013367,-0.005603,0.000697,0.007087,0.00575,0.086612,0.258827,-0.962033,-0.08672063204549654
1760630312.780804,-0.138021,0.000309,0.310752,0.940416,-0.024503,-0.009707,-0.020253,0.000103,0.006708,0.005092,0.086362,0.259403,-0.9619,-0.08646971897302773
1760630312.810952,-0.138289,0.000136,0.310551,0.940444,-0.027984,-0.004813,-0.028578,-0.000728,0.005077,0.002105,0.086146,0.260022,-0.961752,-0.0862529299022417
1760630312.823154,-0.138607,-4.8e-05,0.310269,0.94049,-0.031094,-0.010205,-0.034702,-0.001029,0.002269,0.000554,0.08592,0.260747,-0.961576,-0.08602608167177017
1760630312.852732,-0.138917,-0.000315,0.309991,0.940536,-0.029918,-0.012478,-0.030144,-0.001087,-0.001456,0.002519,0.085533,0.261508,-0.961404,-0.08563763746064908
1760630312.853038,-0.139196,-0.000568,0.309761,0.94057,-0.027375,-0.011002,-0.018729,-0.001542,-0.003554,-0.000326,0.085167,0.262199,-0.961248,-0.08527031962315025
1760630312.881556,-0.139397,-0.000798,0.309649,0.940577,-0.016445,-0.014067,-0.007063,-0.001147,-0.00552,-0.000264,0.084827,0.262722,-0.961136,-0.08492902385285865
1760630312.923656,-0.139385,-0.0009,0.309719,0.940556,-0.004077,-0.012197,0.002178,-0.001747,-0.003789,1.1e-05,0.084646,0.262756,-0.961142,-0.08474742474091548
1760630312.923956,-0.139372,-0.001002,0.309788,0.940535,0.00829,-0.010328,0.01142,-0.002348,-0.002058,0.000286,0.084466,0.26279,-0.961149,-0.08456674027244801
1760630312.93049,-0.139217,-0.00104,0.309931,0.940511,0.016107,-0.011263,0.013903,-0.003752,-0.002194,-0.000655,0.084339,0.262515,-0.961235,-0.08443930972312744
1760630312.960272,-0.138961,-0.001087,0.310082,0.940499,0.019993,-0.013144,0.016544,-0.003197,-0.001877,-0.001216,0.084133,0.262059,-0.961377,-0.08423261294169339
1760630312.97454,-0.13871,-0.001138,0.310234,0.940486,0.016477,-0.012894,0.012329,-0.00299,-0.00087,0.000228,0.083924,0.261616,-0.961516,-0.08402286388781756
1760630313.004517,-0.138502,-0.001231,0.310383,0.940467,0.013791,-0.015914,0.011896,-0.00285,-1.1e-05,0.002048,0.083661,0.261278,-0.961631,-0.08375892095784523
1760630313.008563,-0.138345,-0.001369,0.310515,0.940446,0.004254,-0.015434,0.010363,-0.001728,0.000232,0.001303,0.083341,0.261063,-0.961717,-0.08343781347820574
1760630313.03719,-0.138301,-0.001505,0.310601,0.940424,-0.007365,-0.011589,0.008212,-0.003618,-0.000898,0.000134,0.083083,0.261057,-0.961741,-0.08317891160928607
1760630313.067238,-0.138348,-0.001694,0.310675,0.940392,-0.014923,-0.019302,0.009193,-0.003501,-0.001956,-0.000411,0.082776,0.261256,-0.961714,-0.08287080515885047
1760630313.069343,-0.138439,-0.001938,0.310793,0.94034,-0.021928,-0.014519,0.008069,-0.001553,-0.00127,0.00122,0.082408,0.261563,-0.961662,-0.08250155593851984
1760630313.097775,-0.138586,-0.002204,0.310852,0.940298,-0.022829,-0.017604,0.000601,0.00102,-0.003137,0.000781,0.082014,0.261995,-0.961578,-0.08210622418659469
1760630313.132268,-0.138707,-0.002424,0.310881,0.94027,-0.01291,-0.008918,0.000147,0.003231,-0.00434,0.003095,0.081685,0.26235,-0.961509,-0.08177613326206368
1760630313.134357,-0.138758,-0.002499,0.310867,0.940267,-0.005555,-0.0017,-0.00167,0.001667,-0.002815,0.001566,0.081571,0.262493,-0.96148,-0.08166172391794081
1760630313.163011,-0.138766,-0.002592,0.310824,0.94028,-0.004498,-0.007919,-0.006092,0.000836,-0.003259,-0.002468,0.081388,0.262569,-0.961475,-0.08147809430777145
1760630313.166833,-0.13875,-0.002699,0.310797,0.940291,-0.005819,-0.015419,-0.004504,0.000482,-0.003443,-0.000359,0.081171,0.262609,-0.961482,-0.08126040689955859
1760630313.223093,-0.138787,-0.002905,0.310832,0.940273,-0.010176,-0.017869,-0.000746,0.000956,-0.004728,0.000909,0.080815,0.262801,-0.96146,-0.08090319666991914
1760630313.22346,-0.138823,-0.003112,0.310866,0.940256,-0.014532,-0.02032,0.003011,0.001429,-0.006012,0.002176,0.080459,0.262993,-0.961437,-0.08054606147257717
1760630313.223917,-0.13887,-0.003357,0.310949,0.94022,-0.016162,-0.023112,0.008085,0.00171,-0.005959,0.000319,0.08005,0.263224,-0.961408,-0.08013573210745188
1760630313.256951,-0.138934,-0.003644,0.311074,0.940169,-0.019621,-0.033583,0.006242,0.001116,-0.00522,-0.002998,0.079586,0.263511,-0.961368,-0.07967023938584315
1760630313.287285,-0.138987,-0.00402,0.3112,0.940117,-0.017491,-0.030431,0.006572,0.000682,-0.005994,0.000498,0.078948,0.263831,-0.961333,-0.0790302133688146
1760630313.287612,-0.139003,-0.004294,0.311332,0.94007,-0.014222,-0.027538,0.008965,-0.000244,-0.005084,-0.000524,0.078479,0.26402,-0.961319,-0.07855979266121463
1760630313.315989,-0.138955,-0.004496,0.311494,0.940023,0.00099,-0.019928,0.016533,-0.001217,-0.004994,0.00293,0.078116,0.264043,-0.961342,-0.07819569348345402
1760630313.354415,-0.13881,-0.004497,0.311777,0.93995,0.008699,-0.008691,0.024739,-0.002833,-0.001953,0.003707,0.078101,0.263754,-0.961423,-0.07818061353504985
1760630313.354419,-0.138665,-0.004499,0.312059,0.939878,0.016408,0.002546,0.032945,-0.004448,0.001087,0.004485,0.078087,0.263464,-0.961504,-0.07816654412635636
1760630313.384518,-0.138504,-0.004394,0.31237,0.939799,0.010422,0.008335,0.030351,-0.005075,0.005978,0.003628,0.07827,0.263077,-0.961595,-0.07835011199100268
1760630313.38534,-0.138469,-0.004287,0.31259,0.939732,-0.004126,0.009018,0.01924,-0.004873,0.007252,0.000945,0.078512,0.262928,-0.961616,-0.07859286073461774
1760630313.416328,-0.138624,-0.00422,0.312664,0.939684,-0.018946,0.016739,0.004458,-0.003972,0.00499,0.003853,0.078755,0.263164,-0.961531,-0.07883665863521822
1760630313.445392,-0.138936,-0.004169,0.312606,0.939658,-0.030316,0.018065,-0.007843,-0.001427,0.002535,0.002162,0.07903,0.26371,-0.961359,-0.07911250556230875
1760630313.447445,-0.139298,-0.004101,0.312465,0.939651,-0.031057,0.025435,-0.014509,-0.001702,0.000387,0.000898,0.079344,0.264347,-0.961158,-0.07942750762700349
1760630313.477217,-0.139671,-0.004053,0.312257,0.939665,-0.027693,0.016993,-0.016647,-0.001789,-0.000298,0.000495,0.07961,0.26502,-0.960951,-0.0796943250798693
1760630313.484371,-0.139996,-0.004033,0.312072,0.939679,-0.025655,0.022686,-0.012098,2.3e-05,9.5e-05,0.003916,0.079798,0.26562,-0.960769,-0.07988298113087994
1760630313.524884,-0.140361,-0.003895,0.311945,0.939667,-0.030479,0.035752,-0.003615,-0.001256,0.007673,0.008773,0.08025,0.266215,-0.960567,-0.08033640855267987
1760630313.526889,-0.140809,-0.0036,0.311873,0.939625,-0.031854,0.047933,-0.001425,-0.001172,0.011182,0.011113,0.081064,0.266861,-0.96032,-0.08115302003575679
1760630313.555313,-0.141248,-0.003133,0.311755,0.9396,-0.016517,0.072202,-0.005182,0.002105,0.006714,0.007194,0.082182,0.267388,-0.960078,-0.08227479062213548
1760630313.585986,-0.14145,-0.002356,0.3116,0.939623,0.025759,0.093091,2.8e-05,0.004284,0.003206,0.004462,0.083723,0.267288,-0.959973,-0.08382109556376396
1760630313.58802,-0.141353,-0.001304,0.311438,0.939694,0.067426,0.106957,-0.003269,0.00574,0.001403,0.002573,0.085595,0.26647,-0.960035,-0.0856998662401218
1760630313.616522,-0.140926,-1.9e-05,0.311264,0.939816,0.108689,0.110354,-0.000699,0.004069,0.000173,0.001381,0.087695,0.264901,-0.96028,-0.08780776478763892
1760630313.623123,-0.140228,0.001262,0.311056,0.939989,0.122101,0.096224,-0.01242,0.003967,0.002028,-0.001134,0.08961,0.26284,-0.960669,-0.08973037423184563
1760630313.652877,-0.13947,0.002452,0.310766,0.940195,0.111679,0.084278,-0.018221,0.00469,0.001245,-0.004418,0.091296,0.260733,-0.961084,-0.0914233435118412
1760630313.688938,-0.138826,0.003373,0.310441,0.940395,0.08128,0.054926,-0.028498,0.004054,-0.001359,-0.006111,0.092539,0.259009,-0.961432,-0.09267155856811186
1760630313.690864,-0.138357,0.003957,0.310107,0.940572,0.056186,0.031669,-0.025018,0.003788,-0.008459,-0.006252,0.093254,0.257815,-0.961684,-0.09338964584514081
1760630313.719383,-0.137974,0.004227,0.309893,0.940698,0.046173,0.005082,-0.01032,0.000181,-0.012658,-0.004615,0.093467,0.256964,-0.961891,-0.09360358600685631
1760630313.721119,-0.137562,0.004336,0.309954,0.940737,0.04193,-0.017633,0.017263,-0.001914,-0.010963,-0.005168,0.093434,0.256131,-0.962116,-0.09357047261564565
1760630313.75025,-0.137115,0.004216,0.310276,0.940697,0.027572,-0.039948,0.032644,-0.003539,-0.006034,-0.002795,0.093018,0.255351,-0.962364,-0.09315261795632648
1760630313.781047,-0.136789,0.003939,0.310587,0.940643,0.003509,-0.04068,0.009462,-0.00244,-0.000989,0.000522,0.09238,0.254893,-0.962546,-0.09251193542996163
1760630313.783152,-0.136643,0.003541,0.310753,0.940611,-0.01158,-0.047089,0.012414,-0.001319,-0.003739,-0.001673,0.091586,0.254855,-0.962632,-0.0917145489087332
1760630313.828511,-0.136525,0.002954,0.310997,0.940549,-0.019386,-0.056604,0.020462,-0.002021,-0.006965,0.005387,0.090475,0.254979,-0.962705,-0.09059884844259293
1760630313.830598,-0.136466,0.002431,0.311274,0.940468,-0.017922,-0.04578,0.022355,0.00115,-0.005016,0.009148,0.08953,0.25517,-0.962742,-0.08965006201361982
1760630313.859118,-0.136475,0.002037,0.311572,0.940368,-0.006953,-0.029637,0.027946,0.001935,-0.004534,0.010078,0.088874,0.255405,-0.962741,-0.08899139046301856
1760630313.860272,-0.136437,0.001923,0.311868,0.940276,-0.003025,-0.011969,0.026295,0.001795,-0.000638,0.006435,0.088718,0.255377,-0.962763,-0.0888347560325809
1760630313.891141,-0.136449,0.00198,0.312072,0.940207,-0.007525,0.017237,0.014766,0.001444,0.004649,0.007539,0.088886,0.255344,-0.962756,-0.0890034443922068
1760630313.920483,-0.136653,0.002158,0.312079,0.940174,-0.02094,0.022243,-0.007517,-0.00128,0.006698,0.003312,0.08935,0.255608,-0.962643,-0.0894692968800631
1760630313.924302,-0.136971,0.002307,0.311899,0.940187,-0.026099,0.022712,-0.01664,-0.000419,0.003721,-0.00043,0.08978,0.256118,-0.962467,-0.08990106859777529
1760630313.954587,-0.137309,0.002397,0.311676,0.940212,-0.03199,0.01785,-0.027544,0.00062,0.001059,-0.000216,0.090099,0.256706,-0.962281,-0.09022132519749826
1760630313.964278,-0.137695,0.002462,0.311379,0.940254,-0.026156,0.021432,-0.026904,0.001087,-0.003446,-0.001655,0.090381,0.257403,-0.962068,-0.09050451019594383
1760630313.994547,-0.138014,0.002532,0.311086,0.940304,-0.017986,0.016478,-0.026436,0.000106,-0.007079,-0.003874,0.09063,0.257976,-0.961891,-0.09075454346819621
1760630314.024757,-0.138166,0.002595,0.310881,0.940349,-0.001424,0.008804,-0.010533,-0.00077,-0.01096,-0.004644,0.090788,0.258236,-0.961807,-0.0909131388182054
1760630314.025052,-0.138145,0.002663,0.310843,0.940365,0.006548,0.004056,0.003398,-0.000844,-0.008832,-0.003294,0.09089,0.258158,-0.961818,-0.09101558904621042
1760630314.052859,-0.138028,0.002679,0.310935,0.940351,0.009751,-0.008072,0.013283,-0.00182,-0.005798,-0.003562,0.090875,0.257924,-0.961882,-0.09100054372805155
1760630314.060557,-0.137835,0.002587,0.31112,0.940319,0.008752,-0.018086,0.020395,-0.001584,-0.005641,-0.001966,0.090632,0.257607,-0.96199,-0.09075652549550545
1760630314.090122,-0.137642,0.002486,0.311384,0.94026,0.003486,-0.022911,0.026106,-0.000501,-0.003492,-0.001354,0.090393,0.257291,-0.962097,-0.09051654479851365
1760630314.133698,-0.13755,0.002299,0.311624,0.940194,-0.000756,-0.020047,0.022687,-0.000447,-0.002304,0.000249,0.090051,0.257214,-0.96215,-0.09017311465892866
1760630314.133988,-0.137457,0.002113,0.311863,0.940129,-0.004997,-0.017182,0.019267,-0.000394,-0.001117,0.001851,0.089708,0.257137,-0.962202,-0.08982877478589338
1760630314.140514,-0.137416,0.002003,0.312098,0.940057,-0.003581,-0.007521,0.019017,0.001267,-0.002759,0.003134,0.08954,0.257107,-0.962226,-0.08966006693100202
1760630314.170677,-0.137408,0.001979,0.312268,0.940002,-0.002186,0.00303,0.012541,0.001288,-0.002531,0.002793,0.089537,0.257091,-0.96223,-0.08965710277447898
1760630314.200947,-0.13744,0.002026,0.312376,0.939961,-0.001501,0.007411,0.008903,0.002422,-0.003332,0.002603,0.089675,0.257112,-0.962212,-0.08979562015721632
1760630314.201235,-0.137487,0.002142,0.312474,0.939922,-0.002895,0.005186,0.003975,0.002115,-0.001175,-0.000997,0.089948,0.257116,-0.962185,-0.09006976691944145
1760630314.22989,-0.137558,0.00216,0.312485,0.939907,-0.004635,0.001865,-0.001168,0.001065,-0.002398,-0.000156,0.090031,0.257233,-0.962146,-0.09015310199566978
1760630314.260078,-0.137606,0.002143,0.312451,0.939912,-0.011297,-0.002017,-0.004387,0.001081,-0.002529,0.001135,0.090018,0.257337,-0.96212,-0.09013999730230599
1760630314.261908,-0.137725,0.002101,0.312422,0.939904,-0.012291,-0.002597,-0.004867,0.002062,-0.003468,2.5e-05,0.090006,0.257584,-0.962055,-0.0901279504812918
1760630314.29046,-0.137836,0.002066,0.312411,0.939892,-0.015886,-0.005096,0.001745,0.002105,-0.003009,0.000453,0.090007,0.25781,-0.961994,-0.0901289865456971
1760630314.323619,-0.138004,0.001946,0.312448,0.939855,-0.023324,-0.00649,0.002564,0.000751,-0.002129,-0.000538,0.089896,0.258192,-0.961902,-0.09001752817178733
1760630314.323956,-0.1382,0.001776,0.312524,0.939801,-0.030406,-0.013823,0.00642,0.00034,-0.003372,0.000664,0.08972,0.258651,-0.961795,-0.08984082385104102
1760630314.356218,-0.13841,0.00158,0.312622,0.939738,-0.026914,-0.015846,0.008752,0.001013,-0.003925,-0.00113,0.08951,0.25915,-0.96168,-0.08962999591593555
1760630314.357475,-0.138592,0.001384,0.312775,0.939661,-0.025829,-0.021042,0.014143,0.000381,-0.004873,-0.00181,0.089297,0.259594,-0.961581,-0.0894160572412959
1760630314.387396,-0.138716,0.001115,0.312921,0.939594,-0.020019,-0.02233,0.01391,0.001026,-0.004091,-0.001415,0.08891,0.259976,-0.961513,-0.08902756821894096
1760630314.426147,-0.138812,0.000902,0.31312,0.939514,-0.02153,-0.025803,0.016897,-0.000721,-0.000683,-1e-06,0.088624,0.260268,-0.961461,-0.08874038390129572
1760630314.428216,-0.138928,0.000603,0.313322,0.93943,-0.02869,-0.028488,0.015855,-0.001742,0.000693,0.002754,0.088191,0.260648,-0.961397,-0.088305756152383
1760630314.467219,-0.139065,0.000284,0.313505,0.939348,-0.031135,-0.025343,0.01203,-0.001925,0.000132,0.001148,0.087729,0.261083,-0.961322,-0.08784189338306242
1760630314.468784,-0.139263,-1.6e-05,0.313665,0.939266,-0.031068,-0.020957,0.010159,0.000227,0.000136,0.002598,0.087334,0.261621,-0.961211,-0.08744543014620193
1760630314.498777,-0.139497,-0.000316,0.313768,0.939197,-0.029548,-0.021432,0.005934,0.001019,-0.002349,0.001453,0.086946,0.262228,-0.961081,-0.08705592848478493
1760630314.500802,-0.139671,-0.000553,0.313871,0.939136,-0.018575,-0.011075,0.009939,-0.00073,-0.002465,0.002292,0.086638,0.262688,-0.960983,-0.08674677766271097
1760630314.529573,-0.13981,-0.000755,0.313976,0.93908,-0.01914,-0.021705,0.00312,-4.6e-05,-0.000155,0.000144,0.086377,0.26306,-0.960905,-0.0864847731857523
1760630314.536822,-0.139877,-0.001008,0.314049,0.939046,-0.010365,-0.018066,0.005083,-0.000883,0.001068,0.00273,0.085963,0.263336,-0.960867,-0.08606918830858276
1760630314.592522,-0.13996,-0.001233,0.31409,0.939019,-0.014484,-0.015145,0.002935,0.000172,3.8e-05,0.004061,0.085604,0.263625,-0.960819,-0.08570892645771236
1760630314.592651,-0.140043,-0.001458,0.314132,0.938993,-0.018604,-0.012224,0.000787,0.001227,-0.000992,0.005392,0.085246,0.263914,-0.960772,-0.08534957099255676
1760630314.593607,-0.140205,-0.001573,0.314159,0.938959,-0.018407,-0.002147,-0.001209,-0.001205,-0.001157,0.002465,0.085138,0.264282,-0.96068,-0.08524121108242431
1760630314.623605,-0.14036,-0.001663,0.314168,0.938933,-0.015484,-0.006471,0.006653,-0.002477,-0.002261,-0.0008,0.08507,0.264621,-0.960593,-0.08517293899784054
1760630314.652791,-0.140485,-0.001837,0.314253,0.938885,-0.018198,-0.016074,0.007788,-0.003219,0.002455,-0.001709,0.084847,0.264953,-0.960521,-0.08494914656169338
1760630314.654155,-0.140643,-0.002076,0.314394,0.938814,-0.027119,-0.026415,0.008301,-0.003611,0.001716,0.000437,0.084536,0.265382,-0.96043,-0.08463702389682908
1760630314.690459,-0.140849,-0.002429,0.314513,0.938742,-0.036247,-0.023799,0.009551,-0.003257,0.00399,0.000995,0.084036,0.26597,-0.960311,-0.08413525594716267
1760630314.7274,-0.141082,-0.00278,0.314717,0.938638,-0.032198,-0.026086,0.016763,-0.004031,0.001914,0.001571,0.083583,0.266599,-0.960176,-0.08368066527021806
1760630314.756701,-0.141252,-0.003128,0.314969,0.938527,-0.024936,-0.025487,0.023705,-0.004503,0.002315,0.001096,0.083108,0.267109,-0.960076,-0.08320396543266219
1760630314.756986,-0.141362,-0.003408,0.315249,0.938415,-0.017601,-0.025416,0.023778,-0.004093,0.003833,0.001048,0.082732,0.267462,-0.96001,-0.08282668179354331
1760630314.787542,-0.14141,-0.003679,0.315504,0.938321,-0.008006,-0.022652,0.020635,-0.004768,0.004661,0.00222,0.082328,0.267697,-0.959979,-0.08242131703663937
1760630314.818559,-0.141404,-0.0039,0.31571,0.938252,-0.002928,-0.018203,0.014602,-0.004336,0.005698,0.002294,0.081966,0.267808,-0.959979,-0.08205809064423036
1760630314.818818,-0.141364,-0.004071,0.315853,0.938209,0.000141,-0.014326,0.005739,-0.004639,0.005665,0.001365,0.081662,0.26783,-0.959999,-0.08175304991809756
1760630314.846768,-0.141316,-0.004271,0.315903,0.938199,0.00106,-0.014857,-0.000552,-0.004045,0.005523,0.001878,0.08127,0.267863,-0.960023,-0.08135974706794405
1760630314.85837,-0.141279,-0.004457,0.315898,0.938205,0.002042,-0.010441,-0.003943,-0.00311,0.002667,0.003609,0.080897,0.267913,-0.960041,-0.08098547978544675
1760630314.886619,-0.141278,-0.004548,0.315864,0.938216,0.003766,-0.001856,-0.00466,-0.00237,0.000244,0.004098,0.080715,0.267971,-0.96004,-0.08080289291485256
1760630314.894468,-0.141264,-0.004524,0.31582,0.938233,0.007688,0.007864,-0.001404,-0.002396,-0.00068,0.002567,0.080738,0.267935,-0.960048,-0.08082597707323448
1760630314.924848,-0.141254,-0.004437,0.315809,0.938239,0.005631,0.007452,-0.001156,-0.003082,0.000167,0.00041,0.080893,0.267863,-0.960055,-0.08098148913973666
1760630314.958684,-0.141272,-0.004377,0.315803,0.938239,0.001654,0.007016,0.000166,-0.002427,-0.000239,0.000358,0.081015,0.267857,-0.960046,-0.08110392106438419
1760630314.960866,-0.14133,-0.004338,0.315756,0.938246,-0.006847,0.00767,-0.004105,-0.001523,-0.000238,0.000967,0.081112,0.267944,-0.960014,-0.08120120481040026
1760630314.989749,-0.141448,-0.004308,0.315687,0.938251,-0.009776,0.01066,-0.007186,0.000131,-0.001749,0.002251,0.081223,0.268148,-0.959948,-0.0813125451946359
1760630314.991198,-0.14157,-0.004224,0.31562,0.938256,-0.007721,0.013994,-0.004095,0.000866,-0.002867,0.001779,0.081439,0.268325,-0.95988,-0.08152928176973387
1760630315.025185,-0.141689,-0.004118,0.315575,0.938253,-0.005821,0.012788,-0.002636,0.001892,-0.00201,0.001754,0.081699,0.268479,-0.959815,-0.08179013859546512
1760630315.054229,-0.141748,-0.004016,0.315524,0.938262,-0.001657,0.012534,-0.001721,0.000629,-0.001799,0.000901,0.081913,0.268528,-0.959783,-0.08200486236344019
1760630315.056186,-0.141797,-0.003903,0.315488,0.938267,-0.001887,0.011689,-0.002419,0.00124,-0.001301,0.001794,0.082147,0.268549,-0.959757,-0.08223966345773237
1760630315.085444,-0.14184,-0.003767,0.31543,0.938281,-0.004141,0.013709,-0.004038,0.001412,-0.001105,0.001478,0.082412,0.268548,-0.959735,-0.0825055302041283
1760630315.093048,-0.141916,-0.003657,0.315358,0.938294,-0.007779,0.011429,-0.006496,0.000773,-0.001253,-5.5e-05,0.082646,0.268625,-0.959693,-0.08274035719363376
1760630315.123036,-0.142039,-0.0036,0.315298,0.938296,-0.008228,0.005263,-0.003779,0.001148,-0.001492,-0.00048,0.082813,0.268819,-0.959624,-0.08290795391354422
1760630315.153456,-0.142131,-0.003593,0.315237,0.938303,-0.00889,0.002276,-0.005493,0.001123,-0.002854,-0.000963,0.082867,0.268989,-0.959572,-0.08296211621942126
1760630315.153794,-0.142226,-0.003596,0.315194,0.938302,-0.00749,-0.000115,-0.004962,0.00134,-0.003405,0.000304,0.082909,0.269169,-0.959518,-0.0830042529098471
1760630315.181505,-0.142288,-0.003616,0.315174,0.9383,-0.004975,-0.003779,0.001254,0.001387,-0.00407,-0.000239,0.082906,0.269296,-0.959482,-0.08300129231215977
1760630315.212419,-0.142317,-0.003659,0.315228,0.938277,-0.00503,-0.006647,0.008168,0.000654,-0.003024,0.001102,0.082859,0.269371,-0.959465,-0.08295413057074144
1760630315.213751,-0.142361,-0.003723,0.315356,0.938227,-0.01059,-0.008181,0.012152,-7.5e-05,0.000132,0.001248,0.082803,0.269481,-0.959439,-0.08289793308514155
1760630315.246068,-0.142448,-0.003816,0.315484,0.938171,-0.017188,-0.009424,0.009166,-0.000455,0.00113,0.000179,0.082721,0.269688,-0.959388,-0.08281564352738358
1760630315.250798,-0.14258,-0.003967,0.315566,0.938122,-0.022388,-0.012347,0.00362,-0.000202,0.000501,7.9e-05,0.082543,0.270019,-0.95931,-0.08263705058321522
1760630315.279479,-0.142727,-0.004133,0.315617,0.938082,-0.020457,-0.008161,0.002575,-0.000208,-0.001858,0.002113,0.08234,0.270387,-0.959224,-0.08243334041875938
1760630315.324334,-0.14284,-0.004242,0.315662,0.938049,-0.014826,-0.006327,0.002474,-0.001122,-0.001518,0.00152,0.082219,0.27066,-0.959158,-0.08231188001383224
1760630315.324582,-0.142953,-0.004352,0.315706,0.938017,-0.009195,-0.004492,0.002373,-0.002036,-0.001178,0.000926,0.082098,0.270933,-0.959091,-0.08219049227119427
1760630315.328906,-0.143028,-0.004431,0.315734,0.937995,-0.01098,-0.005929,0.000717,-0.001778,0.000838,0.001264,0.082006,0.271117,-0.959047,-0.08209817107878538
1760630315.357979,-0.143112,-0.004527,0.315764,0.937972,-0.012338,-0.000955,0.000601,0.000261,-0.000543,0.004808,0.081886,0.271329,-0.958997,-0.0819777896076196
1760630315.389465,-0.143238,-0.004512,0.315739,0.937961,-0.012482,0.012995,-0.001704,-0.00014,-0.001568,0.004964,0.081988,0.271553,-0.958925,-0.08208012426512457
1760630315.389797,-0.143394,-0.004422,0.3157,0.937951,-0.009464,0.018356,7.2e-05,-0.001174,-0.000624,0.002686,0.082245,0.271786,-0.958837,-0.08233799336860372
1760630315.420026,-0.143546,-0.004331,0.315668,0.937939,-0.012259,0.011747,-0.005348,-0.001877,0.00347,0.000358,0.082502,0.272009,-0.958752,-0.0825958444220363
1760630315.449277,-0.143724,-0.00432,0.315568,0.937946,-0.018323,0.003102,-0.012282,-0.001297,0.002978,0.000153,0.082605,0.272337,-0.95865,-0.08269919813119694
1760630315.45302,-0.143914,-0.004395,0.31545,0.937956,-0.019097,3.5e-05,-0.010645,-0.000168,0.000526,0.000855,0.08255,0.272743,-0.958539,-0.08264403406178839
1760630315.483105,-0.144104,-0.004513,0.315347,0.937961,-0.017049,-0.004721,-0.002801,-0.000584,-0.003775,0.000226,0.08242,0.273174,-0.958427,-0.08251362496275888
1760630315.513218,-0.144243,-0.004656,0.315367,0.937932,-0.012757,-0.008137,0.010682,-0.000265,-0.003277,0.000183,0.082245,0.273517,-0.958344,-0.0823380449770295
1760630315.513574,-0.144341,-0.004794,0.315531,0.937861,-0.011984,-0.012469,0.019058,-0.000838,-0.001163,-0.000234,0.082096,0.273769,-0.958285,-0.08218852497807926
1760630315.542219,-0.144429,-0.004942,0.315766,0.937767,-0.014526,-0.016076,0.023876,-0.000601,0.000299,-9.5e-05,0.081943,0.274002,-0.958232,-0.08203496833326974
1760630315.578994,-0.144464,-0.005121,0.31602,0.937676,-0.012749,-0.017278,0.02058,-0.000546,0.001217,0.000961,0.081702,0.274157,-0.958208,-0.0817931767568549
1760630315.579348,-0.144499,-0.005301,0.316273,0.937584,-0.010972,-0.01848,0.017285,-0.000492,0.002135,0.002016,0.081462,0.274313,-0.958184,-0.0815523573579771
1760630315.632299,-0.14444,-0.005485,0.316464,0.937527,-0.000635,-0.020954,0.015037,-0.0008,0.002809,0.001261,0.081136,0.274304,-0.958214,-0.08122529309591993
1760630315.632792,-0.14438,-0.005668,0.316655,0.937471,0.009703,-0.023429,0.012789,-0.001107,0.003484,0.000505,0.08081,0.274295,-0.958244,-0.08089822869765202
1760630315.6335,-0.144124,-0.005788,0.316839,0.937447,0.031268,-0.015976,0.019781,0.0004,0.000335,0.003082,0.080477,0.273886,-0.958389,-0.08056414061482678
1760630315.663661,-0.143739,-0.005741,0.31712,0.937412,0.049782,-0.010595,0.03365,0.000157,0.000132,0.001212,0.080401,0.273126,-0.958612,-0.08048791226080412
1760630315.668521,-0.143202,-0.005619,0.317529,0.937356,0.063478,-0.00724,0.049171,-8e-06,0.000471,0.000889,0.080407,0.272032,-0.958923,-0.08049389483139704
1760630315.696647,-0.142585,-0.005429,0.318049,0.937275,0.06861,-0.012247,0.056466,0.001002,0.003192,0.000897,0.080521,0.270736,-0.95928,-0.0806082771097807
1760630315.727619,-0.141937,-0.00523,0.318649,0.937171,0.068195,-0.012321,0.063886,0.000995,0.002771,0.003187,0.080652,0.269371,-0.959653,-0.08073971956467108
1760630315.729557,-0.141331,-0.005076,0.319264,0.937054,0.059138,-0.011712,0.061173,0.000393,0.00376,0.00281,0.08073,0.268111,-0.959999,-0.08081799258312279
1760630315.757993,-0.140829,-0.004942,0.319807,0.936945,0.04668,-0.00994,0.048407,0.000233,0.003712,0.002242,0.080816,0.267059,-0.960286,-0.0809041928279314
1760630315.788912,-0.140469,-0.004862,0.320207,0.936863,0.034595,-0.008974,0.03157,-0.000327,0.003073,0.001696,0.080849,0.266314,-0.96049,-0.08093730884386524
1760630315.790779,-0.140204,-0.004805,0.320476,0.936811,0.027477,-0.004888,0.017521,0.000642,0.001856,0.002672,0.08086,0.26577,-0.960639,-0.08094840284295546
1760630315.82201,-0.139975,-0.004756,0.320598,0.936804,0.027182,-0.000724,0.008232,0.000298,0.001164,0.002278,0.08084,0.265309,-0.960769,-0.08092826733024537
1760630315.852204,-0.139751,-0.00464,0.320641,0.936823,0.027002,0.003568,0.001993,0.000616,0.001057,0.001171,0.080925,0.26482,-0.960896,-0.08101360480801727
1760630315.852527,-0.139537,-0.00453,0.320605,0.936868,0.025849,0.006645,-0.003774,0.00043,-9e-06,0.00086,0.080983,0.26436,-0.961018,-0.08107177788093607
1760630315.880418,-0.139352,-0.004401,0.320538,0.936919,0.021315,0.004542,-0.005095,-0.00145,-0.001467,-0.000262,0.081089,0.263945,-0.961123,-0.08117813749374483
1760630315.885155,-0.139188,-0.004335,0.320483,0.936962,0.017858,0.003169,-0.001678,-0.000572,-0.004278,0.000101,0.081092,0.263607,-0.961216,-0.08118110869971368
1760630315.923591,-0.13906,-0.00429,0.320468,0.936987,0.013839,0.002687,-0.000923,-0.000121,-0.005248,0.001111,0.081089,0.263343,-0.961288,-0.08117814683193698
1760630315.925715,-0.138935,-0.004201,0.320481,0.937001,0.015931,0.005573,0.002275,0.001334,-0.007049,0.002251,0.081179,0.263056,-0.961359,-0.08126844309674314
1760630315.954138,-0.138761,-0.004059,0.320534,0.93701,0.021531,0.011051,0.00881,0.000562,-0.007166,9.7e-05,0.081349,0.262642,-0.961458,-0.08143899298169548
1760630315.992407,-0.138533,-0.003868,0.320615,0.937016,0.026133,0.008147,0.009112,-0.000852,-0.003782,-0.000655,0.081584,0.262096,-0.961587,-0.08167478264249262
1760630315.993753,-0.138276,-0.003728,0.320669,0.937036,0.021479,0.003143,0.004865,-0.001556,-0.002196,-0.001364,0.081696,0.261529,-0.961732,-0.0817871465751697
1760630316.024807,-0.138065,-0.003637,0.320658,0.937072,0.01457,0.001578,-0.00318,-0.000844,-0.001813,-0.000362,0.081727,0.261086,-0.96185,-0.08181822884031437
1760630316.026849,-0.137914,-0.003588,0.320583,0.93712,0.008649,0.00179,-0.00913,-0.00102,-0.004236,0.000636,0.0817,0.260785,-0.961933,-0.08179121292063478
1760630316.055738,-0.137792,-0.003568,0.320497,0.937167,0.010502,0.001202,-0.00611,-0.000636,-0.006848,6.3e-05,0.081636,0.260555,-0.962001,-0.08172697930208475
1760630316.08598,-0.137643,-0.003547,0.320463,0.937201,0.012982,-0.001309,0.001291,-0.001949,-0.007717,-0.000377,0.08157,0.260271,-0.962084,-0.08166071697719736
1760630316.087213,-0.137521,-0.003539,0.320496,0.937208,0.009317,-0.004622,0.005502,-0.003126,-0.005314,0.000398,0.081517,0.260039,-0.962151,-0.08160755755121715
1760630316.117318,-0.137416,-0.003548,0.320563,0.9372,0.000745,-0.004231,0.007943,-0.002353,-0.003645,0.000904,0.08145,0.259847,-0.962209,-0.08154029821390628
1760630316.146373,-0.137404,-0.003556,0.320649,0.937172,-0.006651,-0.00366,0.00752,-0.00148,-0.002895,0.000963,0.081452,0.259822,-0.962215,-0.08154235062034974
1760630316.148535,-0.137416,-0.003608,0.320741,0.937139,-0.009188,-0.002535,0.008317,-0.001902,-0.002392,0.001554,0.081387,0.25987,-0.962208,-0.08147709775707497
1760630316.178139,-0.137465,-0.003652,0.320834,0.9371,-0.013082,-0.003202,0.005254,-0.00223,0.000204,0.001171,0.081362,0.25998,-0.96218,-0.08145204592792242
1760630316.185492,-0.137549,-0.003735,0.320858,0.937079,-0.01407,-0.002321,-0.000629,-0.001216,0.001396,-0.000106,0.081267,0.260186,-0.962133,-0.0813566788378073
1760630316.247461,-0.137666,-0.003741,0.32076,0.937095,-0.013637,0.003436,-0.00726,-0.001029,0.001616,-0.000341,0.081303,0.260412,-0.962068,-0.08139286219004431
1760630316.247753,-0.137783,-0.003748,0.320662,0.937111,-0.013204,0.009194,-0.013891,-0.000842,0.001836,-0.000577,0.08134,0.260639,-0.962004,-0.0814299379938983
1760630316.248559,-0.137939,-0.003755,0.320502,0.937143,-0.013741,0.008682,-0.015694,-0.000679,0.000914,0.002326,0.081381,0.260944,-0.961917,-0.08147114077334532
1760630316.278558,-0.138107,-0.003764,0.320323,0.937179,-0.011647,0.01133,-0.014752,2.7e-05,-0.000167,0.001167,0.081424,0.261274,-0.961824,-0.08151426662929033
1760630316.2834,-0.138247,-0.003714,0.320196,0.937202,-0.006765,0.01044,-0.010089,8e-06,-4.9e-05,0.000341,0.081571,0.261509,-0.961748,-0.08166173181029535
1760630316.311986,-0.138362,-0.003638,0.3201,0.937219,-0.004575,0.009391,-0.005811,0.000611,-0.00085,0.002038,0.081761,0.26168,-0.961685,-0.08185239638950749
1760630316.342631,-0.138431,-0.003543,0.32007,0.937219,-0.003262,0.006179,0.002477,-0.001366,-0.000234,0.000315,0.081974,0.261749,-0.961648,-0.08206612090384062
1760630316.343726,-0.138466,-0.003505,0.320117,0.937198,-0.000398,-0.000198,0.008762,-0.000383,-6.6e-05,8.9e-05,0.08208,0.261784,-0.96163,-0.08217243430050843
1760630316.36315,-0.138477,-0.003539,0.320213,0.937163,-0.006786,-0.011769,0.011117,-0.000297,0.001501,-0.002551,0.082052,0.261818,-0.961623,-0.08214435007558932
1760630316.391453,-0.138523,-0.003648,0.320349,0.93711,-0.006589,-0.002688,0.011872,0.003726,0.001143,0.005293,0.081914,0.261959,-0.961596,-0.08200591279513739
1760630316.422223,-0.138611,-0.003617,0.320438,0.937066,-0.005939,0.012782,0.005206,0.002549,0.002414,0.005683,0.082053,0.262094,-0.961548,-0.08214533180637883
1760630316.424235,-0.138694,-0.003494,0.320446,0.937052,0.001707,0.011973,0.001476,0.001264,0.001371,0.001894,0.08234,0.262167,-0.961503,-0.08243335103744931
1760630316.45563,-0.138699,-0.00343,0.320421,0.93706,0.003228,0.00624,-0.004306,0.001066,0.004891,0.000162,0.082456,0.262138,-0.961501,-0.08254974416549488
1760630316.485169,-0.138701,-0.003411,0.320299,0.937101,0.001151,-0.001484,-0.014463,0.001462,0.002745,0.000822,0.08246,0.262139,-0.961501,-0.08255370885420742
1760630316.485511,-0.138726,-0.003428,0.32015,0.937148,-0.000923,-0.002936,-0.015877,0.000785,-0.000782,-0.000298,0.082402,0.262209,-0.961486,-0.08249558119461868
1760630316.524864,-0.138719,-0.003487,0.320025,0.937192,0.000591,-0.00373,-0.005032,0.000508,-0.004445,-0.002002,0.082251,0.262245,-0.96149,-0.08234399623870146
1760630316.526898,-0.138704,-0.003583,0.320066,0.93718,0.002742,-0.012113,0.010476,0.000924,-0.006308,-0.001412,0.082073,0.262274,-0.961497,-0.08216541622582005
1760630316.555712,-0.138661,-0.003665,0.320269,0.937117,0.003795,-0.014051,0.026948,-0.000654,-0.004034,-0.001143,0.081948,0.26223,-0.961519,-0.08204004613819259
1760630316.561996,-0.138571,-0.003756,0.320617,0.93701,0.001676,-0.018647,0.036881,-0.000157,-0.000969,-0.000274,0.081818,0.262093,-0.961568,-0.08190956250560213
1760630316.591896,-0.138503,-0.00389,0.321014,0.936884,-0.002506,-0.024315,0.036863,-0.001564,0.001488,-0.000985,0.081635,0.26202,-0.961604,-0.08172590477773417
1760630316.621475,-0.138427,-0.004114,0.321378,0.93677,-0.007917,-0.027121,0.026862,-0.001663,0.002705,0.001466,0.081267,0.261993,-0.961642,-0.08135671944598596
1760630316.621746,-0.138356,-0.004306,0.321614,0.936698,0.000868,-0.017666,0.018161,-0.000438,0.000589,0.004667,0.080928,0.261966,-0.961678,-0.08101659474013177
1760630316.650982,-0.138259,-0.004417,0.321733,0.936671,0.010603,-0.014046,0.007304,-0.001519,-0.000343,0.001283,0.080691,0.261848,-0.96173,-0.08077882102299808
1760630316.681183,-0.138079,-0.004475,0.3218,0.936674,0.022348,-0.004352,0.001865,-0.000467,-0.000692,0.003065,0.080484,0.26155,-0.961828,-0.08057117896101912
1760630316.695519,-0.137868,-0.004412,0.321781,0.936712,0.022962,0.006281,-0.00385,5e-05,0.001042,0.003872,0.080461,0.261125,-0.961946,-0.08054805702534094
1760630316.725252,-0.137699,-0.004235,0.321711,0.936762,0.021202,0.013695,-0.006152,-0.001014,-0.000701,0.002674,0.080664,0.260707,-0.962042,-0.08075174789516694
1760630316.725544,-0.137599,-0.004079,0.321594,0.936818,0.009476,0.012632,-0.010323,-0.001025,0.000161,0.001215,0.08086,0.260434,-0.9621,-0.08094835022749404
1760630316.754846,-0.137603,-0.004,0.321429,0.936874,0.001207,0.01046,-0.010188,-0.000802,-0.002496,0.00158,0.080964,0.260405,-0.962099,-0.08105270038259538
1760630316.759904,-0.137661,-0.003888,0.321331,0.9369,-0.002729,0.009259,-0.005275,-0.000405,-0.004086,0.001652,0.081184,0.260448,-0.962069,-0.08127341293177481
1760630316.788609,-0.137732,-0.003841,0.321261,0.936913,-0.004983,0.008529,-0.004055,-0.001328,-0.004143,0.001241,0.081298,0.260555,-0.96203,-0.0813878223531714
1760630316.82392,-0.137823,-0.00377,0.321212,0.936917,-0.004921,0.009731,0.001727,-0.000203,-0.002537,0.00202,0.081477,0.260678,-0.961981,-0.08156746018209024
1760630316.825739,-0.137926,-0.003736,0.321229,0.936896,-0.007903,0.008957,0.003321,0.001208,-0.003621,0.001478,0.081611,0.260846,-0.961925,-0.08170183712343221
