quat_x,quat_y,quat_z,quat_w,rot_x,rot_y,rot_z,acc_x,acc_y,acc_z,grav_x,grav_y,grav_z,pitch_rad
-0.07301,-0.370442,0.0,0.925982,0.007085,0.005092,-0.002741,0.753154,0.064892,-0.261706,-0.686045,0.135212,-0.714885,-0.7560393784229708
-0.105644,0.015616,0.169649,0.979701,0.00584,0.000395,0.000761,-0.00025,-0.001445,0.001417,0.066443,0.201702,-0.977191,0.06649180386475745
-0.105602,0.015596,0.169666,0.979703,0.002703,-0.001689,0.004324,-6e-05,-0.000347,0.00034,0.066393,0.201625,-0.97721,0.06644190798524333
-0.105597,0.015611,0.169699,0.979698,-0.00145,-0.001762,0.002605,0.000134,-0.000486,0.000513,0.066428,0.201608,-0.977211,0.06647649205503424
-0.104825,0.016277,0.169835,0.979746,-0.005419,-0.000544,0.00232,-0.000203,0.001249,0.001306,0.067501,0.199875,-0.977494,0.06755192350487098
-0.104774,0.016136,0.169855,0.979751,-0.001117,-0.000917,0.003493,0.000602,0.001125,0.001694,0.067211,0.199823,-0.977524,0.06726200588202168
-0.104851,0.015966,0.169897,0.979738,0.00084,-0.002591,5.7e-05,0.001678,0.002718,0.003075,0.066912,0.200028,-0.977503,0.06696276693486695
-0.104932,0.015956,0.169866,0.979735,0.002714,-5.6e-05,-0.000395,0.001246,0.000655,0.000473,0.066914,0.200191,-0.977469,0.06696409694971343
-0.104997,0.015913,0.169865,0.979729,0.005076,-0.007431,0.000984,0.001006,-0.000623,0.000575,0.066852,0.200331,-0.977445,0.06690138093854263
-0.105062,0.015871,0.169864,0.979722,0.007439,-0.014807,0.002363,0.000766,-0.001902,0.000677,0.06679,0.200471,-0.97742,0.06684059798270882
-0.105121,0.015894,0.169919,0.979706,0.008373,-0.010351,0.004727,0.00056,-0.001982,-0.000645,0.066867,0.200573,-0.977394,0.06691693450292989
-0.10518,0.015917,0.169974,0.97969,0.009308,-0.005895,0.007091,0.000354,-0.002062,-0.001966,0.066944,0.200676,-0.977368,0.06699328294755162
-0.10489,0.015871,0.170122,0.979696,0.013438,-0.012142,0.006116,4.7e-05,0.000266,0.0008,0.066785,0.200121,-0.977492,0.0668354512228724
-0.104632,0.015792,0.170186,0.979714,-0.001586,-0.010342,-0.002818,-0.002837,0.002694,-0.000268,0.066557,0.199643,-0.977606,0.06660632790803
-0.104562,0.015721,0.170163,0.979727,-0.002567,-0.018725,-0.008059,-0.001426,0.003163,0.00046,0.06639,0.199534,-0.977639,0.06643861041567636
-0.104516,0.015599,0.170138,0.979738,-0.003575,-0.018029,-0.009708,-0.001521,0.003531,0.002554,0.06613,0.199488,-0.977666,0.06617844767396881
-0.104616,0.015366,0.170001,0.979755,-0.011622,-0.009559,-0.011361,-0.001412,0.00231,0.002899,0.06568,0.199772,-0.977639,0.06572679308629661
-0.10477,0.01523,0.169924,0.979754,-0.013923,-0.009364,-0.008232,-0.001729,0.001238,0.003002,0.065448,0.200121,-0.977583,0.06549599840311779
-0.104903,0.01513,0.169882,0.979748,-0.011648,-0.006142,-0.004548,-0.001373,0.001547,0.003297,0.065289,0.200416,-0.977533,0.06533591157151544
-0.105212,0.014955,0.169831,0.979727,-0.007316,-0.002442,0.001245,-0.002494,0.002078,0.001678,0.065041,0.201078,-0.977413,0.06508609613411773
-0.105283,0.014893,0.169837,0.979719,-0.002972,-0.002618,-0.000977,-0.001896,0.003498,0.001125,0.064944,0.201237,-0.977387,0.06498954697051468
-0.10529,0.014838,0.169813,0.979723,0.002021,-0.00351,-0.005431,-0.000706,0.004002,0.001094,0.064833,0.201271,-0.977388,0.06487898737935187
-0.105297,0.014782,0.169789,0.979727,0.007014,-0.004402,-0.009886,0.000483,0.004506,0.001064,0.064721,0.201306,-0.977388,0.06476646345610443
-0.105243,0.014703,0.169709,0.979748,0.01255,-0.004531,-0.00956,0.00014,0.002312,0.000845,0.064531,0.201233,-0.977416,0.06457671135115262
-0.105082,0.014561,0.169593,0.979788,0.019536,-0.005416,-0.002081,-0.000204,0.000371,0.000342,0.064175,0.200978,-0.977491,0.06421986278057157
-0.10505,0.014543,0.16957,0.979795,0.016886,-0.008123,0.002535,-0.000767,-0.001632,-0.001799,0.064124,0.200923,-0.977506,0.06416900300388066
-0.105017,0.014525,0.169547,0.979803,0.014237,-0.01083,0.00715,-0.001331,-0.003634,-0.003941,0.064073,0.200867,-0.977521,0.06411783515602158
-0.104884,0.014426,0.169645,0.979802,0.022172,-0.018654,0.013441,-2.2e-05,-0.003464,0.001236,0.063854,0.200636,-0.977583,0.06389881455385701
-0.10452,0.014367,0.169861,0.979804,0.019444,0.006418,0.013795,0.001056,-0.001741,0.002789,0.063662,0.199938,-0.977738,0.06370451112885538
-0.104431,0.014367,0.169921,0.979803,0.013452,-0.003567,0.009454,0.000403,-0.001455,-0.000485,0.063645,0.199761,-0.977776,0.06368674282485448
-0.104267,0.014348,0.169996,0.979808,0.017179,-0.005189,0.008085,0.000304,-0.001411,-0.000984,0.063566,0.199446,-0.977845,0.06360940315121899
-0.103923,0.014284,0.170084,0.97983,0.009475,-0.010876,-0.003876,-0.000615,0.000993,-0.00094,0.063342,0.198795,-0.977992,0.06338549819025026
-0.103865,0.014247,0.170075,0.979839,0.009681,-0.007897,-0.004987,-0.000439,-0.000405,0.001432,0.06325,0.198695,-0.978018,0.06329145933447308
-0.103748,0.014209,0.169977,0.979868,-1.1e-05,0.00075,-0.007715,-0.002165,-0.002553,0.002216,0.063116,0.198489,-0.978069,0.06315741571534765
-0.103736,0.014199,0.169923,0.979879,-0.001594,0.002238,-0.005607,-0.002351,-0.003626,0.003268,0.063081,0.198471,-0.978075,0.06312277877722693
-0.103741,0.014206,0.169894,0.979884,0.001909,0.006264,-4.3e-05,-0.000983,-0.0046,0.001821,0.063089,0.198481,-0.978072,0.0631323404409402
-0.10372,0.014355,0.169924,0.979878,0.004408,0.009596,0.005566,-0.000559,-0.002532,0.001611,0.063381,0.198388,-0.978072,0.06342384467979874
-0.103687,0.014413,0.169937,0.979879,0.004574,0.012004,0.004667,-4.5e-05,-0.000792,0.001445,0.063486,0.198303,-0.978083,0.06352923247856444
-0.103638,0.014569,0.169871,0.979893,-0.004032,0.012365,-0.008071,0.001028,0.001071,-0.000498,0.063763,0.198158,-0.978094,0.06380558853832058
-0.103631,0.014612,0.169792,0.979907,-0.005496,0.009955,-0.013285,-4.5e-05,0.000712,0.000611,0.063827,0.198135,-0.978094,0.06387165114939299
-0.103648,0.014635,0.169711,0.979919,-0.005005,0.007933,-0.014115,0.000265,0.000816,-9.4e-05,0.063862,0.198166,-0.978086,0.06390613040801495
-0.103666,0.014658,0.16963,0.979931,-0.004514,0.00591,-0.014945,0.000575,0.000921,-0.000799,0.063897,0.198198,-0.978077,0.06394094528439803
-0.103764,0.014619,0.169393,0.979962,-0.003778,-0.001134,-0.012165,4.3e-05,-0.001723,-0.000297,0.063805,0.198417,-0.978039,0.0638492933635708
-0.103853,0.01459,0.169294,0.97997,-0.002057,0.000768,0.001676,0.000169,-0.002857,0.001516,0.06376,0.198606,-0.978003,0.06380218214106019
-0.103893,0.014584,0.169413,0.979945,-0.003143,0.001275,0.01115,-0.000488,-0.00131,0.000691,0.063784,0.198678,-0.977987,0.06382801593956451
-0.103905,0.014578,0.169522,0.979925,-0.002121,-0.00013,0.013204,-0.000421,0.000242,0.001315,0.063799,0.198696,-0.977982,0.06384242001944514
-0.103917,0.014573,0.16963,0.979905,-0.001098,-0.001536,0.015258,-0.000353,0.001795,0.001938,0.063815,0.198714,-0.977978,0.0638585853904446
-0.10391,0.01458,0.16973,0.979889,-0.001912,-0.001084,0.011226,-0.00075,0.002741,0.001156,0.063848,0.198691,-0.97798,0.06389030937450128
-0.103932,0.014541,0.169797,0.979875,-0.006254,-0.003233,-0.006323,-0.00114,0.003602,0.000365,0.063792,0.198743,-0.977973,0.06383475263906319
-0.103965,0.014483,0.169768,0.979878,-0.006076,-0.006108,-0.010917,-0.000705,0.002766,0.001282,0.063683,0.198828,-0.977963,0.06372612980806208
-0.104004,0.014439,0.169688,0.979888,-0.004313,-0.00357,-0.008514,-0.000745,0.001951,0.001606,0.063594,0.198924,-0.977949,0.06363660913201492
-0.104043,0.014395,0.169607,0.979899,-0.00255,-0.001031,-0.006111,-0.000785,0.001137,0.001929,0.063505,0.19902,-0.977936,0.06354689503920602
-0.104138,0.01439,0.169514,0.979905,0.001076,0.001911,-0.001386,-0.001185,-0.001079,0.00238,0.063508,0.199211,-0.977897,0.06355013092292568
-0.104153,0.014429,0.1695,0.979905,-1.7e-05,0.002514,0.001551,-4.1e-05,-0.000212,0.002627,0.063586,0.199228,-0.977888,0.06362889183512889
-0.104172,0.014513,0.169526,0.979897,0.00083,0.006654,0.005675,-4.7e-05,0.000282,0.00028,0.063762,0.199236,-0.977875,0.06380549999414352
-0.104174,0.014553,0.169549,0.979892,0.001092,0.005073,0.004109,-0.000134,0.000809,0.000802,0.063845,0.199223,-0.977872,0.06388938725714009
-0.104175,0.014592,0.169572,0.979888,0.001353,0.003492,0.002543,-0.000221,0.001336,0.001324,0.063928,0.19921,-0.977869,0.06397099996678204
-0.104166,0.014608,0.169561,0.97989,0.001243,0.002431,-0.000186,-0.000225,0.001363,0.001351,0.063953,0.199188,-0.977872,0.06399712432458185
-0.104161,0.014686,0.169548,0.979892,0.000508,0.003345,-0.000498,0.000203,6.7e-05,0.000218,0.064102,0.199153,-0.97787,0.06414594747979176
-0.104166,0.014692,0.169527,0.979895,-0.000732,0.003661,-0.001024,0.000766,0.000254,0.000823,0.06411,0.199162,-0.977867,0.06415513373938003
-0.104187,0.014747,0.169541,0.979889,-0.000371,0.002245,0.002223,0.000472,-0.000436,0.000779,0.064229,0.199183,-0.977855,0.06427302557236206
-0.104206,0.014765,0.169568,0.979883,-5.3e-05,0.00032,0.000317,0.001031,0.000258,0.001147,0.064277,0.199212,-0.977846,0.06432029174531767
-0.104203,0.014839,0.169619,0.979873,-0.000594,0.003594,0.00356,0.001003,0.000266,0.002693,0.064431,0.199178,-0.977843,0.0644749495237052
-0.104212,0.014871,0.169632,0.979869,-0.000899,0.00544,0.005389,0.001579,0.001924,0.001115,0.064499,0.199184,-0.977837,0.06454344755741521
-0.104209,0.014888,0.1697,0.979857,-0.002478,0.001039,0.004013,0.000541,0.0026,0.00026,0.064546,0.199167,-0.977838,0.06458965670923457
-0.104248,0.014855,0.16975,0.979845,-0.005411,-0.003211,-0.001325,-0.000514,0.002237,0.001366,0.064504,0.19925,-0.977823,0.06454820464738303
-0.104273,0.014831,0.169756,0.979842,-0.00251,-0.003414,0.000811,-0.00089,0.002023,0.001159,0.064467,0.199307,-0.977814,0.06451074391019294
-0.104298,0.014808,0.169762,0.979838,0.000392,-0.003618,0.002946,-0.001265,0.001808,0.000951,0.06443,0.199363,-0.977805,0.06447521823403106
-0.104297,0.014796,0.169829,0.979827,0.005019,0.001382,0.005524,-0.000762,0.000673,0.000207,0.064421,0.199361,-0.977806,0.06446499163850894
-0.104285,0.014826,0.169882,0.979819,0.003978,-0.006682,0.00794,-0.002326,0.000635,-0.000941,0.064486,0.199323,-0.97781,0.06453065889607063
-0.10416,0.014696,0.170014,0.979811,0.010416,-0.00823,0.009056,-0.001106,-0.001334,0.001162,0.064215,0.199117,-0.97787,0.06426013785914607
-0.104076,0.014668,0.170054,0.979814,0.016203,-0.003738,0.008763,-0.00038,-0.001519,0.00147,0.064142,0.198961,-0.977906,0.06418496520624407
-0.103702,0.014627,0.170206,0.979827,0.028731,-0.011983,0.007918,0.00014,0.000771,0.002333,0.063966,0.198241,-0.978064,0.06400896435699803
-0.103492,0.01459,0.170234,0.979845,0.025908,-0.006844,0.002509,0.000275,0.001746,0.002436,0.063828,0.197845,-0.978153,0.0638710095250696
-0.103282,0.014553,0.170262,0.979863,0.023084,-0.001704,-0.0029,0.000411,0.00272,0.002539,0.063689,0.197449,-0.978242,0.06373302967308096
-0.103064,0.014496,0.170126,0.979911,0.007073,-0.013032,-0.013608,-0.000914,0.002697,-8.1e-05,0.063477,0.197054,-0.978336,0.06352001824135034
-0.10302,0.014381,0.170064,0.979928,0.005806,-0.015017,-0.011815,-0.000395,0.001699,0.001014,0.063225,0.197014,-0.97836,0.06326687360716057
-0.103042,0.014193,0.169871,0.979961,-0.005557,-0.006439,-0.010462,0.000569,0.001643,0.00204,0.062826,0.197133,-0.978362,0.06286626960283918
-0.10312,0.014146,0.169835,0.97996,-0.008811,-0.005467,-0.004784,0.000595,0.000997,0.002961,0.062751,0.197302,-0.978332,0.06279305575208187
-0.103197,0.014098,0.169799,0.979959,-0.012066,-0.004494,0.000894,0.000622,0.00035,0.003882,0.062676,0.197471,-0.978303,0.06271752712644534
-0.10338,0.014059,0.169838,0.979934,-0.009037,0.00088,0.005987,-6.4e-05,0.000443,0.000493,0.062669,0.197835,-0.97823,0.0627105837986828
-0.103423,0.014056,0.169884,0.979921,-0.005674,-0.000693,0.004819,-6.8e-05,0.001698,0.000508,0.062687,0.197918,-0.978212,0.06272849494002823
-0.103467,0.014052,0.169929,0.979909,-0.00231,-0.002265,0.003651,-7.2e-05,0.002953,0.000523,0.062704,0.198001,-0.978194,0.0627446118527048
-0.103472,0.014033,0.169928,0.979909,0.004725,-0.001801,-0.003886,-1e-05,0.002202,0.000118,0.062669,0.198018,-0.978193,0.0627087972209707
-0.103386,0.014025,0.169885,0.979925,0.008444,-0.000838,-0.003201,8.4e-05,0.00141,0.000276,0.062614,0.197856,-0.978229,0.06265534368875704
-0.1033,0.014016,0.169841,0.979942,0.012164,0.000126,-0.002515,0.000177,0.000618,0.000434,0.062559,0.197695,-0.978265,0.06259976199682811
-0.103214,0.014007,0.169798,0.979959,0.015883,0.001089,-0.00183,0.000271,-0.000174,0.000592,0.062504,0.197534,-0.978301,0.06254440188340674
-0.10299,0.014071,0.169796,0.979982,0.011345,0.002816,0.002786,2.2e-05,-0.001292,0.000988,0.062554,0.197077,-0.97839,0.06259409968692109
-0.102898,0.01406,0.169837,0.979985,0.01384,-0.00855,0.005597,9.7e-05,-0.002095,0.001259,0.062509,0.196901,-0.978429,0.06254973278962174
-0.102761,0.014037,0.169892,0.97999,0.016298,-0.001638,0.007083,0.00104,-0.002718,0.003574,0.06243,0.19664,-0.978486,0.062469405335091176
-0.102624,0.014015,0.169948,0.979995,0.018757,0.005274,0.008568,0.001982,-0.003342,0.005889,0.06235,0.196379,-0.978544,0.06239121708348829
-0.10248,0.014178,0.169997,0.979999,0.005228,0.002973,0.003246,-2.7e-05,-0.001929,-0.001747,0.062632,0.196039,-0.978594,0.06267245657089202
-0.102379,0.014169,0.170003,0.980009,0.000557,0.000401,-0.001695,-5e-06,-0.000333,-0.000302,0.06258,0.195847,-0.978636,0.0626218899266825
-0.102371,0.014174,0.169979,0.980013,-0.001648,-0.000458,-0.005433,0.000552,5.3e-05,-0.000213,0.062584,0.195832,-0.978638,0.06262417402993911
-0.102413,0.014166,0.169912,0.980021,-0.005239,-6.3e-05,-0.007984,0.000659,-0.000249,0.001823,0.062569,0.19592,-0.978622,0.0626092461164271
-0.102468,0.014177,0.169851,0.980025,-0.006965,0.003094,-0.005861,0.000769,-0.001606,0.003183,0.062596,0.196027,-0.978599,0.06263716394273273
-0.102523,0.014187,0.169791,0.98003,-0.008691,0.006251,-0.003739,0.00088,-0.002962,0.004543,0.062622,0.196134,-0.978575,0.06266333851423675
-0.102719,0.01434,0.169743,0.980016,-0.009594,0.01198,-0.001327,0.000258,-0.00148,0.002133,0.062979,0.196463,-0.978486,0.06302022768592591
-0.102791,0.014444,0.169722,0.98001,-0.008532,0.012205,-0.004027,0.0008,-0.00034,0.001543,0.063203,0.196569,-0.978451,0.06324447018892831
-0.102863,0.014548,0.169701,0.980005,-0.007469,0.01243,-0.006727,0.001341,0.0008,0.000953,0.063426,0.196674,-0.978415,0.06346873646991641
-0.102935,0.014652,0.16968,0.979999,-0.006406,0.012656,-0.009427,0.001882,0.00194,0.000364,0.06365,0.196779,-0.97838,0.06369296843937106
-0.103006,0.014756,0.169658,0.979994,-0.005344,0.012881,-0.012127,0.002423,0.003081,-0.000226,0.063874,0.196884,-0.978344,0.0639166781807561
-0.10313,0.01487,0.169413,0.980021,-0.004369,0.005082,-0.015702,0.001435,0.002283,-0.000668,0.064089,0.1971,-0.978286,0.0641329043000414
-0.103167,0.014871,0.169278,0.980041,-0.002205,0.00217,-0.014282,0.001076,0.000678,0.000256,0.064077,0.197181,-0.978271,0.0641201143656088
-0.103204,0.014873,0.169142,0.98006,-4.2e-05,-0.000742,-0.012862,0.000717,-0.000928,0.001181,0.064065,0.197261,-0.978255,0.06410903201742524
-0.103214,0.014861,0.169066,0.980073,0.000733,-0.000479,0.003366,0.001308,-0.002488,0.00273,0.064029,0.197289,-0.978252,0.06407351836081403
-0.10321,0.014877,0.169134,0.980061,0.001347,4.5e-05,0.008003,0.000614,-0.000742,0.002114,0.064074,0.197272,-0.978253,0.06411729757739046
-0.103207,0.014894,0.169202,0.98005,0.001962,0.000568,0.01264,-7.9e-05,0.001004,0.001497,0.06412,0.197256,-0.978253,0.06416340814797644
-0.103192,0.01494,0.169434,0.98001,-0.000654,0.002675,0.014045,0.000696,0.00312,0.001114,0.064252,0.197196,-0.978256,0.06429545485650459
-0.10319,0.014965,0.169515,0.979996,2e-06,0.001618,0.010264,0.000449,0.003367,0.001457,0.064315,0.197177,-0.978256,0.06436020931355839
-0.103187,0.01499,0.169595,0.979982,0.000659,0.00056,0.006483,0.000203,0.003615,0.0018,0.064379,0.197159,-0.978255,0.06442441528844214
-0.103167,0.015011,0.169621,0.97998,0.000338,0.00076,-0.001948,0.000868,0.003687,0.00279,0.064419,0.197112,-0.978262,0.06446417791230043
-0.103167,0.015046,0.169545,0.979992,0.00678,0.002313,-0.001299,0.000155,0.000982,0.002103,0.064473,0.197104,-0.97826,0.06451756721883416
-0.103143,0.015068,0.169542,0.979995,0.007131,0.002398,-0.001264,0.000565,0.001937,0.002857,0.064507,0.197049,-0.978269,0.06455209212559103
-0.103124,0.015117,0.169555,0.979994,0.006098,0.002902,0.00053,0.000332,0.001772,0.002418,0.064599,0.196996,-0.978274,0.06464453283742526
-0.103106,0.015166,0.169567,0.979993,0.005066,0.003407,0.002324,9.9e-05,0.001608,0.001979,0.064691,0.196943,-0.978278,0.06473710611897593
-0.103088,0.015214,0.16958,0.979992,0.004033,0.003912,0.004119,-0.000135,0.001444,0.00154,0.064783,0.19689,-0.978283,0.06482792139396612
-0.103037,0.015304,0.169656,0.979983,0.001886,0.002935,0.004584,0.000349,0.000843,0.00118,0.064957,0.196757,-0.978298,0.0650027772383185
-0.103017,0.015357,0.169702,0.979976,7.9e-05,0.001604,0.001832,-4.7e-05,0.000711,0.000755,0.065064,0.196696,-0.978303,0.06510935722163372
-0.103015,0.015363,0.169706,0.979975,0.001134,0.001005,0.00054,0.000303,-5.1e-05,0.001532,0.065075,0.19669,-0.978304,0.06512125673771464
-0.102997,0.015379,0.169709,0.979977,0.0021,0.002392,0.001271,0.000259,5e-06,0.001453,0.0651,0.196649,-0.97831,0.06514724111921588
-0.102978,0.015394,0.169712,0.979978,0.003065,0.00378,0.002003,0.000216,6e-05,0.001375,0.065126,0.196608,-0.978317,0.06517089032922738
-0.102937,0.015519,0.169746,0.979974,0.004446,0.003153,0.000765,0.000509,-0.000977,0.001071,0.065362,0.196484,-0.978326,0.06540935208664797
-0.102926,0.015544,0.169742,0.979976,0.003854,0.003546,0.001405,0.00042,-0.000808,0.000885,0.065407,0.196452,-0.978329,0.06545395057837881
-0.102914,0.01557,0.169737,0.979977,0.003262,0.003938,0.002044,0.000332,-0.000638,0.000699,0.065453,0.196421,-0.978333,0.06549993606234568
-0.102869,0.015665,0.16976,0.979977,0.002515,0.002294,0.000898,0.000724,-0.000123,0.000943,0.065629,0.196301,-0.978345,0.06567596582145113
-0.10286,0.015703,0.169761,0.979977,0.002728,0.003715,0.002093,0.000485,-3.5e-05,0.001138,0.065701,0.19627,-0.978346,0.06574774903940411
-0.102851,0.015742,0.169761,0.979977,0.002942,0.005136,0.003288,0.000246,5.4e-05,0.001333,0.065774,0.196238,-0.978348,0.06582129061942449
-0.102838,0.015783,0.169853,0.979962,-0.002062,0.001525,0.003705,0.000144,0.000461,0.001753,0.065867,0.196193,-0.978351,0.06591588879044948
-0.102909,0.015837,0.169898,0.979946,-0.004113,0.001535,0.003353,-0.000455,0.002756,0.00273,0.066006,0.196309,-0.978318,0.06605490136417178
-0.102959,0.015842,0.169921,0.979936,-0.003685,0.001681,0.000862,3.8e-05,0.002293,0.002073,0.066038,0.196403,-0.978297,0.06608617813985107
-0.103009,0.015848,0.169944,0.979927,-0.003257,0.001828,-0.001629,0.000531,0.001829,0.001416,0.066071,0.196497,-0.978276,0.06611945529902692
-0.103042,0.015875,0.169925,0.979926,-0.003833,0.006315,-0.003669,0.00042,0.000517,0.001023,0.066131,0.196553,-0.978261,0.06617977223348016
-0.10313,0.015927,0.169886,0.979923,-0.001644,-0.000549,0.000407,4.4e-05,-8.5e-05,9.3e-05,0.066254,0.196707,-0.978221,0.06630372348326323
-0.103114,0.015933,0.1699,0.979922,0.001082,0.000358,0.001814,0.000692,-0.00133,0.001458,0.066264,0.196674,-0.978227,0.06631292174728964
-0.103105,0.015964,0.169925,0.979918,0.000874,0.004141,0.004303,0.000909,-0.002743,-3.9e-05,0.066328,0.196644,-0.978229,0.06637578454616706
-0.103078,0.016038,0.170028,0.979902,0.007081,-0.003475,0.010278,0.000914,0.000305,-0.000156,0.066484,0.196559,-0.978235,0.06653270367533863
-0.103032,0.016023,0.170051,0.979903,0.003125,-0.002432,0.004947,0.000558,0.001599,0.000287,0.066443,0.196473,-0.978256,0.06649234632146946
-0.102985,0.016008,0.170073,0.979905,-0.00083,-0.001388,-0.000383,0.000201,0.002893,0.00073,0.066402,0.196386,-0.978276,0.06645146953537681
-0.102939,0.015993,0.170095,0.979906,-0.004786,-0.000345,-0.005713,-0.000155,0.004187,0.001173,0.066362,0.1963,-0.978296,0.06641089747998022
-0.103087,0.015795,0.16994,0.97992,-0.012501,-0.011437,-0.0101,-0.000235,0.002831,0.001449,0.065993,0.196667,-0.978247,0.06604087697783395
-0.103252,0.015647,0.169838,0.979923,-0.014685,-0.000825,-0.002114,-0.000561,0.00343,0.003363,0.065737,0.197043,-0.978188,0.06578537651602855
-0.103366,0.015614,0.169801,0.979918,-0.013365,-0.003243,0.000896,-0.000181,0.002039,0.002918,0.065705,0.197278,-0.978143,0.06575154629825337
-0.103466,0.015573,0.169809,0.979907,-0.013429,-0.001608,0.00373,-0.000265,0.002054,0.00246,0.065659,0.197485,-0.978105,0.06570636851668861
-0.10369,0.015564,0.169948,0.979859,-0.009637,0.002596,0.009744,-0.001102,0.003998,0.001369,0.065745,0.197914,-0.978012,0.0657923220192768
-0.103774,0.015534,0.170061,0.979831,-0.005934,-0.000157,0.009313,-1.5e-05,0.003364,0.000914,0.065737,0.198078,-0.977979,0.06578464816256092
-0.103857,0.015504,0.170174,0.979803,-0.002231,-0.002911,0.008881,0.001072,0.00273,0.000459,0.065728,0.198243,-0.977947,0.06577667464168778
-0.103869,0.015482,0.170221,0.979794,0.000301,-0.004174,0.005334,0.001651,0.003233,0.000713,0.0657,0.198271,-0.977943,0.0657470685010449
-0.103759,0.015406,0.170322,0.979789,0.010331,-0.006085,-0.000255,0.001204,0.001197,0.00052,0.065535,0.198076,-0.977993,0.06558113885376055
-0.103654,0.015324,0.170302,0.979805,0.009032,-0.006946,-0.001593,0.000197,0.001764,0.001516,0.065334,0.197901,-0.978042,0.06538060026993942
-0.103608,0.015265,0.170283,0.979814,0.003118,-0.002398,-0.00055,3e-06,-0.002275,0.002509,0.065198,0.197835,-0.978065,0.06524536482163822
-0.103586,0.015237,0.170302,0.979814,0.005045,-0.009084,0.00698,-0.000828,-0.003447,-0.001184,0.06514,0.197801,-0.978075,0.06518681458662873
-0.103497,0.015161,0.170406,0.979806,0.009541,-0.00721,0.007844,0.001306,-0.001606,0.004005,0.064984,0.197647,-0.978117,0.06502851851178282
-0.10345,0.015187,0.170456,0.979802,0.000998,0.005561,0.005358,0.000653,-0.000951,0.001795,0.065029,0.197544,-0.978135,0.06507376947317438
-0.103459,0.015221,0.170472,0.979798,-0.001225,-0.002566,0.000365,-0.000459,-0.001026,-0.000669,0.065101,0.197548,-0.978129,0.06514680790022108
-0.103437,0.015207,0.170478,0.979799,-0.000249,-0.001768,-0.000797,-0.000444,0.000544,-0.000218,0.065067,0.197511,-0.978139,0.06511307292115041
-0.103478,0.015183,0.170437,0.979803,-0.006799,-0.004773,-0.006577,-0.000298,0.001107,0.000851,0.065026,0.1976,-0.978124,0.06507157014033223
-0.103565,0.015089,0.170378,0.979805,-0.010048,-0.00514,-0.005473,0.000266,-2e-05,0.001661,0.064859,0.197805,-0.978093,0.06490451024010374
-0.103659,0.015057,0.170341,0.979802,-0.009973,0.002068,-0.00088,0.000265,-0.00144,0.002959,0.064821,0.198002,-0.978056,0.0648659916210068
-0.103736,0.015095,0.170371,0.979788,-0.006552,0.005162,0.003381,0.000616,-0.0007,0.002244,0.064927,0.198134,-0.978022,0.06497271540297114
-0.103812,0.015133,0.170402,0.979774,-0.003131,0.008257,0.007642,0.000966,4.1e-05,0.001529,0.065033,0.198267,-0.977988,0.06507931359258352
-0.103857,0.015235,0.170479,0.979754,-0.003018,0.006885,0.007292,0.001328,0.00187,0.001673,0.065264,0.198314,-0.977963,0.06531039917270262
-0.103916,0.015311,0.170529,0.979738,-0.003034,0.007471,0.000311,0.002105,0.004687,0.001503,0.065442,0.198398,-0.977934,0.06548972331401116
-0.103995,0.015343,0.170434,0.979746,-0.005983,0.005397,-0.007322,0.002055,0.003926,0.000407,0.065513,0.198548,-0.977899,0.06556000739467928
-0.104074,0.015375,0.17034,0.979753,-0.008933,0.003323,-0.014955,0.002004,0.003165,-0.000688,0.065583,0.198697,-0.977864,0.06563044052185432
-0.104177,0.015373,0.170194,0.979768,-0.008271,-0.000911,-0.01529,0.001232,0.001137,-0.000311,0.065585,0.198906,-0.977822,0.06563165567200488
-0.104265,0.015312,0.170076,0.97978,-0.004411,-0.00197,-0.010973,0.000652,0.000423,0.001855,0.06547,0.199104,-0.977789,0.06551759392125107
-0.104334,0.015266,0.170025,0.979782,-0.005182,-0.001871,-0.002436,0.000566,-0.000277,0.001991,0.065392,0.199257,-0.977763,0.06544017774419013
-0.104394,0.015242,0.170065,0.979769,-0.006969,-0.003422,0.005356,0.000968,0.000192,0.001426,0.065374,0.199379,-0.977739,0.06542146639703819
-0.104455,0.015201,0.170175,0.979744,-0.008578,-0.006347,0.013923,0.000929,0.000274,0.000279,0.065337,0.199505,-0.977716,0.06538401324431102
-0.104521,0.015132,0.170348,0.979708,-0.004942,-0.008982,0.018816,-8e-05,0.002084,0.002066,0.065259,0.199644,-0.977693,0.06530618032083406
-0.104522,0.015065,0.170527,0.979678,-0.002358,-0.008093,0.014695,-0.000159,0.003712,0.001441,0.065166,0.199658,-0.977696,0.06521155369816545
-0.10453,0.015,0.170663,0.979654,-0.001578,-0.005673,0.00934,0.000649,0.004424,0.002163,0.065069,0.199688,-0.977697,0.06511443001904635
-0.104547,0.014944,0.170757,0.979637,-0.000805,-0.00376,0.004663,9.9e-05,0.004896,0.002976,0.064984,0.199733,-0.977693,0.06502947825834185
-0.104544,0.014916,0.170763,0.979637,-0.000265,-0.00333,0.001493,0.000743,0.00365,0.002152,0.064928,0.199736,-0.977696,0.06497473295610903
-0.104541,0.014887,0.170768,0.979637,0.000276,-0.002899,-0.001676,0.001387,0.002403,0.001328,0.064872,0.199739,-0.977699,0.0649178148434641
-0.104558,0.014873,0.170754,0.979638,-0.00042,0.000227,-0.001439,8.2e-05,0.00215,0.001871,0.064847,0.199778,-0.977693,0.06489324149922937
-0.104572,0.014905,0.170765,0.979634,0.001288,0.000518,-0.000583,9.2e-05,0.001092,0.002004,0.064917,0.199794,-0.977685,0.0649630478756728
-0.104564,0.014929,0.170753,0.979636,0.003098,0.001055,-0.000613,0.000459,0.00207,0.001918,0.064958,0.199772,-0.977687,0.06500497674770025
-0.104555,0.014978,0.170781,0.979631,0.001773,0.002831,0.001717,-0.000156,0.002068,0.002018,0.065057,0.199734,-0.977688,0.06510382190804538
-0.104523,0.015012,0.17079,0.979633,0.003554,0.001692,0.002016,0.000495,0.001771,0.001393,0.065117,0.199661,-0.977699,0.06516157074377821
-0.104487,0.015044,0.170794,0.979635,0.002715,-0.000115,0.001265,0.000556,0.002239,0.001781,0.065167,0.199579,-0.977712,0.0652129756285728
-0.10445,0.015022,0.170796,0.979639,0.002022,0.000453,3.2e-05,0.000569,0.002343,0.001868,0.065111,0.199516,-0.977729,0.06515765341467104
-0.104431,0.015033,0.170782,0.979644,0.002049,-0.000508,-0.001313,0.001471,0.001522,0.00069,0.065124,0.199475,-0.977736,0.06516996762246771
-0.104375,0.015038,0.170751,0.979655,0.003323,0.000862,-0.000766,0.00183,0.0014,0.001517,0.065109,0.199367,-0.977759,0.0651544631592517
-0.104333,0.015064,0.170746,0.97966,0.006839,0.00223,0.001025,0.001996,0.000825,0.001147,0.065143,0.199278,-0.977775,0.06519024540976529
-0.104276,0.015101,0.170764,0.979662,0.008594,0.000517,0.003575,0.001588,0.002311,0.00162,0.0652,0.199153,-0.977797,0.06524721065316906
-0.104197,0.015093,0.170804,0.979664,0.005654,-0.000919,0.002385,0.001691,0.001495,0.000612,0.065167,0.199,-0.97783,0.06521287846604322
-0.104154,0.015145,0.170863,0.979657,0.004462,-0.002592,0.005727,0.000395,0.000896,0.001777,0.065267,0.198896,-0.977845,0.06531236431043574
-0.104104,0.015133,0.170925,0.979652,0.004338,-0.002767,0.006076,0.000475,0.001562,0.001829,0.065237,0.198798,-0.977867,0.06528446434848133
-0.104054,0.01512,0.170988,0.979646,0.004214,-0.002942,0.006425,0.000556,0.002229,0.001881,0.065208,0.198701,-0.977888,0.06525476702581429
-0.104009,0.015121,0.171061,0.979639,0.003474,-0.003863,0.005981,0.001343,0.002885,0.002055,0.06521,0.198609,-0.977907,0.0652563143110366
-0.103964,0.015123,0.171133,0.979631,0.002734,-0.004784,0.005536,0.00213,0.003541,0.002229,0.065213,0.198516,-0.977926,0.06525957316164371
-0.103956,0.015123,0.171145,0.979629,0.000441,-0.000772,0.000893,0.000729,0.003139,0.002519,0.065213,0.1985,-0.977929,0.06525926883784779
-0.103955,0.015123,0.171147,0.979629,0.001613,0.000395,-0.000123,0.000597,0.002492,0.00199,0.065213,0.198498,-0.977929,0.06525934252470005
-0.103935,0.015131,0.171165,0.979628,0.002346,-0.000477,0.000874,0.001531,0.002708,0.002933,0.065226,0.198455,-0.977937,0.0652719088609962
-0.103919,0.015208,0.171152,0.979631,0.006829,0.00832,0.002301,0.000124,0.000981,0.001008,0.065369,0.198398,-0.977939,0.06541498899782125
-0.103851,0.015272,0.171155,0.979636,0.007343,-0.000476,0.003033,1.7e-05,0.000136,0.00014,0.065471,0.198245,-0.977963,0.06551810180492898
-0.103757,0.015283,0.171178,0.979642,0.011414,0.002154,0.002329,0.000547,0.000195,0.003565,0.065465,0.198058,-0.978002,0.06551242068690152
-0.10367,0.015386,0.171221,0.979642,0.009401,0.005463,0.003701,0.000169,-0.000577,-0.000142,0.065647,0.19785,-0.978032,0.06569374764149626
-0.103552,0.01541,0.171268,0.979646,0.014959,-0.00497,0.005984,0.00074,-0.000467,-0.001952,0.065663,0.197611,-0.978079,0.06571025508596147
-0.103333,0.015384,0.171322,0.97966,0.017149,-0.001879,0.002114,0.000392,0.003248,0.002637,0.065549,0.197192,-0.978171,0.0655956419054612
-0.103208,0.015401,0.171334,0.979671,0.006805,0.001412,-0.000589,0.000689,0.004455,0.001236,0.065543,0.196942,-0.978222,0.06558892120725461
-0.103178,0.015329,0.171265,0.979688,0.001502,-0.01258,-0.009541,0.000638,0.003916,-0.000751,0.065377,0.196914,-0.978239,0.06542349636772879
-0.103167,0.015204,0.171195,0.979703,-0.002308,-0.008321,-0.0091,0.000499,0.003837,0.001154,0.065114,0.19694,-0.978251,0.06516025838065319
-0.103156,0.015079,0.171124,0.979718,-0.006117,-0.004063,-0.008658,0.00036,0.003759,0.003058,0.064851,0.196967,-0.978263,0.06489681373859113
-0.103253,0.015013,0.171057,0.979721,-0.007592,-0.002709,-0.002114,-0.000384,0.002845,0.002759,0.064741,0.197183,-0.978227,0.06478671181637627
-0.103344,0.014932,0.171063,0.979711,-0.005065,-0.003044,0.001935,-0.000345,0.002131,0.002106,0.064616,0.197387,-0.978194,0.06465980515671524
-0.103369,0.01494,0.171137,0.979696,0.001168,0.000275,0.010233,-0.000641,0.002646,0.001422,0.064654,0.197427,-0.978183,0.06469896597930662
-0.103366,0.014964,0.171236,0.979678,0.003344,0.001095,0.010571,0.000421,0.005758,0.002354,0.064719,0.197407,-0.978183,0.06476503069422172
-0.103292,0.014982,0.171341,0.979668,0.010392,0.000729,0.004307,0.000532,0.008717,0.002275,0.064751,0.197249,-0.978213,0.06479641368120867
-0.103181,0.015005,0.171354,0.979677,0.010074,-0.002284,-0.006394,0.000862,0.006948,0.000336,0.064761,0.197026,-0.978257,0.06480641449368409
-0.10306,0.014959,0.171248,0.979709,0.017454,-0.00275,-0.010771,0.002674,0.005367,0.002024,0.064609,0.196815,-0.97831,0.0646536051757516
-0.102881,0.014949,0.171158,0.979743,0.019565,-0.002187,-0.011282,0.000659,0.002495,0.001898,0.064509,0.196476,-0.978384,0.0645549964528883
-0.102675,0.014949,0.171089,0.979777,0.020866,-0.001769,-0.0034,0.001569,0.002006,0.001082,0.064427,0.196082,-0.978469,0.06447115232238419
-0.102496,0.014975,0.171059,0.979801,0.013018,0.004113,-0.002212,0.000449,0.000186,0.002683,0.064411,0.195727,-0.978541,0.06445538715955498
-0.102407,0.015091,0.171103,0.9798,0.012166,-0.001665,0.006446,-8.5e-05,-0.000739,-0.001954,0.064617,0.195512,-0.97857,0.0646616638349383
-0.102219,0.014933,0.171213,0.979803,0.019023,-0.019632,0.01198,0.003065,-0.000431,0.005056,0.064265,0.195196,-0.978656,0.06430955823988126
-0.102003,0.014981,0.171348,0.979801,0.01329,0.013012,0.005728,0.003312,-0.00036,0.006498,0.064314,0.194752,-0.978742,0.06435723482545247
-0.101922,0.015037,0.171374,0.979804,0.013425,0.005814,0.004647,0.002029,-0.00115,0.003572,0.0644,0.194574,-0.978771,0.06444478582318758
-0.101854,0.015038,0.171348,0.979816,0.005493,-0.00191,-0.001518,0.00163,-0.000729,0.002034,0.064374,0.194443,-0.978799,0.0644184484211133
-0.101856,0.01499,0.171302,0.979825,-0.001518,-0.003085,-0.004955,0.001459,-0.001618,0.002384,0.064271,0.194467,-0.978801,0.0643157578887022
-0.101936,0.014926,0.171223,0.979831,-0.00993,-0.001612,-0.006712,0.001741,-0.004529,0.002979,0.064157,0.194649,-0.978772,0.06420158619617955
-0.102063,0.014897,0.171169,0.979828,-0.013554,2.7e-05,-0.002705,0.00188,-0.005965,0.003273,0.064132,0.194909,-0.978722,0.06417708399365436
-0.102216,0.014903,0.171157,0.979814,-0.014863,0.003972,0.001904,0.002085,-0.005877,0.00264,0.064195,0.195204,-0.978659,0.06423847568007413
-0.102401,0.014947,0.171165,0.979792,-0.017444,0.007505,0.002216,0.001715,-0.005991,0.00241,0.064344,0.195546,-0.978581,0.06438932000969982
-0.1026,0.015008,0.171183,0.979767,-0.020079,0.00877,-0.000289,0.001673,-0.005247,0.001514,0.064536,0.195911,-0.978496,0.06458031848009647
-0.102842,0.015045,0.171141,0.979749,-0.026517,0.006159,-0.006358,0.002107,-0.006245,0.001077,0.064682,0.196369,-0.978394,0.0647267995069997
-0.103121,0.015071,0.171038,0.979737,-0.028495,0.006038,-0.013164,0.002333,-0.010135,0.000669,0.064806,0.196908,-0.978278,0.06485190097796116
-0.103396,0.015088,0.170875,0.979736,-0.025501,0.006537,-0.017803,0.002248,-0.018161,7.8e-05,0.064901,0.197446,-0.978163,0.06494574321969776
-0.103599,0.015083,0.170699,0.979746,-0.012812,-0.000183,-0.01259,0.002252,-0.029633,-0.002034,0.064924,0.197852,-0.978079,0.06496920540332642
-0.103605,0.015042,0.17063,0.979758,0.007397,-0.002511,-0.002734,0.004311,-0.036727,0.002624,0.064832,0.197883,-0.978079,0.06487678342660576
-0.103568,0.015094,0.170741,0.979741,-0.00771,-0.001762,0.002883,0.004867,-0.043977,0.001081,0.064942,0.197785,-0.978092,0.06498876653096615
-0.10353,0.015145,0.170851,0.979725,-0.022818,-0.001013,0.008499,0.005423,-0.051227,-0.000463,0.065053,0.197687,-0.978104,0.06509824726314103
-0.103492,0.015197,0.170962,0.979709,-0.037925,-0.000264,0.014115,0.005979,-0.058477,-0.002006,0.065163,0.197589,-0.978117,0.0652098797662811
-0.103784,0.0152,0.171123,0.97965,-0.058634,0.001777,0.018754,0.007645,-0.066084,-0.002734,0.065301,0.198143,-0.977996,0.06534751783139489
-0.104321,0.015197,0.171345,0.979554,-0.07638,0.006288,0.026498,0.008892,-0.071039,-0.003075,0.065522,0.199169,-0.977772,0.06556930171438133
-0.105096,0.015223,0.171621,0.979423,-0.106692,0.015965,0.027809,0.009411,-0.070993,-0.005608,0.065893,0.200642,-0.977446,0.06594065035448485
-0.106214,0.015206,0.171864,0.97926,-0.143779,0.007206,0.019715,0.010107,-0.068845,-0.006573,0.066291,0.202796,-0.976975,0.0663386275278231
-0.107648,0.015092,0.171985,0.979084,-0.174232,0.012212,0.001599,0.011649,-0.06944,-0.00293,0.066581,0.205601,-0.976368,0.06662964356182259
-0.109344,0.01504,0.172011,0.978892,-0.195018,0.028133,-0.000181,0.012651,-0.062839,-0.002802,0.067063,0.208898,-0.975635,0.06711218096232252
-0.111308,0.015003,0.17193,0.978686,-0.233339,0.028171,-0.023106,0.011552,-0.053551,-0.006276,0.067641,0.212711,-0.974771,0.06769250677157004
-0.113709,0.014782,0.171585,0.978474,-0.281331,0.01557,-0.048985,0.01007,-0.056107,-0.006585,0.067949,0.21745,-0.973704,0.06800151959658628
-0.116408,0.014433,0.171137,0.97824,-0.295072,0.01654,-0.048988,0.009843,-0.06075,-0.000799,0.068081,0.22281,-0.972482,0.06813401117555665
-0.119173,0.014109,0.170759,0.977978,-0.294904,0.023114,-0.033915,0.010796,-0.056398,0.00014,0.068297,0.228278,-0.971198,0.06834951295649551
-0.12197,0.01382,0.170538,0.977675,-0.30708,0.016252,-0.022487,0.00993,-0.045526,-0.003208,0.068623,0.23378,-0.969865,0.06867795242751316
-0.124963,0.013416,0.170368,0.977333,-0.335983,0.003741,-0.022768,0.010148,-0.036019,-0.002267,0.068803,0.23969,-0.968408,0.0688575921230342
-0.128195,0.012881,0.170157,0.976958,-0.356247,0.003934,-0.02833,0.010246,-0.028551,0.001141,0.068795,0.246099,-0.9668,0.0688493259386153
-0.131573,0.012341,0.16993,0.976555,-0.362882,0.003111,-0.026312,0.008273,-0.023477,0.00127,0.068819,0.252783,-0.965072,0.06887416988359517
-0.13496,0.011706,0.169768,0.976129,-0.356794,-0.012481,-0.016503,0.006268,-0.019167,0.002193,0.068676,0.259501,-0.963298,0.06873101159401467
-0.138293,0.011033,0.169743,0.975674,-0.355525,-0.013052,-0.001164,0.004198,-0.010215,0.002423,0.068478,0.266113,-0.961506,0.06853139082113875
-0.141702,0.010259,0.169821,0.97518,-0.370682,-0.028548,-0.00423,0.003235,0.000296,0.00461,0.068138,0.272885,-0.959631,0.06818952638020336
-0.145249,0.009356,0.169815,0.974668,-0.380524,-0.02874,-0.012606,0.004092,0.001437,0.009955,0.067569,0.279961,-0.95763,0.06762042635411263
-0.148767,0.008493,0.169815,0.974145,-0.365999,-0.020072,-0.002485,0.002817,0.004319,0.014381,0.067073,0.286957,-0.955593,0.06712295547355018
-0.152155,0.007762,0.169872,0.973618,-0.351262,-0.017763,-0.000261,0.001925,0.007962,0.015374,0.066808,0.293644,-0.953577,0.06685799212595686
-0.155478,0.007008,0.169909,0.973092,-0.34817,-0.017821,-0.005327,0.001314,0.006443,0.015572,0.066473,0.300207,-0.951555,0.0665221318450483
-0.158803,0.006305,0.169951,0.972553,-0.344238,-0.01015,0.001605,0.001594,0.005987,0.015563,0.066241,0.306745,-0.949484,0.06628989012775373
-0.162123,0.005626,0.170021,0.971997,-0.349091,-0.014266,0.002552,0.000963,0.009834,0.015472,0.066065,0.313252,-0.947369,0.06611369293481088
-0.165541,0.004838,0.170055,0.971418,-0.361418,-0.021984,-0.004274,0.001356,0.012499,0.017764,0.065702,0.319975,-0.945145,0.06574895113270009
-0.169081,0.004044,0.170062,0.970811,-0.375978,-0.018806,-0.006764,0.001495,0.014021,0.015778,0.065361,0.326916,-0.942791,0.0654070515633149
-0.172785,0.003207,0.169998,0.970173,-0.395304,-0.016748,-0.019122,0.000372,0.018591,0.015789,0.064969,0.334171,-0.94027,0.06501469067735789
-0.17664,0.0023,0.169833,0.96951,-0.410035,-0.026944,-0.027548,-0.00046,0.020319,0.013342,0.064458,0.341727,-0.937586,0.06450306800546944
-0.180542,0.001241,0.169608,0.968832,-0.406005,-0.035615,-0.033081,0.000513,0.021443,0.017192,0.063647,0.349409,-0.934806,0.06369042708644611
-0.184346,0.000237,0.169312,0.968168,-0.398833,-0.035725,-0.031279,-0.00098,0.024438,0.015674,0.062883,0.356875,-0.932033,0.06292440798353524
-0.188147,-0.000767,0.169013,0.967489,-0.391661,-0.035836,-0.029477,-0.002469,0.027456,0.014096,0.062115,0.364319,-0.929201,0.06215446091412495
-0.191845,-0.001825,0.168751,0.966807,-0.386024,-0.040268,-0.035817,-0.001866,0.03215,0.016107,0.06122,0.37157,-0.926384,0.06125752977898389
-0.195512,-0.002939,0.168421,0.966127,-0.381854,-0.03956,-0.037002,-0.002415,0.032384,0.016664,0.060177,0.378769,-0.923533,0.060214138829298554
-0.199097,-0.004023,0.168167,0.965435,-0.371503,-0.043571,-0.024786,-0.002673,0.034704,0.017206,0.059196,0.385784,-0.920688,0.05922982571906713
-0.202558,-0.005068,0.168048,0.96473,-0.360053,-0.036321,-0.012131,-0.001834,0.042226,0.016939,0.058301,0.392531,-0.917889,0.05833350751782652
-0.206001,-0.006031,0.167995,0.964004,-0.363198,-0.040586,-0.011885,-0.004543,0.0518,0.012177,0.057587,0.399199,-0.915054,0.057618335372253894
-0.209469,-0.007082,0.167947,0.963258,-0.36254,-0.050695,-0.009902,-0.0047,0.056633,0.010177,0.056715,0.405924,-0.912145,0.056746244177011164
-0.212832,-0.008224,0.167942,0.962512,-0.346946,-0.054876,-0.004459,-0.003224,0.062165,0.010322,0.055656,0.41247,-0.909269,0.05568423865688315
-0.216053,-0.00936,0.167947,0.961783,-0.327556,-0.057417,-0.009763,-0.004247,0.065543,0.011435,0.054566,0.418737,-0.906467,0.054593443364970365
-0.219061,-0.010498,0.167935,0.961093,-0.30215,-0.058751,-0.006514,-0.005992,0.066801,0.01161,0.053397,0.424602,-0.903804,0.05342231653197266
-0.221781,-0.011576,0.167999,0.960445,-0.271617,-0.06053,-0.000484,-0.005478,0.068576,0.013214,0.052282,0.429907,-0.901358,0.05230559680206879
-0.224227,-0.012564,0.168094,0.959848,-0.242849,-0.058087,0.001536,-0.006877,0.069627,0.013123,0.051263,0.434671,-0.899129,0.051285845505008365
-0.226413,-0.013507,0.168217,0.959301,-0.212793,-0.057211,0.007354,-0.007065,0.067767,0.014503,0.050259,0.438941,-0.897109,0.050279656212782596
-0.2283,-0.01437,0.168406,0.958808,-0.179083,-0.051128,0.012866,-0.006788,0.066744,0.016319,0.049339,0.442631,-0.895345,0.04935807642533102
-0.229746,-0.01504,0.168588,0.95842,-0.153958,-0.045007,0.012177,-0.006427,0.065759,0.016983,0.048635,0.445458,-0.893981,0.04865475804097519
-0.231192,-0.015711,0.168769,0.958029,-0.128832,-0.038886,0.011488,-0.006067,0.064777,0.017637,0.047933,0.44828,-0.892607,0.04795127186766389
-0.232391,-0.016267,0.168906,0.957706,-0.1116,-0.032004,0.006031,-0.007057,0.062632,0.015828,0.047347,0.450619,-0.89146,0.0473641686839351
-0.233451,-0.016732,0.168988,0.957426,-0.096653,-0.026629,0.006312,-0.006923,0.058685,0.015752,0.046862,0.452678,-0.890442,0.046878699828194904
-0.234356,-0.017114,0.169078,0.957182,-0.07865,-0.017593,0.006854,-0.008181,0.054489,0.014676,0.046487,0.454431,-0.889568,0.04650322114798213
-0.235084,-0.017393,0.169172,0.956982,-0.056812,-0.01705,0.004743,-0.007832,0.05139,0.011477,0.04625,0.455827,-0.888866,0.046266189205186624
-0.235618,-0.017681,0.169256,0.95683,-0.033774,-0.019436,0.009254,-0.007105,0.048112,0.013708,0.045925,0.456877,-0.888343,0.04594025579019724
-0.235943,-0.01785,0.16935,0.95673,-0.017634,-0.005608,0.006826,-0.006275,0.045261,0.014444,0.045759,0.457513,-0.888025,0.045774616803043636
-0.23616,-0.017933,0.169394,0.956667,-0.006926,-0.002222,0.002412,-0.005796,0.043415,0.00996,0.045697,0.457929,-0.887813,0.04571227394735313
-0.236241,-0.018015,0.169422,0.956641,0.003103,-0.007861,0.001263,-0.005839,0.038786,0.007785,0.04558,0.4581,-0.887731,0.04559686841199913
-0.236243,-0.018115,0.169432,0.956637,0.011484,-0.00894,-0.000892,-0.005359,0.033977,0.007657,0.045394,0.458136,-0.887722,0.045410895174555974
-0.236168,-0.018235,0.169436,0.956652,0.017548,-0.010152,-0.00013,-0.005814,0.027741,0.007463,0.045142,0.45804,-0.887785,0.04515696947796205
-0.235993,-0.01829,0.169481,0.956686,0.029993,-0.00601,0.003104,-0.004681,0.022685,0.008813,0.044997,0.457743,-0.887945,0.04501228378696962
-0.235669,-0.018236,0.169557,0.956754,0.036696,-0.003176,0.00349,-0.003503,0.019387,0.007591,0.045024,0.457139,-0.888255,0.04503915100853343
-0.235345,-0.018182,0.169633,0.956821,0.043399,-0.000342,0.003876,-0.002325,0.01609,0.006368,0.04505,0.456536,-0.888564,0.04506597077041181
-0.234929,-0.018059,0.169691,0.956915,0.046394,0.003774,0.006385,-0.001692,0.011424,0.00571,0.045169,0.455744,-0.888964,0.04518419109648224
-0.234514,-0.017936,0.169749,0.957009,0.049388,0.007891,0.008893,-0.00106,0.006758,0.005051,0.045288,0.454953,-0.889363,0.04530270158553708
-0.234084,-0.017743,0.169824,0.957105,0.049811,0.009987,0.008665,-0.0017,0.003039,0.004107,0.045543,0.454113,-0.889779,0.04555809237210406
-0.233678,-0.017545,0.169905,0.957193,0.045714,0.009191,0.007317,-0.000186,0.000964,0.003121,0.045818,0.453312,-0.890173,0.0458342650745461
-0.233329,-0.017357,0.169945,0.957275,0.04134,0.014171,0.007162,0.001191,-0.002455,0.002834,0.046076,0.452619,-0.890513,0.046091667570912466
-0.232995,-0.017124,0.169971,0.957356,0.034599,0.015856,0.001884,0.00154,-0.001856,0.001165,0.046418,0.45194,-0.89084,0.04643394232553849
-0.232718,-0.016937,0.169951,0.95743,0.028065,0.010546,-0.002651,0.001539,-0.004364,-0.000677,0.04667,0.451379,-0.891111,0.046686287613445746
-0.232436,-0.016784,0.169888,0.957512,0.031918,0.01097,-0.002816,0.001858,-0.006011,-0.001185,0.046834,0.450823,-0.891384,0.04685155002655391
-0.232146,-0.01665,0.169844,0.957593,0.030917,0.008263,-0.002405,0.001694,-0.004939,0.000182,0.046969,0.450259,-0.891662,0.0469866507328597
-0.231868,-0.016521,0.169847,0.957662,0.026849,0.007777,0.000648,0.002041,-0.005891,0.000391,0.04712,0.449714,-0.891929,0.047138555968547616
-0.231589,-0.016393,0.169851,0.957731,0.022781,0.007292,0.003701,0.002388,-0.006842,0.0006,0.047272,0.449169,-0.892195,0.04728870060731585
-0.231363,-0.016294,0.169913,0.957776,0.019561,0.002085,0.009258,0.00292,-0.006396,2.9e-05,0.047411,0.448726,-0.892411,0.04742893848284463
-0.23119,-0.016232,0.170005,0.957803,0.014133,0.000319,0.010349,0.001424,-0.005188,0.001657,0.047512,0.448388,-0.892575,0.0475306899101319
-0.231085,-0.016117,0.170103,0.957812,0.007136,0.003496,0.012364,0.001741,-0.004655,0.001946,0.047743,0.448156,-0.892679,0.047760546955093706
-0.231038,-0.016066,0.170219,0.957804,0.001592,0.000787,0.011493,0.001978,-0.004473,0.003053,0.047877,0.448049,-0.892726,0.047896267173443176
-0.231062,-0.016018,0.170337,0.957778,-0.004393,-0.000309,0.01096,0.001862,-0.003382,0.004355,0.048034,0.448069,-0.892708,0.04805192953280546
-0.231128,-0.015986,0.170465,0.95774,-0.008079,0.000482,0.011887,0.001723,-0.001691,0.004173,0.048177,0.448171,-0.892649,0.04819626261323359
-0.231193,-0.015954,0.170593,0.957702,-0.011764,0.001272,0.012814,0.001584,-1e-06,0.00399,0.048321,0.448272,-0.89259,0.04834028407527571
-0.231312,-0.015907,0.17073,0.95765,-0.016863,4.1e-05,0.013751,0.001833,0.002174,0.004356,0.048516,0.448464,-0.892483,0.048536172771760255
-0.231484,-0.015888,0.170884,0.957581,-0.020723,-1.3e-05,0.01763,0.001727,0.002618,0.00338,0.048687,0.44876,-0.892325,0.048704983699850365
-0.231709,-0.015905,0.171057,0.957495,-0.024954,-8e-06,0.017921,0.001184,0.00482,0.00423,0.048813,0.449162,-0.892116,0.04883238219120596
-0.231975,-0.015948,0.171234,0.957399,-0.028042,-0.005303,0.01418,0.001006,0.008145,0.004833,0.048907,0.449647,-0.891867,0.048926333322524176
-0.232232,-0.015993,0.171429,0.957301,-0.027288,-0.003669,0.017448,0.001692,0.009101,0.00484,0.049003,0.450114,-0.891625,0.04902200150221654
-0.232493,-0.016028,0.171595,0.957207,-0.023096,-0.001977,0.015221,0.000851,0.009553,0.004423,0.049105,0.450589,-0.89138,0.049124801066312
-0.232704,-0.016068,0.171724,0.957132,-0.020406,-0.003347,0.012329,0.001319,0.010442,0.004759,0.049164,0.450976,-0.891181,0.04918315591009342
-0.232886,-0.016104,0.171861,0.957062,-0.014158,-0.000544,0.011845,0.000416,0.010875,0.004404,0.049222,0.451308,-0.89101,0.049242887584218
-0.232968,-0.016098,0.171965,0.957024,-0.00773,0.001679,0.010814,0.000165,0.01185,0.005285,0.049312,0.451449,-0.890933,0.04933234696270959
-0.233051,-0.016092,0.172069,0.956985,-0.001302,0.003903,0.009783,-8.7e-05,0.012826,0.006166,0.049402,0.45159,-0.890857,0.0494222167589748
-0.233062,-0.016071,0.17217,0.956965,0.002044,-0.002132,0.009583,0.000897,0.011562,0.004522,0.049493,0.451598,-0.890848,0.04951402932514544
-0.23306,-0.016048,0.172271,0.956947,0.005734,0.002614,0.008781,0.000666,0.011194,0.006604,0.049585,0.451581,-0.890851,0.04960512873727578
-0.233011,-0.015938,0.172355,0.956946,0.008695,0.006638,0.008126,0.000753,0.012986,0.006277,0.049818,0.451453,-0.890903,0.04983824033904448
-0.232981,-0.01588,0.172373,0.956951,0.007986,0.006143,0.005182,0.001285,0.01259,0.00642,0.049927,0.451378,-0.890935,0.04994726896471914
-0.232951,-0.015821,0.172391,0.956956,0.007278,0.005648,0.002237,0.001817,0.012194,0.006564,0.050036,0.451303,-0.890967,0.05005821349575066
-0.232921,-0.015763,0.172409,0.956961,0.00657,0.005152,-0.000707,0.002349,0.011798,0.006707,0.050145,0.451228,-0.890999,0.050167241329163205
-0.232879,-0.015655,0.17236,0.956982,0.007111,0.006538,-0.00491,0.002075,0.011621,0.004407,0.050314,0.451119,-0.891045,0.05033619617784504
-0.232836,-0.015595,0.172302,0.957004,0.007709,-0.001815,-0.008787,0.001625,0.01021,0.004196,0.050387,0.451024,-0.891088,0.0504086077502344
-0.23275,-0.01562,0.172225,0.957038,0.014144,0.006635,-0.005972,0.002362,0.005875,0.006059,0.050274,0.450882,-0.891167,0.05029407078650335
-0.232615,-0.015479,0.17218,0.957081,0.020888,0.009748,0.000709,0.0021,0.005159,0.003948,0.050475,0.450593,-0.891302,0.0504954438614398
-0.232401,-0.015399,0.172176,0.957135,0.023875,0.004494,0.002778,0.001266,0.004797,0.003805,0.050549,0.450181,-0.891506,0.05057145851744714
-0.232213,-0.015316,0.172229,0.957173,0.022411,0.007048,0.009317,0.00287,0.004682,0.002912,0.050667,0.449811,-0.891685,0.05068920620028259
-0.231987,-0.015224,0.172326,0.957211,0.026106,-0.004247,0.010093,0.003789,0.004268,0.000854,0.05081,0.449368,-0.891901,0.050831510270368745
-0.231737,-0.015183,0.172447,0.957251,0.028161,-0.005002,0.009904,0.001822,0.003525,0.003465,0.050856,0.448897,-0.892135,0.05087876537985088
-0.231471,-0.015133,0.172552,0.957297,0.023025,0.004891,0.008953,0.002857,0.005168,0.003472,0.050908,0.448395,-0.892385,0.050930031757715245
-0.231312,-0.015073,0.172618,0.957325,0.013023,-0.002506,0.003144,0.00219,0.006398,0.00101,0.050997,0.448085,-0.892535,0.05101984161543199
-0.231175,-0.01512,0.172645,0.957352,0.014647,-0.011629,0.001329,0.002904,0.005449,0.003251,0.050873,0.447852,-0.892659,0.05089405943499796
-0.231027,-0.015148,0.172667,0.957383,0.015409,-0.007428,0.002302,0.00284,0.004916,0.003816,0.050776,0.447594,-0.892794,0.05079844724650885
-0.230879,-0.015177,0.172689,0.957415,0.01617,-0.003227,0.003275,0.002776,0.004382,0.004382,0.050679,0.447336,-0.892929,0.05070087132067631
-0.230732,-0.015206,0.172712,0.957446,0.016931,0.000973,0.004247,0.002712,0.003849,0.004947,0.050582,0.447079,-0.893063,0.05060411749172464
-0.230629,-0.015161,0.172733,0.957467,0.012856,0.00535,-0.000487,0.000604,0.003112,0.002728,0.050641,0.446877,-0.893161,0.05066383515143434
-0.230542,-0.015066,0.172772,0.957483,0.011837,0.006742,0.008491,0.000917,0.004586,0.002438,0.050811,0.446686,-0.893247,0.050833416829054415
-0.230425,-0.014974,0.17287,0.957495,0.010732,0.010617,0.010313,0.003085,0.004008,0.002125,0.050992,0.446439,-0.89336,0.051014203337547255
-0.230327,-0.014763,0.172951,0.957507,0.012717,0.015675,0.008514,0.004218,0.006408,0.001162,0.051399,0.446187,-0.893463,0.05142187697809332
-0.230253,-0.014551,0.173012,0.957517,0.015627,0.01264,0.006817,0.003499,0.005558,0.000612,0.051808,0.445977,-0.893544,0.051830607614492485
-0.230082,-0.01445,0.173035,0.957555,0.022345,0.009089,0.003197,0.002788,0.005296,0.002064,0.051951,0.445633,-0.893707,0.05197453533488293
-0.229897,-0.014302,0.173096,0.957591,0.017524,0.00161,0.006958,0.002504,0.003777,0.00359,0.052197,0.445246,-0.893886,0.05222130116482454
-0.229737,-0.014286,0.173138,0.957622,0.011188,-0.000636,0.002601,0.000322,0.002296,0.006097,0.052192,0.444949,-0.894034,0.052214956885211494
-0.229678,-0.014222,0.173219,0.957623,0.007678,-0.010479,0.011861,0.002136,1e-05,0.000421,0.05233,0.444817,-0.894091,0.0523544722618776
-0.229558,-0.014301,0.173421,0.957613,0.013118,-0.016023,0.021154,0.002607,-0.000596,0.008012,0.05223,0.444616,-0.894197,0.05225448598185424
-0.229427,-0.014263,0.173663,0.957601,0.009791,0.006151,0.020573,0.003085,0.001019,0.007869,0.05237,0.444354,-0.894319,0.052393403368259886
-0.229396,-0.014221,0.173835,0.957578,0.008,-0.00251,0.017756,0.002761,0.003482,0.004625,0.052518,0.444274,-0.89435,0.05254284679092249
-0.229389,-0.014285,0.173966,0.957555,0.003007,-0.006846,0.01286,0.001601,0.003702,0.004446,0.052455,0.444275,-0.894353,0.05247851146709902
-0.229382,-0.014348,0.174098,0.957532,-0.001987,-0.011181,0.007965,0.000442,0.003921,0.004268,0.052392,0.444277,-0.894356,0.05241655567636749
-0.229389,-0.014469,0.174204,0.957509,-0.002707,-0.011999,0.005923,0.000664,0.003553,0.004795,0.052212,0.444325,-0.894343,0.05223631965425161
-0.229415,-0.014589,0.174287,0.957486,-0.002923,-0.008635,0.006855,0.000189,0.00392,0.005832,0.052031,0.444408,-0.894312,0.05205408237944554
-0.22944,-0.014653,0.1744,0.957459,-0.000506,-0.006148,0.011193,-0.00028,0.002528,0.005018,0.05197,0.444469,-0.894285,0.05199280031406857
-0.229433,-0.014675,0.174538,0.957435,0.003484,-0.002499,0.015644,-7.5e-05,0.003868,0.004814,0.051989,0.444456,-0.894291,0.052012284765687034
-0.229397,-0.014607,0.174698,0.957415,0.005034,0.002163,0.014829,4.5e-05,0.006034,0.004636,0.052181,0.444359,-0.894328,0.052204180975849786
-0.229367,-0.014549,0.174742,0.957415,0.003611,0.003024,0.006265,-2.7e-05,0.006939,0.004346,0.052302,0.444284,-0.894358,0.05232510865693989
-0.229338,-0.014491,0.174787,0.957415,0.002188,0.003885,-0.002299,-9.9e-05,0.007844,0.004056,0.052422,0.444208,-0.894389,0.05244684117751096
-0.229316,-0.014486,0.174714,0.957434,0.000685,0.001744,-0.009822,0.000324,0.006908,0.003914,0.052391,0.444172,-0.894408,0.05241464985894981
-0.229287,-0.014503,0.174595,0.957462,0.001267,0.000387,-0.01287,0.000275,0.005611,0.003928,0.052293,0.444131,-0.894434,0.05231644660361563
-0.229261,-0.01454,0.174465,0.957492,0.001765,-0.000187,-0.012883,0.000192,0.005356,0.004294,0.052153,0.444104,-0.894456,0.05217584335964576
-0.229246,-0.014576,0.174372,0.957511,0.002161,-0.001954,-0.008394,0.000273,0.004506,0.003745,0.052035,0.444095,-0.894467,0.05205831676542105
-0.229232,-0.014619,0.174317,0.957524,0.001699,-0.002236,-0.002482,0.000251,0.004471,0.003849,0.051923,0.444088,-0.894478,0.05194534006854528
-0.229216,-0.014651,0.174334,0.957524,0.002498,-0.002814,0.005392,-0.000369,0.005027,0.004709,0.051862,0.444068,-0.894491,0.05188619404386856
-0.229209,-0.014669,0.174428,0.957509,0.000624,-0.005397,0.011037,-0.000689,0.006449,0.003934,0.051869,0.444056,-0.894496,0.05189282278788292
-0.229208,-0.014696,0.174591,0.957479,-0.002115,-0.006443,0.016204,-0.001421,0.008486,0.00284,0.051893,0.444055,-0.894495,0.051916403771385414
-0.229226,-0.014746,0.174807,0.957434,-0.002091,-0.010431,0.019332,-0.001102,0.010041,0.004092,0.051905,0.444093,-0.894476,0.051927308615154016
-0.229238,-0.014822,0.175027,0.95739,-0.002782,-0.010924,0.019298,-0.00114,0.01188,0.00578,0.051864,0.444129,-0.89446,0.05188809024784771
-0.229259,-0.014879,0.175237,0.957346,-0.001166,-0.008122,0.016548,-0.002206,0.01198,0.005611,0.051861,0.444175,-0.894438,0.05188389140314302
-0.229228,-0.014918,0.175421,0.957319,0.005386,-0.005702,0.018167,-0.002078,0.012229,0.006194,0.05186,0.444123,-0.894464,0.05188351469021646
-0.229145,-0.014928,0.175582,0.957309,0.01205,-0.004166,0.014475,-0.00246,0.011797,0.00617,0.051887,0.443968,-0.894539,0.05190936647894747
-0.22901,-0.014902,0.175723,0.957316,0.017736,-0.001776,0.011538,-0.002517,0.011638,0.006911,0.051953,0.443707,-0.894665,0.05197620174122374
-0.228814,-0.014864,0.175832,0.957343,0.023209,0.001078,0.010454,-0.002059,0.010116,0.007243,0.052006,0.443335,-0.894846,0.05202922481575253
-0.228597,-0.014778,0.175905,0.957383,0.025599,0.004769,0.007523,-0.001907,0.009013,0.006254,0.052125,0.442908,-0.89505,0.052149933369524136
-0.228368,-0.014671,0.17596,0.957429,0.026792,0.005644,0.005455,-0.000393,0.007784,0.006018,0.052275,0.442456,-0.895265,0.05229822176119377
-0.228128,-0.014544,0.175998,0.957482,0.027132,0.009237,0.002837,-0.000865,0.006858,0.005324,0.052449,0.441976,-0.895492,0.05247298373197195
-0.227892,-0.014395,0.175981,0.957543,0.026144,0.009625,-0.000446,-0.000891,0.0061,0.005401,0.052641,0.441499,-0.895716,0.05266600444421385
-0.227673,-0.014219,0.175964,0.957601,0.028016,0.010563,-0.000696,0.000261,0.005334,0.004487,0.052891,0.441045,-0.895925,0.052916939205668735
-0.227434,-0.014046,0.175934,0.957666,0.029504,0.012024,-0.001756,0.000634,0.005782,0.004863,0.053124,0.440553,-0.896153,0.05314901261653897
-0.227218,-0.013868,0.175891,0.957727,0.026115,0.012222,-0.002474,0.001154,0.005515,0.004414,0.053367,0.440104,-0.896359,0.053393051766765405
-0.227002,-0.01369,0.175847,0.957789,0.022726,0.01242,-0.003193,0.001673,0.005249,0.003964,0.05361,0.439655,-0.896565,0.053636692722661555
-0.226812,-0.013535,0.175784,0.957848,0.021031,0.012426,-0.00507,0.001752,0.003412,0.003074,0.05381,0.439261,-0.896746,0.053836899003598934
-0.226645,-0.013355,0.175699,0.957906,0.021476,0.013657,-0.003686,0.002128,0.003164,0.002211,0.054056,0.438903,-0.896907,0.0540832922217629
-0.226471,-0.013206,0.175641,0.95796,0.021749,0.009983,-0.003715,0.002099,0.003419,0.00145,0.054253,0.43854,-0.897073,0.05428019702630338
-0.226299,-0.013063,0.17557,0.958015,0.020978,0.010686,-0.004518,0.001931,0.002625,0.002014,0.054433,0.438183,-0.897236,0.0544604480518316
-0.226136,-0.012933,0.175506,0.958067,0.0182,0.008454,-0.002714,0.001458,0.001307,0.001542,0.054596,0.437846,-0.897391,0.054622246287698954
-0.225988,-0.012835,0.175492,0.958106,0.016974,0.005785,0.001425,0.001955,-0.000298,0.003348,0.054724,0.437545,-0.89753,0.05475094124091114
-0.22584,-0.012719,0.175523,0.958137,0.015547,0.00867,0.005559,0.002037,-0.001002,0.00329,0.054906,0.437236,-0.897669,0.05493476608242163
-0.225695,-0.012575,0.175607,0.958157,0.014324,0.006184,0.010859,0.002105,-0.000414,0.001558,0.05517,0.436919,-0.897807,0.055197620052641005
-0.225547,-0.012503,0.175739,0.958169,0.015387,0.000485,0.013018,0.002952,0.001833,0.002291,0.055314,0.436619,-0.897944,0.05534308144679768
-0.225397,-0.012422,0.175889,0.958178,0.010965,0.00178,0.01446,0.003034,0.003529,0.00259,0.055484,0.436311,-0.898084,0.055513239949455416
-0.225334,-0.012375,0.176009,0.958171,0.002239,-0.002632,0.008784,0.001784,0.00335,0.000848,0.055607,0.436173,-0.898143,0.05563558896733001
-0.225343,-0.012437,0.176106,0.95815,-0.004042,-0.007088,0.007072,0.003193,0.003913,0.001515,0.055535,0.436207,-0.898131,0.05556407230859292
-0.225408,-0.012536,0.176229,0.958111,-0.010449,-0.011932,0.007144,0.001523,0.004274,0.003813,0.055426,0.43635,-0.898068,0.055453510274967116
-0.225531,-0.012666,0.176351,0.958058,-0.018948,-0.01495,0.007291,0.002441,0.003612,0.004946,0.055276,0.436611,-0.897951,0.05530389654970782
-0.225733,-0.012846,0.176483,0.957984,-0.024148,-0.015871,0.011905,0.003094,0.004341,0.005296,0.055062,0.437031,-0.897759,0.055091412579417146
-0.225961,-0.012992,0.17668,0.957892,-0.024814,-0.013991,0.018545,0.003149,0.005007,0.005013,0.054956,0.437484,-0.897545,0.05498341313117805
-0.226181,-0.013128,0.176942,0.95779,-0.019633,-0.012354,0.024555,0.003266,0.006646,0.004388,0.054894,0.437913,-0.89734,0.05492170952082342
-0.226335,-0.013188,0.17724,0.957698,-0.010764,-0.012144,0.028431,0.003407,0.008664,0.00363,0.054971,0.438195,-0.897198,0.054998711376426035
-0.226385,-0.013246,0.177542,0.957629,-0.000376,-0.012443,0.024488,0.002844,0.011497,0.003769,0.055016,0.438289,-0.897149,0.05504397539411862
-0.226352,-0.01329,0.177782,0.957591,0.007947,-0.009256,0.016897,0.00398,0.012561,0.004053,0.055029,0.438232,-0.897176,0.055057666010221724
-0.226244,-0.013316,0.177937,0.957588,0.015291,-0.007562,0.008973,0.003254,0.012576,0.004356,0.055012,0.438035,-0.897273,0.05503965862472356
-0.226056,-0.013329,0.178022,0.957616,0.022532,-0.006345,0.002648,0.004116,0.011117,0.004368,0.054958,0.437696,-0.897442,0.05498545812570319
-0.225851,-0.013363,0.17803,0.957663,0.01879,-0.005252,-0.004959,0.002592,0.008575,0.005199,0.054821,0.437337,-0.897625,0.05484950374869661
-0.225687,-0.013394,0.178008,0.957705,0.016589,-0.007925,-0.002996,0.001375,0.004173,0.002651,0.054694,0.437052,-0.897772,0.05472048591023904
-0.225489,-0.013502,0.178042,0.957744,0.022017,-0.01617,0.004306,0.002545,0.001707,0.005562,0.054429,0.436729,-0.897945,0.05445701809688788
-0.225262,-0.013552,0.178108,0.957785,0.022143,-0.000974,0.008113,0.003753,0.001548,0.008708,0.054282,0.436332,-0.898147,0.054308816850038466
-0.22511,-0.01346,0.17817,0.95781,0.013549,0.004403,0.006268,0.003444,0.00078,0.004087,0.054432,0.436021,-0.898289,0.05445836619538147
-0.22501,-0.013374,0.178232,0.957823,0.011002,0.002672,0.009365,0.002603,0.000265,0.001667,0.054588,0.435806,-0.898384,0.05461526229894175
-0.224965,-0.013396,0.178254,0.957829,0.004931,-0.001834,0.003331,0.002984,0.002645,0.00205,0.05454,0.435732,-0.898423,0.05456674263428276
-0.224921,-0.013418,0.178275,0.957835,-0.00114,-0.006341,-0.002703,0.003365,0.005024,0.002434,0.054491,0.435658,-0.898461,0.05451812517472022
-0.224937,-0.013519,0.178257,0.957834,-0.005876,-0.004952,-0.006383,0.003246,0.005287,0.004013,0.054296,0.435724,-0.898441,0.05432198624519337
-0.225029,-0.013583,0.178196,0.957822,-0.009015,-0.003057,-0.00564,0.002121,0.002131,0.003961,0.054178,0.435917,-0.898355,0.054204882870793655
-0.225126,-0.013639,0.178162,0.957805,-0.008038,-0.001734,-0.000163,0.001951,0.000642,0.004396,0.054091,0.436114,-0.898264,0.0541172034199333
-0.225195,-0.013617,0.178203,0.957781,-0.003793,0.001955,0.006523,0.001171,0.001842,0.003635,0.054176,0.436229,-0.898203,0.05420317886816106
-0.225266,-0.013603,0.178291,0.957749,-0.00475,0.002095,0.005922,0.002044,0.004184,0.003783,0.054268,0.436346,-0.898141,0.054295955458188466
-0.225336,-0.01359,0.178379,0.957716,-0.005707,0.002235,0.005321,0.002916,0.006526,0.00393,0.05436,0.436463,-0.898078,0.054386507413900664
-0.225418,-0.013584,0.17842,0.957689,-0.007234,-9.1e-05,0.001639,0.003164,0.008762,0.00249,0.05442,0.436609,-0.898004,0.0544465608658867
-0.225478,-0.013634,0.178407,0.957677,-0.005865,-0.004181,-0.003483,0.00362,0.008127,0.001557,0.05434,0.436734,-0.897948,0.05436654876223158
-0.225511,-0.013723,0.178347,0.957679,-0.00311,-0.009697,-0.008144,0.002958,0.006656,0.002402,0.054154,0.436828,-0.897913,0.0541804669106091
-0.225529,-0.013832,0.178302,0.957682,-0.000114,-0.010749,-0.004216,0.002485,0.005599,0.004182,0.05393,0.436902,-0.897891,0.05395740680504745
-0.22552,-0.013953,0.178302,0.957682,0.002355,-0.008565,0.002457,0.002336,0.005267,0.004741,0.053696,0.436928,-0.897892,0.053722097358910974
-0.225508,-0.014027,0.1784,0.957665,0.00148,-0.01046,0.006854,0.001431,0.005383,0.004551,0.053595,0.436927,-0.897899,0.05362061152518128
-0.225512,-0.014135,0.178514,0.957642,-0.001501,-0.010932,0.009592,0.00013,0.006601,0.005078,0.053442,0.436966,-0.897889,0.05346702992895564
-0.225533,-0.014216,0.178651,0.95761,-0.002475,-0.010559,0.008391,0.001048,0.008407,0.004917,0.053357,0.437025,-0.897865,0.053381974025478646
-0.225554,-0.014297,0.178788,0.957578,-0.003449,-0.010186,0.00719,0.001966,0.010214,0.004755,0.053271,0.437084,-0.897842,0.053296940415666266
-0.225592,-0.014404,0.178871,0.957552,-0.005627,-0.010702,0.003189,0.001929,0.011678,0.004708,0.053119,0.437184,-0.897802,0.05314358676360249
-0.225631,-0.014544,0.178896,0.957536,-0.004554,-0.010273,-0.004254,0.001836,0.012597,0.005181,0.052876,0.437303,-0.897759,0.05290082994119271
-0.22563,-0.014691,0.178846,0.957543,-0.00045,-0.009922,-0.010005,0.001849,0.01131,0.006892,0.052572,0.437356,-0.89775,0.05259576358271111
-0.225598,-0.014815,0.178746,0.957568,0.006978,-0.005639,-0.0108,0.001509,0.009779,0.007491,0.052276,0.437347,-0.897772,0.052300580520329806
-0.225484,-0.014849,0.178647,0.957612,0.016156,-0.003122,-0.011165,0.001427,0.008302,0.005684,0.052124,0.437158,-0.897873,0.05214855198958837
-0.225321,-0.014888,0.178549,0.957669,0.018008,-0.004776,-0.011042,0.000391,0.006494,0.005408,0.051945,0.436882,-0.898018,0.05196951663242122
-0.225127,-0.014925,0.178465,0.957729,0.021332,-0.003226,-0.008469,0.001013,0.005768,0.005717,0.051767,0.436548,-0.89819,0.051789517600219784
-0.224944,-0.014937,0.178415,0.957781,0.019202,-0.001679,-0.005309,0.001629,0.00519,0.003177,0.051653,0.436225,-0.898354,0.05167701555338304
-0.224783,-0.014996,0.178359,0.957829,0.014914,-0.004662,-0.005798,0.001595,0.003892,0.003625,0.051456,0.435957,-0.898495,0.05147967000956731
-0.22463,-0.014992,0.178346,0.957867,0.016654,-0.003408,-0.003345,0.001671,0.003039,0.003234,0.051403,0.435678,-0.898633,0.05142570359654526
-0.224479,-0.01502,0.178344,0.957902,0.015164,-0.004825,0.00081,0.002289,0.003563,0.003528,0.051294,0.435416,-0.898767,0.0513161086594138
-0.224312,-0.015052,0.178361,0.957938,0.014327,-0.006426,-0.003265,0.0016,0.003415,0.002694,0.05118,0.435123,-0.898915,0.051201628535641155
-0.224141,-0.015085,0.178383,0.957973,0.015963,-0.005115,0.00064,0.001918,0.002439,0.003516,0.051064,0.434823,-0.899067,0.05108606030702689
-0.223986,-0.015122,0.17839,0.958008,0.009991,-0.00581,-0.000565,0.001227,0.001392,0.00228,0.050939,0.434555,-0.899203,0.050961787105078746
-0.223892,-0.015195,0.178392,0.958028,0.003047,-0.005582,-0.004309,0.001847,0.000847,0.001341,0.050766,0.434412,-0.899283,0.05078844410335765
-0.223882,-0.015276,0.178409,0.958026,0.000229,-0.008169,0.001573,0.000867,0.00202,0.001765,0.050616,0.434421,-0.899287,0.05063715431827633
-0.223885,-0.015367,0.17846,0.958014,-0.003254,-0.009714,0.00342,0.00052,0.000563,0.002509,0.050465,0.434454,-0.899279,0.05048687706584811
-0.223912,-0.015487,0.178549,0.957989,-0.006985,-0.013317,0.008807,1.3e-05,0.001786,0.003211,0.050285,0.434541,-0.899247,0.05030699284038231
-0.223956,-0.015628,0.178664,0.957955,-0.006387,-0.013645,0.009767,0.000615,0.002298,0.003246,0.050084,0.434665,-0.899199,0.05010487015272607
-0.224026,-0.015749,0.178815,0.957909,-0.011325,-0.0177,0.010954,0.000492,0.002899,0.002718,0.049947,0.434826,-0.899128,0.04996699020089221
-0.224091,-0.015903,0.178959,0.957864,-0.011297,-0.015905,0.013123,3e-05,0.00461,0.003146,0.04974,0.43499,-0.89906,0.04976091351365905
-0.224166,-0.016027,0.179117,0.957815,-0.009045,-0.014773,0.008741,-3.5e-05,0.007298,0.003115,0.049602,0.43516,-0.898986,0.049622443269005334
-0.224228,-0.016211,0.179214,0.957779,-0.010201,-0.016242,0.004815,-0.001039,0.008102,0.002688,0.049316,0.435333,-0.898918,0.04933649531999827
-0.224295,-0.016346,0.179265,0.957752,-0.006131,-0.009238,0.00413,-0.001013,0.005406,0.003273,0.049106,0.435498,-0.898849,0.04912541469459038
-0.224324,-0.016462,0.179341,0.957729,-0.000431,-0.012131,0.00459,-0.002195,0.006251,0.004068,0.048929,0.435589,-0.898815,0.04894825514311844
-0.224294,-0.016581,0.179389,0.957725,0.003453,-0.010564,0.005283,-0.002732,0.005713,0.006013,0.048712,0.435572,-0.898835,0.04873096094748431
-0.224242,-0.016603,0.179465,0.957722,0.009338,-0.000192,0.005263,-0.001723,0.004789,0.006246,0.048685,0.435483,-0.89888,0.04870431738170563
-0.224102,-0.016595,0.179513,0.957746,0.015584,-0.003793,0.004737,-0.001132,0.004761,0.00391,0.048671,0.435224,-0.899006,0.048690091100811544
-0.223916,-0.016616,0.179558,0.957781,0.021147,0.000694,0.00022,-0.001058,0.007157,0.008029,0.048583,0.434892,-0.899171,0.048601972009230325
-0.223804,-0.016573,0.179453,0.957828,0.013771,0.001811,-0.006051,-0.00133,0.006628,0.0053,0.048577,0.434679,-0.899274,0.048595555905817094
-0.223692,-0.016529,0.179348,0.957874,0.006395,0.002928,-0.012323,-0.001601,0.006098,0.002571,0.048571,0.434467,-0.899377,0.048591146104379125
-0.223635,-0.016564,0.17923,0.957909,0.003789,-0.003522,-0.013964,-0.001757,0.007819,0.005017,0.04843,0.434382,-0.899426,0.048449545264915087
-0.223639,-0.016636,0.179093,0.957932,-0.00196,0.001125,-0.01368,-0.000453,0.007289,0.006424,0.048232,0.434422,-0.899417,0.04825076556446577
-0.223695,-0.016637,0.178968,0.957943,-0.002496,0.004416,-0.00663,-0.000943,0.006358,0.006183,0.048195,0.43453,-0.899367,0.048212573938600005
-0.223763,-0.016595,0.178897,0.957941,-0.003358,0.009642,-0.000905,-0.001013,0.006223,0.006149,0.048266,0.434641,-0.899309,0.04828575800168312
-0.223836,-0.016517,0.178886,0.957927,-0.001828,0.009646,0.008167,-0.000925,0.005607,0.005552,0.048438,0.434746,-0.899249,0.048457054203642026
-0.22386,-0.016377,0.178953,0.957911,-0.000861,0.00736,0.009376,-0.00106,0.008018,0.004149,0.048746,0.434737,-0.899237,0.04876474506503482
-0.223878,-0.016285,0.179032,0.957894,-0.000737,0.007068,0.009531,0.00098,0.012842,0.003429,0.048963,0.434735,-0.899227,0.04898363078409014
-0.223883,-0.016185,0.179094,0.957883,0.00294,0.003125,0.001777,-0.000446,0.016092,0.004082,0.049186,0.434705,-0.899229,0.04920538465629995
-0.223892,-0.016163,0.179065,0.957887,-0.001393,0.003659,-0.003429,-0.000226,0.015313,0.004158,0.049218,0.434715,-0.899222,0.04923767927344413
-0.223868,-0.01613,0.179026,0.9579,0.003122,0.00148,-0.00092,-0.000694,0.017013,0.004778,0.049255,0.434661,-0.899246,0.049274468230386684
-0.223831,-0.016106,0.179022,0.95791,0.009776,0.005924,0.000684,-0.000229,0.019329,0.006547,0.049286,0.434587,-0.89928,0.049305123969663266
-0.223716,-0.015993,0.179059,0.957932,0.015005,0.010528,0.002473,-5e-06,0.024237,0.005831,0.049477,0.434337,-0.899391,0.04949652136151041
-0.223461,-0.015819,0.179169,0.957974,0.033942,0.000257,0.009591,-0.000518,0.029887,0.00159,0.049766,0.433808,-0.89963,0.0497867517653395
-0.223205,-0.015645,0.179279,0.958015,0.05288,-0.010014,0.01671,-0.001031,0.035536,-0.002653,0.050056,0.433278,-0.899869,0.05007657561551044
-0.222498,-0.015478,0.179501,0.958141,0.101558,0.010219,0.029697,0.004194,0.043135,0.002296,0.050218,0.431926,-0.90051,0.050238143966739784
-0.221399,-0.015014,0.17983,0.958341,0.146253,0.022711,0.042074,0.001234,0.052089,-0.006339,0.050852,0.429751,-0.901514,0.05087324201314045
-0.219807,-0.014498,0.180212,0.958644,0.198721,0.003226,0.040315,-0.000233,0.062525,-0.006585,0.051428,0.426658,-0.90295,0.051449572077562934
-0.217644,-0.013963,0.180646,0.959064,0.25689,0.003795,0.04225,0.000553,0.06416,0.000473,0.05185,0.422513,-0.904872,0.05187347567585355
-0.214952,-0.013323,0.181151,0.959584,0.312238,0.00181,0.053075,-0.000525,0.062494,0.002466,0.052309,0.417357,-0.907236,0.0523323478482019
-0.211838,-0.012605,0.181671,0.960188,0.346512,-0.005885,0.047832,-0.001728,0.062021,0.006777,0.052763,0.411388,-0.909932,0.052787815712464554
-0.208401,-0.011857,0.182181,0.960853,0.377814,0.003711,0.05331,-0.002449,0.053352,0.015585,0.053147,0.404805,-0.912857,0.05317278988687866
-0.204708,-0.010945,0.182721,0.961555,0.405514,0.018562,0.059571,-0.001076,0.049252,0.02267,0.05376,0.397676,-0.91595,0.053786392024880586
-0.200898,-0.009836,0.183328,0.962255,0.41179,0.026516,0.058551,-0.000905,0.047042,0.019551,0.05473,0.390237,-0.919087,0.05475833788196712
-0.197102,-0.008678,0.183863,0.962949,0.408011,0.042572,0.066596,0.000993,0.048337,0.021185,0.055767,0.382789,-0.922151,0.055795532599696336
-0.193377,-0.007288,0.18456,0.963582,0.395764,0.056061,0.081802,-0.002835,0.060792,0.010785,0.057334,0.375359,-0.925105,0.05736560507452367
-0.189865,-0.006135,0.18524,0.964157,0.371822,0.019183,0.065098,-0.004267,0.073522,0.008879,0.058512,0.368393,-0.927827,0.058544416075936564
-0.186467,-0.005168,0.185779,0.964722,0.365385,0.018463,0.050697,-0.001889,0.074324,0.018265,0.059312,0.361698,-0.930407,0.05934676980013559
-0.182836,-0.004114,0.186164,0.965348,0.400868,0.028102,0.0497,-0.002961,0.069188,0.020473,0.060131,0.354532,-0.933108,0.0601683762216426
-0.178895,-0.002952,0.186569,0.966012,0.43994,0.034156,0.047271,-0.004949,0.067244,0.023539,0.06105,0.346732,-0.935975,0.06108717315810437
-0.174639,-0.001691,0.186953,0.96672,0.476264,0.037637,0.046991,-0.003887,0.065482,0.02621,0.062029,0.338287,-0.938997,0.062068969257466654
-0.170117,-0.000326,0.187272,0.967465,0.501634,0.044073,0.037654,-0.003473,0.059769,0.026725,0.063086,0.329287,-0.94212,0.06312743401920277
-0.165393,0.0011,0.187537,0.968232,0.518978,0.047368,0.036579,-0.003583,0.051278,0.02339,0.064166,0.319865,-0.945288,0.06420883514625393
-0.1605,0.002554,0.187794,0.969003,0.532051,0.046781,0.033315,-0.002821,0.043275,0.022176,0.065231,0.31009,-0.948467,0.06527789184064867
-0.155513,0.00403,0.188012,0.969769,0.537045,0.043035,0.029229,-0.001872,0.036556,0.019478,0.066294,0.300108,-0.951599,0.06634161163195341
-0.150491,0.005412,0.188173,0.970523,0.539066,0.035811,0.026847,-0.001578,0.028716,0.017693,0.067141,0.290073,-0.954646,0.06719217516811268
-0.145425,0.006734,0.188279,0.971266,0.537972,0.034912,0.018625,-5.7e-05,0.019934,0.017521,0.067843,0.279958,-0.957612,0.0678941065058862
-0.140356,0.008057,0.188379,0.971982,0.536878,0.034012,0.010403,0.001466,0.011184,0.017243,0.068542,0.269811,-0.960471,0.06859654782728783
-0.135284,0.009379,0.188375,0.97269,0.536112,0.035016,0.007863,0.002178,0.002404,0.01442,0.069214,0.259644,-0.963221,0.06926934792043836
-0.130206,0.010681,0.188347,0.973374,0.53578,0.028649,0.006247,0.001672,-0.002095,0.013941,0.06984,0.249455,-0.965865,0.06989793742736515
-0.125148,0.011927,0.188258,0.97404,0.525733,0.028438,-0.001973,0.002329,-0.008538,0.013787,0.070355,0.239307,-0.968392,0.07041314496333109
-0.120195,0.013141,0.188108,0.974677,0.512546,0.02707,-0.006011,0.003464,-0.01517,0.011549,0.070835,0.229358,-0.970761,0.07089511597474575
-0.115456,0.014258,0.18791,0.975272,0.494415,0.023989,-0.009835,0.003055,-0.021541,0.010757,0.071201,0.219844,-0.972933,0.07126182916975729
-0.110715,0.015375,0.187707,0.975844,0.476285,0.020908,-0.013659,0.002643,-0.027891,0.009872,0.07157,0.210309,-0.975012,0.07163240835365803
-0.106198,0.016394,0.187478,0.976374,0.454379,0.016548,-0.01475,0.003271,-0.033708,0.00872,0.071834,0.20123,-0.976907,0.07189484783851109
-0.1019,0.017388,0.187254,0.976857,0.430838,0.015533,-0.012521,0.003665,-0.038736,0.007527,0.072135,0.192572,-0.978628,0.07219624594596892
-0.097843,0.018298,0.187049,0.977295,0.406382,0.012125,-0.010771,0.004463,-0.041655,0.006148,0.072368,0.184397,-0.980184,0.0724312743955408
-0.094031,0.01911,0.186835,0.977694,0.380617,0.012028,-0.012353,0.00402,-0.043673,0.006041,0.072505,0.176727,-0.981586,0.07256770280046893
-0.09045,0.019928,0.186635,0.978054,0.354697,0.01362,-0.012529,0.005084,-0.046943,0.005531,0.072743,0.169491,-0.982843,0.07280790033953889
-0.08709,0.020702,0.186424,0.978383,0.336504,0.016219,-0.0125,0.005811,-0.049159,0.005293,0.07298,0.162696,-0.983974,0.07304524151240574
-0.083873,0.021467,0.186207,0.978689,0.319772,0.017787,-0.014273,0.00679,-0.049159,0.004268,0.073255,0.156176,-0.985009,0.07332018834845237
-0.080815,0.022235,0.185972,0.978973,0.307016,0.021585,-0.019052,0.006995,-0.048439,0.0038,0.073595,0.149961,-0.985949,0.07366017676484851
-0.077882,0.022987,0.185683,0.979248,0.293765,0.024025,-0.023189,0.007352,-0.047223,0.003502,0.073944,0.143995,-0.986812,0.07401022118471971
-0.07506,0.023773,0.185356,0.979512,0.284444,0.028035,-0.025459,0.007903,-0.046543,0.002526,0.074397,0.138231,-0.987602,0.07446632338234672
-0.072315,0.02455,0.185023,0.979762,0.276918,0.027097,-0.024272,0.007791,-0.045548,0.001331,0.074867,0.132619,-0.988335,0.07493630450960502
-0.069749,0.025238,0.184693,0.979993,0.26209,0.024171,-0.024365,0.007425,-0.044854,0.00204,0.07523,0.127385,-0.988996,0.07530157470248479
-0.067182,0.025925,0.184362,0.980217,0.247263,0.021245,-0.024458,0.007057,-0.044157,0.002721,0.075596,0.122147,-0.989629,0.07566805473864731
-0.06494,0.026511,0.184115,0.980399,0.228015,0.01644,-0.018947,0.006851,-0.042681,0.002625,0.075896,0.117572,-0.99016,0.07596862298234613
-0.062697,0.027097,0.183868,0.980575,0.208768,0.011635,-0.013435,0.006644,-0.041202,0.002508,0.076197,0.112994,-0.99067,0.07627115258854154
-0.060695,0.027589,0.183684,0.980722,0.187051,0.014169,-0.003662,0.005764,-0.041645,0.00263,0.076412,0.108914,-0.99111,0.0764862333769362
-0.058915,0.028033,0.183656,0.980823,0.166656,0.005802,0.008314,0.005492,-0.038899,0.00212,0.076632,0.105273,-0.991486,0.0767062078770545
-0.057323,0.028386,0.183757,0.980888,0.144269,0.002644,0.018753,0.005233,-0.036097,0.004239,0.076754,0.102023,-0.991817,0.07682954087828005
-0.055982,0.028681,0.183959,0.980919,0.119573,0.00377,0.031054,0.003669,-0.033284,0.003284,0.076864,0.099275,-0.992087,0.07694015023473368
-0.054856,0.028934,0.184288,0.980914,0.095304,-0.000323,0.038649,0.003705,-0.029327,0.001823,0.076981,0.096955,-0.992307,0.07705837578862249
-0.053948,0.029126,0.184685,0.980884,0.07444,-0.002212,0.043505,0.003822,-0.023818,0.002208,0.077065,0.095076,-0.992483,0.07714171448595109
-0.053285,0.029278,0.185098,0.980838,0.047819,0.004599,0.041406,0.002945,-0.017142,0.00189,0.077159,0.093689,-0.992607,0.07723661331718769
-0.052869,0.029408,0.185495,0.980781,0.02826,0.000429,0.034808,0.001378,-0.011757,-0.000231,0.0773,0.092796,-0.99268,0.07737667344878893
-0.052605,0.029475,0.185821,0.980732,0.015352,0.000526,0.029405,0.000456,-0.00789,0.000483,0.077364,0.092229,-0.992728,0.07744176156552379
-0.052476,0.029542,0.186089,0.980686,0.005819,0.002612,0.021108,0.000311,-0.003204,0.001002,0.077474,0.09193,-0.992747,0.07755097489401848
-0.052414,0.029622,0.186284,0.98065,0.00157,0.005957,0.013469,-8e-06,-0.000494,0.001217,0.077625,0.091763,-0.992751,0.07770357785558861
-0.05239,0.029718,0.1864,0.980626,0.001366,0.008712,0.007536,-0.000398,0.001396,0.001306,0.077815,0.091671,-0.992744,0.07789422571312066
-0.052371,0.029811,0.186437,0.980617,0.001738,0.01086,0.002492,-0.000204,0.002719,0.000843,0.077995,0.091596,-0.992737,0.07807342241957876
-0.052348,0.02994,0.186466,0.980609,0.005493,0.010311,0.004156,0.00049,0.003026,0.000154,0.07824,0.091501,-0.992727,0.07832115969629734
-0.052306,0.030042,0.186507,0.9806,0.005062,0.009712,0.00481,0.000838,0.004256,0.00095,0.07843,0.091377,-0.992723,0.07850986901346564
-0.052264,0.030145,0.186549,0.980591,0.004631,0.009114,0.005464,0.001186,0.005487,0.001746,0.078619,0.091253,-0.992719,0.07870064266314945
-0.052241,0.030222,0.186591,0.980582,0.002377,0.007298,0.005273,0.000863,0.007148,0.00165,0.078765,0.091176,-0.992715,0.07884737168796507
-0.052226,0.030288,0.186632,0.980573,0.002858,0.007037,0.006671,0.000805,0.007384,0.001196,0.078894,0.091118,-0.99271,0.07897534637267917
-0.052185,0.030365,0.186701,0.98056,0.003978,0.004569,0.00805,0.000539,0.01007,0.000926,0.079036,0.091003,-0.992709,0.07911790798774221
-0.052155,0.030403,0.186742,0.980552,0.001132,0.002522,0.002259,0.000234,0.009254,0.003527,0.079102,0.090927,-0.992711,0.07918522952340831
-0.052129,0.030425,0.186771,0.980547,0.004691,-0.002121,0.004686,-0.001391,0.007541,0.000509,0.079138,0.090865,-0.992714,0.07922149615337272
-0.052025,0.030362,0.186852,0.98054,0.01551,-0.011598,0.008024,0.000978,0.007425,0.002774,0.078984,0.090678,-0.992743,0.0790666170338636
-0.05184,0.030329,0.186919,0.980538,0.017147,-0.000597,0.008075,0.002081,0.006994,0.004061,0.078856,0.090324,-0.992786,0.07893919395158584
-0.051656,0.030358,0.186993,0.980532,0.019147,-0.001449,0.006379,0.000255,0.006086,0.001424,0.078853,0.089947,-0.99282,0.07893454528010029
-0.05144,0.03036,0.187057,0.980531,0.020373,-0.00528,0.009367,-0.000874,0.005597,0.00139,0.078783,0.08952,-0.992864,0.07886399054102561
-0.051246,0.030316,0.187129,0.980529,0.014541,-0.010638,0.004565,-0.001065,0.006872,0.001712,0.078631,0.089151,-0.99291,0.0787119120843527
-0.051105,0.030232,0.18716,0.980533,0.011225,-0.013005,0.002988,-0.000822,0.005133,0.003226,0.078416,0.088903,-0.992949,0.07849716010031693
-0.050968,0.030141,0.187191,0.980537,0.0097,-0.005611,0.001153,-0.000539,0.005022,0.005957,0.078189,0.088667,-0.992988,0.07827012530447648
-0.050876,0.030186,0.18718,0.980543,0.010484,-0.000171,0.000384,-0.000551,0.004404,0.00496,0.078243,0.088472,-0.993001,0.07832333646945593
-0.050784,0.030231,0.187169,0.980548,0.011268,0.005269,-0.000386,-0.000563,0.003786,0.003963,0.078296,0.088276,-0.993014,0.07837649235226665
-0.050702,0.030336,0.18717,0.980549,0.013055,0.011484,0.000706,0.000691,0.003515,0.002964,0.078471,0.088076,-0.993018,0.07855241506378866
-0.050604,0.030535,0.187152,0.980551,0.012279,0.017006,-0.000676,0.001309,0.004425,0.001623,0.078824,0.087809,-0.993014,0.07890538196540675
-0.050546,0.030746,0.187083,0.980561,0.007106,0.021127,-0.00966,0.001975,0.005845,0.001942,0.079208,0.087622,-0.993,0.07929231424445699
-0.050536,0.030925,0.186901,0.980591,0.001977,0.018599,-0.024021,0.002395,0.006406,-0.000735,0.07954,0.08755,-0.99298,0.07962412071704604
-0.050561,0.031068,0.186598,0.980642,0.000105,0.014819,-0.035276,0.00333,0.004461,-0.001212,0.079802,0.087571,-0.992957,0.07988728029555642
-0.050588,0.031141,0.186201,0.980714,-0.00049,0.004855,-0.039626,0.002335,0.001908,-0.000615,0.07992,0.087628,-0.992942,0.08000522446529237
-0.050603,0.031178,0.185825,0.980784,-0.00077,-0.00049,-0.03726,0.001998,0.001044,-0.000413,0.079964,0.087674,-0.992935,0.08004983757930911
-0.05063,0.031148,0.185441,0.980856,-0.002881,-0.003932,-0.035138,0.002317,-7.8e-05,0.000567,0.07988,0.087769,-0.992933,0.07996635951990451
-0.050649,0.031082,0.185109,0.98092,-0.002608,-0.003782,-0.026177,0.002026,-0.001074,0.001455,0.079728,0.087858,-0.992937,0.07981379423645932
-0.05069,0.031025,0.184902,0.980958,-0.002469,-0.004709,-0.016568,0.001389,-0.002073,0.001391,0.079614,0.087977,-0.992936,0.07969815293126073
-0.050726,0.030958,0.184791,0.980979,-0.003122,-0.003276,-0.005816,0.002489,-0.001469,0.002548,0.079486,0.088082,-0.992937,0.07956964932590616
-0.050767,0.030939,0.184794,0.980977,-0.00432,-0.001163,0.003449,0.002949,0.000252,0.002351,0.079464,0.088167,-0.992931,0.0795476362017556
-0.050812,0.030914,0.184875,0.980961,-0.005958,-0.000908,0.006616,0.002024,0.001444,0.001461,0.079438,0.088259,-0.992925,0.0795223812708109
-0.050867,0.030915,0.184952,0.980943,-0.006419,-0.000954,0.00545,0.002933,0.002159,0.00136,0.079467,0.088359,-0.992914,0.07955149205148854
-0.050922,0.030916,0.185029,0.980926,-0.006881,-0.000999,0.004284,0.003841,0.002873,0.001259,0.079496,0.08846,-0.992902,0.07958068184958976
-0.050976,0.030917,0.185106,0.980908,-0.007343,-0.001044,0.003118,0.00475,0.003588,0.001158,0.079525,0.08856,-0.992891,0.07960945522253396
-0.051046,0.03087,0.185124,0.980903,-0.005883,-0.002561,0.000632,0.00352,0.003813,0.000868,0.07946,0.088713,-0.992883,0.07954448807299438
-0.051139,0.030826,0.185152,0.980894,-0.008153,-0.004943,-0.002559,0.002585,0.003181,0.00041,0.079412,0.08891,-0.992869,0.07949475342654407
-0.051244,0.030715,0.18511,0.9809,-0.011256,-0.007491,-0.004034,0.001808,0.002825,0.001348,0.079228,0.08916,-0.992861,0.079311363142253
-0.051362,0.030617,0.185061,0.980906,-0.01233,-0.00726,-0.003496,0.00158,0.00272,0.001624,0.079075,0.089431,-0.992849,0.07915764435102032
-0.051504,0.030542,0.185038,0.980906,-0.014737,-0.004771,-0.002139,0.001826,0.001753,0.001703,0.078977,0.089738,-0.992829,0.07906039243690063
-0.051662,0.030457,0.185035,0.9809,-0.017427,-0.006819,-0.001305,0.000925,0.002198,0.001839,0.078869,0.09008,-0.992807,0.07895109403097579
-0.051826,0.03037,0.185038,0.980894,-0.01805,-0.006304,0.001887,0.000753,0.001826,0.001384,0.078759,0.090432,-0.992783,0.07884071206530344
-0.051994,0.030309,0.185087,0.980878,-0.017226,-0.003714,0.004534,0.001508,0.003044,0.004116,0.078706,0.090779,-0.992756,0.07878717509923136
-0.052173,0.030241,0.185162,0.980856,-0.016528,-0.003909,0.006257,0.001675,0.004962,0.003263,0.078644,0.091151,-0.992727,0.07872634362323404
-0.052346,0.030185,0.185231,0.980836,-0.018486,-0.001479,0.007955,0.000967,0.005763,0.003646,0.078606,0.091502,-0.992698,0.07868644664015723
-0.052536,0.030153,0.185326,0.980808,-0.019321,-0.000927,0.006401,0.001802,0.007393,0.003521,0.078621,0.09188,-0.992661,0.07870240357180742
-0.052745,0.030141,0.185368,0.98079,-0.020499,0.00106,0.003973,0.001161,0.005381,0.002706,0.078679,0.09229,-0.992619,0.0787598539154408
-0.052953,0.030128,0.185426,0.980768,-0.014083,0.001648,0.006472,0.001916,0.004621,0.002885,0.078735,0.092695,-0.992577,0.07881645897863088
-0.053082,0.030145,0.185465,0.980753,-0.008751,0.008482,0.005166,0.001268,0.004147,0.002026,0.07882,0.092939,-0.992547,0.07890114422474538
-0.053174,0.03018,0.185515,0.980737,-0.00767,0.000256,0.002214,0.001994,0.005422,0.00055,0.078926,0.093102,-0.992523,0.07900860892143517
-0.053275,0.030157,0.185552,0.980726,-0.009448,-0.000265,0.001719,0.001438,0.004388,0.002482,0.078921,0.093305,-0.992505,0.07900423429930795
-0.053395,0.030163,0.185568,0.980716,-0.012751,0.001979,-0.001275,0.002695,0.0046,0.002717,0.07898,0.093536,-0.992478,0.07906182062613774
-0.053491,0.030203,0.185582,0.980707,-0.003895,-0.000954,0.000982,0.002209,0.004945,0.003415,0.079094,0.093708,-0.992453,0.07917722206848465
-0.053503,0.030175,0.185571,0.980709,0.002479,0.004268,0.000561,0.003782,0.00727,0.003747,0.079044,0.093743,-0.992454,0.07912553826499542
-0.053552,0.030241,0.18555,0.980708,-0.007367,0.007344,-0.005473,0.00173,0.009259,0.001956,0.079189,0.093815,-0.992435,0.0792713251223159
-0.053694,0.030221,0.185471,0.980716,-0.010975,-0.002616,-0.007189,0.001189,0.009121,-4.3e-05,0.079193,0.094107,-0.992407,0.07927681011216614
-0.05381,0.030162,0.185399,0.980725,-0.011957,-0.003756,-0.006503,0.002783,0.008517,0.003658,0.079114,0.094362,-0.99239,0.07919665768686639
-0.053969,0.030059,0.185308,0.980737,-0.016938,0.000138,-0.00693,0.001812,0.009665,0.004054,0.078961,0.094718,-0.992368,0.07904400672635503
-0.054169,0.030004,0.185259,0.980737,-0.017403,-0.003447,-0.002461,0.001784,0.008819,0.003057,0.078923,0.095134,-0.992331,0.07900481799398862
-0.054342,0.029924,0.185253,0.980731,-0.017349,-0.002991,0.001734,0.002765,0.00839,0.003267,0.078828,0.095502,-0.992303,0.07891069525235922
-0.054531,0.029858,0.185287,0.980716,-0.013889,-0.002915,0.003184,0.001974,0.008556,0.002889,0.078773,0.095893,-0.99227,0.07885390015256429
-0.054644,0.029804,0.185352,0.980699,-0.004448,-0.002332,0.006612,0.002644,0.008279,0.002138,0.078714,0.096131,-0.992252,0.07879576756486156
-0.054674,0.029798,0.185462,0.980677,0.002183,-0.000622,0.008735,0.002775,0.008226,0.001992,0.078724,0.096182,-0.992246,0.0788058688108278
-0.054615,0.029818,0.18557,0.980659,0.008447,0.000184,0.009488,0.002707,0.008777,0.00252,0.078752,0.096051,-0.992256,0.07883402217412704
-0.054485,0.029849,0.18565,0.98065,0.015454,0.001095,0.00525,0.001866,0.008008,0.001068,0.078773,0.095779,-0.992281,0.07885481976014773
-0.05432,0.029861,0.185692,0.980651,0.017976,-0.001928,0.005605,0.00349,0.00786,0.00111,0.078739,0.095447,-0.992315,0.07882161030951634
-0.054147,0.029869,0.185728,0.980653,0.013706,-0.005237,0.003045,0.003285,0.007065,0.001812,0.078696,0.095105,-0.992352,0.07877693071019778
-0.054065,0.029885,0.185765,0.98065,0.010593,-0.005124,0.004479,0.001812,0.004515,-0.000331,0.0787,0.094935,-0.992368,0.07878168847032077
-0.053983,0.029901,0.185801,0.980648,0.007481,-0.005011,0.005913,0.000339,0.001964,-0.002474,0.078705,0.094765,-0.992383,0.07878638555199802
-0.053843,0.029748,0.185901,0.980641,0.017049,-0.021338,0.012511,0.004723,0.001241,0.002994,0.078363,0.09454,-0.992432,0.07844357632124284
-0.053659,0.029714,0.186015,0.980631,0.015448,0.007296,0.014835,0.004885,0.001571,0.006877,0.078239,0.094184,-0.992476,0.07831974092909628
-0.05351,0.029829,0.186146,0.98061,0.015101,-0.000897,0.011034,0.002775,0.001542,8e-06,0.078423,0.093839,-0.992494,0.07850318403937823
-0.053336,0.029817,0.186281,0.980594,0.015899,-0.008076,0.014267,0.002469,0.001538,-0.000988,0.078348,0.093494,-0.992532,0.07842808610236215
-0.053224,0.029788,0.186411,0.980577,0.005479,-0.007535,0.008982,0.002166,0.005865,0.000517,0.078262,0.093275,-0.99256,0.07834204596494168
-0.053161,0.029736,0.186502,0.980564,0.002122,-0.008114,0.006167,0.003768,0.005086,0.002364,0.078145,0.093164,-0.992579,0.07822512224685234
-0.053179,0.02963,0.186546,0.980558,-0.001817,-0.004244,0.00369,0.00175,0.004241,0.004208,0.077948,0.093236,-0.992588,0.0780276786774067
-0.053207,0.029578,0.186584,0.980551,-0.004488,-0.00321,0.002458,0.002511,0.00319,0.003091,0.077861,0.093306,-0.992588,0.0779395088975674
-0.053268,0.029565,0.18662,0.980541,-0.004801,-0.003089,0.002314,0.002074,0.002243,0.003704,0.077862,0.093428,-0.992577,0.07794002337740799
-0.053346,0.029538,0.186672,0.980528,-0.004968,0.003395,0.003247,0.002026,0.002137,0.003773,0.077841,0.093587,-0.992563,0.07792090886605751
-0.053446,0.02956,0.186706,0.980515,-0.006838,0.004771,0.004856,0.003086,0.003795,0.002273,0.077925,0.093772,-0.992539,0.07800450619739367
-0.053536,0.029607,0.186722,0.980506,-0.011308,0.004804,0.001873,0.003918,0.004862,0.002601,0.078052,0.093928,-0.992515,0.0781318497730821
-0.05368,0.029615,0.186712,0.9805,-0.015032,0.001052,-0.00282,0.004344,0.005746,0.000624,0.07812,0.094208,-0.992483,0.07820009319987514
-0.05386,0.029554,0.186641,0.980505,-0.018687,-0.003057,-0.007674,0.003541,0.005543,0.000593,0.078061,0.094589,-0.992451,0.07814015289845393
-0.054044,0.029487,0.186566,0.980512,-0.016484,-0.005251,-0.008361,0.001747,0.002255,0.001019,0.07799,0.094979,-0.99242,0.07806954006179874
-0.054215,0.029375,0.186471,0.980524,-0.017208,-0.008426,-0.008127,0.00195,0.004153,0.001544,0.077825,0.095364,-0.992396,0.07790361076811389
-0.054391,0.02923,0.186431,0.980526,-0.019296,-0.0107,-0.001136,0.002267,0.003702,0.002219,0.077602,0.095764,-0.992374,0.07767998594084306
-0.054558,0.029074,0.186433,0.980521,-0.015793,-0.00826,0.002578,0.001423,0.003386,0.002408,0.077357,0.09615,-0.992356,0.07743552239351412
-0.054693,0.029005,0.18653,0.980497,-0.014183,-0.007691,0.006535,0.001261,0.005111,0.002006,0.077282,0.096433,-0.992335,0.07735953813387741
-0.054829,0.028936,0.186627,0.980473,-0.012573,-0.007122,0.010491,0.001098,0.006836,0.001604,0.077207,0.096717,-0.992313,0.07728398787388649
-0.054903,0.028895,0.186722,0.980452,-0.012171,-0.005574,0.003791,0.001441,0.009132,0.002096,0.077164,0.096869,-0.992301,0.07724029752531104
-0.05502,0.028833,0.186774,0.980437,-0.010787,-0.005057,0.000599,0.003229,0.009808,0.001812,0.07709,0.097116,-0.992283,0.07716705334110181
-0.055143,0.028742,0.186725,0.980442,-0.011565,-0.005308,-0.004827,0.001494,0.009231,0.002108,0.076953,0.097395,-0.992266,0.07702903361805157
-0.055238,0.028694,0.186637,0.980455,-0.007865,-0.001198,-0.011236,0.001661,0.009285,0.003457,0.076884,0.097606,-0.992251,0.07696121216008915
-0.055341,0.028656,0.186508,0.980475,-0.007808,-0.001135,-0.011334,0.000283,0.007381,0.003785,0.076836,0.097832,-0.992232,0.0769118670936816
-0.05543,0.02864,0.186359,0.980499,-0.004154,8.6e-05,-0.011957,0.000708,0.006056,0.003786,0.076822,0.098025,-0.992214,0.07689850740984018
-0.055459,0.0286,0.186236,0.980522,-0.000948,0.004065,-0.00985,0.000709,0.006055,0.003786,0.076743,0.098105,-0.992213,0.07681831224936295
-0.055482,0.028625,0.186133,0.980539,-0.000737,0.004133,-0.008477,0.001121,0.005827,0.002677,0.07679,0.098148,-0.992205,0.07686558867089822
-0.055503,0.028647,0.18604,0.980555,-0.000517,0.003471,-0.008483,0.001106,0.006376,0.002126,0.076832,0.098187,-0.992198,0.07690726624719672
-0.055503,0.028686,0.185955,0.98057,-8e-05,0.002512,-0.007795,0.001426,0.006019,0.002543,0.076898,0.09818,-0.992193,0.07697537611184435
-0.0555,0.02872,0.185882,0.980583,0.001437,0.004695,-0.007075,0.001255,0.006474,0.002056,0.076959,0.098168,-0.99219,0.07703375586363984
-0.055501,0.028759,0.185795,0.980598,0.001484,0.00405,-0.007956,0.001803,0.006537,0.002084,0.077025,0.098162,-0.992185,0.07710202132730744
-0.055492,0.02877,0.185712,0.980614,0.001115,0.002854,-0.006133,0.001135,0.006255,0.002258,0.077035,0.098147,-0.992186,0.07711198875725835
-0.055492,0.028816,0.185651,0.980624,0.001425,0.003931,-0.005399,0.001749,0.006431,0.002182,0.077119,0.098134,-0.992181,0.07719626224677045
-0.055469,0.028872,0.185592,0.980635,0.001911,0.003814,-0.004339,0.002027,0.005006,0.002224,0.077214,0.098074,-0.992179,0.07729192728884834
-0.055456,0.028915,0.185532,0.980646,0.002482,0.003114,-0.003118,0.002044,0.005029,0.002952,0.077289,0.098036,-0.992177,0.07736563819311085
-0.055434,0.028959,0.185484,0.980655,0.001469,0.003104,-0.003075,0.00236,0.005522,0.002869,0.077362,0.097981,-0.992177,0.07743919145486232
-0.055429,0.028985,0.18544,0.980663,0.000982,0.003099,-0.003054,0.002512,0.00576,0.002829,0.077407,0.097964,-0.992175,0.07748405120161465
-0.055438,0.029028,0.185407,0.980667,-0.000211,0.002777,-0.00288,0.002335,0.005026,0.00289,0.07749,0.097968,-0.992168,0.0775685532710328
-0.055459,0.029047,0.185359,0.980675,-0.00056,0.002694,-0.001362,0.00202,0.005366,0.00292,0.077531,0.098007,-0.992161,0.07760886768471847
-0.055494,0.029081,0.185313,0.98068,-0.002135,0.002189,-0.003358,0.002012,0.006345,0.002133,0.077605,0.098065,-0.99215,0.07768394026801313
-0.055535,0.029084,0.185267,0.980686,-0.003851,0.001625,-0.004138,0.002776,0.006677,0.002762,0.077622,0.098148,-0.99214,0.07770030917908465
-0.055591,0.029103,0.185211,0.980693,-0.00466,0.00136,-0.004505,0.002344,0.005407,0.002134,0.077675,0.098255,-0.992125,0.07775266447129404
-0.055655,0.029094,0.185149,0.980702,-0.001517,7.7e-05,-0.005908,0.003231,0.005175,0.002402,0.077674,0.098389,-0.992112,0.07775234049850638
-0.05567,0.029113,0.1851,0.98071,0.000748,-0.001043,-0.002906,0.002847,0.003629,0.001595,0.077711,0.098414,-0.992107,0.07779028649051625
-0.055657,0.029102,0.185079,0.980715,0.001061,-0.003378,-0.002813,0.002977,0.004188,0.002239,0.077683,0.098394,-0.992111,0.07776176547661293
-0.055636,0.029083,0.185048,0.980722,0.001723,-0.002711,-0.002937,0.002026,0.002534,0.002788,0.077636,0.098363,-0.992118,0.07771353706640428
-0.055613,0.029081,0.185046,0.980724,0.006683,-0.000856,0.000772,0.001526,0.002146,0.003412,0.077623,0.09832,-0.992123,0.0777009578823364
-0.055529,0.029103,0.185063,0.980725,0.012133,-0.002122,0.003618,0.002876,0.003687,0.002988,0.077637,0.098146,-0.992139,0.07771501060990435
-0.055396,0.029156,0.185089,0.980726,0.012021,0.002813,0.000447,0.003067,0.006238,0.003916,0.077693,0.097863,-0.992163,0.07777285432503371
-0.055337,0.029202,0.185046,0.980736,0.004184,0.004866,-0.006708,0.003018,0.007758,0.000882,0.077759,0.097735,-0.99217,0.0778372605202606
-0.055344,0.0292,0.184924,0.980759,-0.001909,-0.003081,-0.015284,0.002344,0.007423,0.000432,0.077746,0.097759,-0.992169,0.07782372651324507
-0.055394,0.02917,0.184754,0.980789,-0.00813,-0.002981,-0.018794,0.002589,0.008661,0.002788,0.077688,0.097882,-0.992161,0.07776611536838526
-0.055526,0.02911,0.184556,0.98082,-0.015958,-0.001379,-0.019669,0.001989,0.007765,0.003636,0.077599,0.098177,-0.992139,0.07767674247032826
-0.055731,0.029032,0.184367,0.980847,-0.021021,-0.001196,-0.016666,0.00154,0.007712,0.003634,0.077502,0.098622,-0.992102,0.07757961140482815
-0.055958,0.028974,0.184226,0.980862,-0.023052,0.000584,-0.010746,0.001319,0.006048,0.003718,0.077456,0.099098,-0.992059,0.07753448919562383
-0.056205,0.028933,0.184152,0.980863,-0.021053,0.00151,-0.004649,0.00149,0.006224,0.003669,0.07746,0.099602,-0.992008,0.07753681266220731
-0.056426,0.028926,0.184122,0.980856,-0.018777,0.00156,-0.001379,0.002105,0.008127,0.003473,0.077523,0.10004,-0.991959,0.07760087788143068
-0.056608,0.028886,0.184102,0.98085,-0.018496,0.00135,-0.004595,0.00259,0.009445,0.002139,0.07751,0.100412,-0.991922,0.07758677642769486
-0.056788,0.02885,0.184016,0.980857,-0.016507,0.000228,-0.011011,0.002583,0.009528,0.002813,0.077494,0.100784,-0.991886,0.07757302695587474
-0.05693,0.028818,0.183882,0.980875,-0.009914,-8e-06,-0.014674,0.003234,0.00895,0.002234,0.077471,0.101083,-0.991857,0.07754821827710755
-0.057017,0.028794,0.183706,0.980904,-0.005901,-0.000551,-0.017211,0.003239,0.007774,0.002074,0.077437,0.101277,-0.99184,0.07751463091480096
-0.057054,0.028786,0.183539,0.980933,-0.000164,-0.000285,-0.0149,0.002834,0.007134,0.002882,0.077418,0.101366,-0.991832,0.07749508557171349
-0.057043,0.028799,0.1834,0.980959,0.000246,0.005901,-0.01391,0.00232,0.006326,0.00371,0.077425,0.10135,-0.991833,0.07750221295869095
-0.05704,0.028869,0.183284,0.980979,0.003232,0.006057,-0.008917,0.00219,0.0039,0.000487,0.077549,0.101327,-0.991826,0.07762674271195444
-0.056965,0.028889,0.183229,0.980993,0.012646,-0.005625,-0.003399,0.002971,0.003582,0.001832,0.077555,0.101178,-0.991841,0.07763305101258472
-0.056786,0.028918,0.183195,0.981009,0.018937,0.009085,0.000847,0.004549,0.004292,0.004212,0.077544,0.10082,-0.991878,0.07762138140981359
-0.056644,0.029071,0.183188,0.981014,0.014537,0.009418,0.000675,0.003194,0.004352,0.000159,0.077792,0.100486,-0.991893,0.0778697908404006
-0.05651,0.029166,0.183179,0.981021,0.01211,0.00418,0.000966,0.002534,0.003909,0.000598,0.077927,0.10019,-0.991912,0.07800689646596685
-0.056433,0.029224,0.183178,0.981024,0.005046,0.000875,-0.00042,0.003215,0.00491,0.001404,0.078014,0.100018,-0.991922,0.07809280936239046
-0.056407,0.029254,0.183153,0.981029,0.000555,0.00073,-0.000796,0.002936,0.005999,0.003454,0.078061,0.099958,-0.991925,0.07813976091637025
-0.056433,0.029281,0.183128,0.981031,-0.004755,0.002999,-0.002206,0.0016,0.006033,0.003653,0.078119,0.1,-0.991916,0.07819973906762732
-0.056533,0.029294,0.183111,0.981028,-0.006638,0.003994,-0.001131,0.002072,0.005067,0.004048,0.07818,0.100192,-0.991892,0.07825995776014572
-0.056634,0.029359,0.183124,0.981018,-0.005866,0.009298,0.003051,0.003689,0.004716,0.005255,0.078345,0.100365,-0.991861,0.07842587403085344
-0.056734,0.029485,0.18315,0.981004,-0.005373,0.014121,0.003696,0.003117,0.005942,0.005001,0.078632,0.100513,-0.991824,0.07871272488495851
-0.056832,0.029657,0.183144,0.980994,-0.004573,0.016228,0.000432,0.00424,0.007322,0.003369,0.079003,0.10064,-0.991781,0.07908597369351648
-0.05692,0.029816,0.183114,0.980989,-0.004377,0.016125,-0.003354,0.003921,0.008055,0.002408,0.079345,0.100756,-0.991742,0.07942752194998388
-0.056993,0.029962,0.183026,0.980997,-0.005124,0.01223,-0.009676,0.004232,0.008486,0.001099,0.079647,0.100852,-0.991708,0.07973211799367111
-0.057081,0.030058,0.182876,0.981017,-0.00499,0.00817,-0.014648,0.004681,0.008311,0.001859,0.079852,0.101,-0.991677,0.07993741390257939
-0.05716,0.030142,0.182716,0.98104,-0.004486,0.009478,-0.015897,0.005693,0.007619,0.002052,0.08003,0.101137,-0.991648,0.08011478214452362
-0.057227,0.030192,0.18254,0.981067,-0.003277,0.004858,-0.012781,0.004507,0.005924,0.001565,0.080134,0.101265,-0.991627,0.08021919188034024
-0.057268,0.030176,0.18245,0.981082,-0.001512,0.002023,-0.006794,0.004172,0.004667,0.001774,0.080108,0.101359,-0.991619,0.08019327975413548
-0.05731,0.03016,0.18236,0.981097,0.000252,-0.000812,-0.000807,0.003837,0.003409,0.001983,0.080081,0.101453,-0.991612,0.08016771780638489
-0.057296,0.030125,0.182354,0.9811,0.001727,-0.003438,0.003145,0.004014,0.003961,0.001963,0.080007,0.101439,-0.991619,0.08009318899172378
-0.057275,0.030097,0.182432,0.981087,0.000888,-0.004993,0.004814,0.004025,0.005494,0.002165,0.079953,0.101403,-0.991627,0.08003856591338429
-0.057254,0.030069,0.18251,0.981075,5e-05,-0.006548,0.006483,0.004037,0.007027,0.002368,0.079899,0.101366,-0.991636,0.07998399829289893
-0.057251,0.029994,0.182576,0.981065,-5.7e-05,-0.004248,0.006021,0.004309,0.007672,0.004188,0.079758,0.101381,-0.991645,0.07984224685566856
-0.057261,0.029977,0.18265,0.981051,-0.000659,-0.001732,0.005856,0.004346,0.007417,0.003528,0.079736,0.101402,-0.991645,0.07982010692605596
-0.057269,0.029951,0.182715,0.981039,-0.002327,-0.001314,0.004235,0.004051,0.006281,0.003392,0.079693,0.101421,-0.991647,0.07977860876129374
-0.057314,0.029936,0.182761,0.981029,-0.00292,-0.001165,0.00366,0.004182,0.007375,0.003687,0.079686,0.10151,-0.991638,0.07977026958827657
-0.057353,0.029954,0.182775,0.981023,-0.003253,-0.002101,0.000786,0.004154,0.00821,0.004236,0.079738,0.10158,-0.991627,0.07982125064764184
-0.057392,0.029939,0.182778,0.981021,-0.003942,-0.000709,-0.000214,0.003556,0.007353,0.00274,0.079721,0.101661,-0.99162,0.07980625326055425
-0.057445,0.02995,0.182763,0.98102,-0.004181,-0.000228,-0.00056,0.004015,0.007756,0.003469,0.07976,0.101762,-0.991606,0.07984555208356645
-0.057479,0.029945,0.182743,0.981022,-0.00169,-0.000167,-0.001995,0.004109,0.007393,0.002364,0.079762,0.101831,-0.991599,0.07984599178845762
-0.057521,0.029929,0.182707,0.981027,-0.003278,-0.000959,-0.002068,0.003711,0.008096,0.001083,0.079741,0.101923,-0.991591,0.07982604373587016
-0.057568,0.029861,0.182665,0.981034,-0.001852,-0.00349,-0.003215,0.003474,0.006838,0.00121,0.07962,0.102042,-0.991589,0.07970499598245488
-0.057599,0.029831,0.182636,0.981039,0.000132,-0.003831,-0.001975,0.004303,0.005744,0.001146,0.079569,0.102117,-0.991585,0.07965425575478521
-0.057584,0.029796,0.182628,0.981042,0.002021,-0.003532,-0.001776,0.003729,0.006572,0.002613,0.079496,0.102102,-0.991592,0.0795791233773216
-0.057561,0.029768,0.1826,0.981049,0.003386,-0.006146,-0.002639,0.002779,0.006589,0.002273,0.079428,0.102069,-0.991601,0.07951276764914302
-0.057515,0.029723,0.182581,0.981057,0.003108,-0.004465,-0.001694,0.001806,0.006625,0.002611,0.079321,0.101998,-0.991617,0.079405625981415
-0.05747,0.029677,0.182562,0.981065,0.002831,-0.002783,-0.000749,0.000833,0.00666,0.002949,0.079214,0.101927,-0.991633,0.07929688524933072
-0.057446,0.02963,0.182543,0.981071,0.001484,-0.002671,-0.000236,0.002386,0.005287,0.00284,0.079112,0.1019,-0.991644,0.07919375111278683
-0.057416,0.029617,0.18258,0.981066,0.003354,-0.002884,0.004425,0.001937,0.005553,0.002914,0.079078,0.101844,-0.991652,0.07916114113709757
-0.057375,0.02958,0.182622,0.981062,0.003933,-0.00295,0.005868,0.002181,0.004245,0.002462,0.078996,0.101773,-0.991666,0.0790778931269438
-0.05734,0.02957,0.182678,0.981054,0.003443,-0.005229,0.006525,0.002895,0.004058,0.002214,0.07897,0.101703,-0.991675,0.07905135440050652
-0.057264,0.029551,0.182757,0.981044,0.005544,-0.003124,0.008205,0.001855,0.005627,0.002251,0.078913,0.101556,-0.991695,0.07899458683048403
-0.057202,0.029555,0.18284,0.981032,0.005716,-0.001618,0.007746,0.002526,0.007453,0.002044,0.078907,0.101426,-0.991709,0.07898854067328602
-0.057144,0.029566,0.182925,0.981019,0.005309,-0.000292,0.006644,0.002305,0.007335,0.002576,0.078915,0.101302,-0.991721,0.07899788885210433
-0.057083,0.029601,0.182968,0.981014,0.006195,0.000434,0.004155,0.001426,0.008066,0.003816,0.078966,0.101167,-0.991731,0.07904901601410184
-0.057031,0.029669,0.182988,0.981011,0.00716,0.002051,0.001193,0.002274,0.007607,0.003608,0.079083,0.101039,-0.991734,0.07916587392922951
-0.056979,0.029736,0.183007,0.981008,0.008124,0.003668,-0.00177,0.003123,0.007149,0.0034,0.079199,0.10091,-0.991738,0.07928064542053503
-0.056926,0.029846,0.183002,0.981009,0.007102,0.010014,0.001357,0.001938,0.00391,0.002195,0.079393,0.100766,-0.991737,0.07947717772195467
-0.056876,0.029944,0.183034,0.981003,0.006948,-0.000912,0.004874,0.00204,0.003687,0.001252,0.07957,0.100631,-0.991737,0.07965499859615155
-0.056802,0.029961,0.183076,0.980999,0.008362,0.005117,0.005161,0.001942,0.003048,0.003603,0.079582,0.100475,-0.991752,0.07966582969387244
-0.05674,0.030027,0.183151,0.980987,0.005013,0.005493,0.007932,0.001453,0.002725,0.001226,0.079695,0.100323,-0.991758,0.07978077558333074
-0.056692,0.030089,0.183248,0.980969,0.007896,-0.000691,0.009437,0.001677,0.003835,0.000481,0.07981,0.100198,-0.991761,0.07989511473030618
-0.05659,0.030069,0.18331,0.980964,0.010098,0.000347,0.005314,0.002727,0.004454,0.002199,0.079741,0.100001,-0.991787,0.07982498634073813
-0.056518,0.030098,0.183345,0.980961,0.001749,0.000915,-0.001718,0.001462,0.007915,9.6e-05,0.079775,0.099846,-0.9918,0.07985937082317443
-0.056535,0.030088,0.183321,0.980965,-0.004697,-0.005857,-0.005647,0.000495,0.006932,0.001334,0.079758,0.099885,-0.991797,0.07984346166374065
-0.056593,0.030006,0.183264,0.980975,-0.005816,-0.008485,-0.005597,0.000815,0.00632,0.004218,0.079614,0.100034,-0.991794,0.07969753310782186
-0.056671,0.029943,0.183214,0.980981,-0.011876,5e-06,-0.003025,0.001588,0.006402,0.004808,0.079513,0.100215,-0.991784,0.07959689261101514
-0.056839,0.029965,0.183212,0.980971,-0.012441,0.001886,0.000291,0.00186,0.006787,0.003933,0.079618,0.100536,-0.991743,0.0797011194539982
-0.057007,0.029988,0.183211,0.980961,-0.013007,0.003767,0.003607,0.002133,0.007171,0.003057,0.079722,0.100856,-0.991702,0.07980742749800647
-0.057165,0.030026,0.183248,0.980944,-0.010663,0.007279,0.006007,0.001696,0.00822,0.001801,0.079857,0.101147,-0.991661,0.07994351844165591
-0.05728,0.030056,0.183281,0.98093,-0.006252,0.004851,0.003947,0.000886,0.008223,0.001635,0.079963,0.101358,-0.991631,0.08004779450297823
-0.057349,0.030103,0.183348,0.980912,-0.001003,0.008,0.007021,0.003727,0.009231,0.002177,0.080087,0.10147,-0.99161,0.08017229504398742
-0.057348,0.030207,0.183428,0.980894,0.004999,0.006881,0.003742,0.00257,0.010002,0.002542,0.080298,0.101423,-0.991597,0.0803847304396153
-0.057295,0.03029,0.183419,0.980896,0.009211,0.005319,-0.001769,0.00458,0.010347,0.001712,0.080441,0.10129,-0.9916,0.08052766770698937
-0.057213,0.030378,0.183407,0.9809,0.012581,0.003501,-0.001012,0.002822,0.009692,0.001908,0.080582,0.101097,-0.991608,0.08066955520994769
-0.057102,0.030447,0.183365,0.980913,0.01294,0.003017,-0.003037,0.002368,0.010108,0.002495,0.080672,0.100859,-0.991625,0.08076049417902431
-0.056993,0.030463,0.183283,0.980934,0.009462,0.006425,-0.007576,0.001937,0.007148,0.004505,0.080657,0.100647,-0.991647,0.08074378797881736
-0.056917,0.030585,0.18324,0.980943,0.013395,0.00156,-0.002111,0.002191,0.00492,-0.001295,0.080864,0.100457,-0.99165,0.08095161136054843
-0.056745,0.030567,0.183276,0.980946,0.019417,-0.003545,0.001754,0.005046,0.007197,0.004426,0.080769,0.100122,-0.991691,0.08085722315280092
-0.056566,0.030652,0.183263,0.980956,0.011296,0.012675,0.001895,0.004848,0.006189,0.003391,0.08087,0.099743,-0.991721,0.08095784263826147
-0.056501,0.030753,0.183264,0.980957,0.010244,0.002593,-0.00095,0.003541,0.005586,-3.8e-05,0.081043,0.099579,-0.991724,0.08113292074129631
-0.056378,0.030806,0.18329,0.980957,0.015105,0.003687,0.003417,0.004413,0.005844,0.001482,0.081106,0.099315,-0.991745,0.08119495511149939
-0.056302,0.030822,0.183266,0.980966,0.003093,-0.002827,-0.00284,0.004328,0.008843,0.001052,0.081106,0.099163,-0.99176,0.08119634252641565
-0.056266,0.030803,0.18323,0.980975,0.000883,-0.002768,-0.002748,0.004136,0.006234,0.004092,0.081053,0.099103,-0.991771,0.08114219569446621
-0.05628,0.03079,0.183205,0.980979,-0.00079,0.002936,0.000722,0.004104,0.005808,0.004588,0.08103,0.099137,-0.991769,0.08111917739060445
-0.056281,0.030847,0.183202,0.980978,0.001238,0.002133,0.001004,0.005165,0.004247,0.002798,0.081141,0.099119,-0.991762,0.08123134538495907
-0.056233,0.030932,0.183262,0.980967,0.003625,0.004822,0.002487,0.00542,0.005182,0.002894,0.081298,0.098988,-0.991762,0.08138710630805776
-0.056184,0.031018,0.183323,0.980956,0.006012,0.007512,0.003971,0.005676,0.006117,0.00299,0.081455,0.098856,-0.991762,0.08154456722837848
-0.056124,0.03113,0.183354,0.98095,0.006186,0.006586,0.000647,0.005979,0.010115,0.001561,0.081654,0.098694,-0.991762,0.08174608000565102
-0.056098,0.031192,0.18329,0.980961,0.004288,0.003296,-0.006653,0.007377,0.009848,0.002414,0.08176,0.098627,-0.99176,0.08185204338514454
-0.056106,0.031245,0.183159,0.980984,-0.001025,0.00373,-0.014221,0.006343,0.008132,0.002797,0.081855,0.098633,-0.991752,0.08194601035246564
-0.056107,0.031256,0.183001,0.981013,-0.002606,-0.004211,-0.014635,0.006899,0.004942,0.001041,0.08186,0.098644,-0.99175,0.08195206166231968
-0.056142,0.03117,0.182836,0.981044,-0.000603,-0.005726,-0.013754,0.006442,0.003738,0.001571,0.081688,0.098757,-0.991753,0.081778963451158
-0.056151,0.031074,0.182726,0.981067,9.9e-05,-0.009646,-0.007301,0.004267,0.004838,0.00252,0.081492,0.09882,-0.991763,0.08158231460579353
-0.056153,0.031001,0.182713,0.981072,-0.001704,-0.006788,-0.000196,0.005738,0.002262,0.001867,0.081348,0.098851,-0.991772,0.08143818121932425
-0.056171,0.030945,0.182783,0.98106,-0.001034,-0.010165,0.009435,0.004273,0.004087,0.001944,0.081252,0.098901,-0.991774,0.08134168063427066
-0.056208,0.030842,0.182931,0.981033,-0.005196,-0.011911,0.01618,0.004271,0.006298,0.001192,0.081078,0.099,-0.991779,0.08116750565381801
-0.056247,0.030734,0.183088,0.981005,-0.007425,-0.014016,0.013336,0.003817,0.006346,0.003762,0.080897,0.099103,-0.991783,0.08098521278590846
-0.056296,0.030571,0.183207,0.980985,-0.003155,-0.011363,0.010978,0.004026,0.007775,0.002583,0.080607,0.099249,-0.991792,0.08069457422963373
-0.056309,0.030499,0.183326,0.980964,0.000187,-0.010147,0.007685,0.002788,0.00882,0.002636,0.080483,0.099292,-0.991798,0.08056979093293
-0.056281,0.030431,0.183393,0.980955,0.002852,-0.007885,0.003046,0.002736,0.011628,0.002497,0.080345,0.099257,-0.991813,0.08043266338477921
-0.056232,0.030348,0.183382,0.980963,0.003748,-0.00612,-0.0014,0.002891,0.009129,0.003913,0.080164,0.099193,-0.991834,0.08025051325199292
-0.056182,0.030264,0.183365,0.980971,0.006833,-0.002249,0.000327,0.004288,0.007375,0.003203,0.079979,0.099127,-0.991855,0.08006535276687328
-0.056086,0.030268,0.183391,0.980972,0.008231,-0.004408,0.003015,0.003491,0.00699,0.003313,0.079956,0.098936,-0.991876,0.08004089312989689
-0.056024,0.030245,0.183416,0.980972,0.005703,-0.002582,0.003444,0.002266,0.007275,0.002815,0.079891,0.098821,-0.991893,0.0799756203292269
-0.055954,0.030211,0.18348,0.980965,0.004678,-0.005629,0.003759,0.003522,0.006315,0.002642,0.079805,0.098692,-0.991913,0.07988970081754176
-0.055908,0.030165,0.183524,0.98096,0.002642,-0.004986,0.005401,0.001824,0.008535,0.002791,0.079703,0.098614,-0.991929,0.07978686255222811
-0.055888,0.030144,0.183605,0.980947,0.004379,-0.00437,0.005141,0.00288,0.008961,0.003979,0.079663,0.098578,-0.991936,0.07974646292659592
-0.055829,0.03012,0.183631,0.980946,0.003363,-0.003266,0.0011,0.001904,0.007921,0.002137,0.079596,0.098468,-0.991952,0.07968034499562981
-0.055791,0.030084,0.183634,0.980949,0.00316,-0.004757,-0.00302,0.002213,0.00729,0.00279,0.079513,0.098408,-0.991965,0.07959600887900883
-0.05575,0.030011,0.183577,0.980964,0.001102,-0.003998,-0.001369,0.004594,0.005898,0.001798,0.079348,0.09836,-0.991982,0.0794317582063737
-0.055737,0.029998,0.183557,0.980969,0.000662,-0.002679,-0.001367,0.002752,0.005283,0.002112,0.079315,0.098339,-0.991987,0.0793994488088394
-0.055741,0.029985,0.183537,0.980973,-0.000924,-0.001006,-0.001207,0.00246,0.004817,0.002533,0.079291,0.098355,-0.991988,0.07937334008283546
-0.055758,0.029992,0.183546,0.98097,-0.000802,0.001602,0.001483,0.003137,0.004861,0.001893,0.079311,0.098384,-0.991983,0.07939420335824027
-0.055768,0.030015,0.183581,0.980962,0.000149,0.000223,0.00281,0.003063,0.004376,0.001308,0.079363,0.098393,-0.991978,0.07944658754063888
-0.055768,0.030056,0.183619,0.980954,0.002137,0.002281,0.005238,0.002853,0.005194,0.002066,0.079448,0.098374,-0.991973,0.07953105059492925
-0.055763,0.030107,0.18366,0.980945,0.000691,0.003232,0.004652,0.00275,0.005595,0.002439,0.079549,0.098341,-0.991968,0.07963362700766637
-0.055762,0.030151,0.18371,0.980934,0.001099,0.001069,0.005766,0.002591,0.005757,0.001919,0.079641,0.09832,-0.991963,0.07972478494328523
-0.055765,0.030156,0.183766,0.980923,-0.000649,0.001625,0.004358,0.003509,0.006542,0.002562,0.079657,0.098319,-0.991962,0.0797413313591931
-0.055792,0.030166,0.183801,0.980915,-0.000549,0.002212,0.003514,0.003312,0.007087,0.002601,0.07969,0.098366,-0.991955,0.07977440109498757
-0.055813,0.030195,0.183828,0.980908,-0.000382,0.001778,0.002395,0.00288,0.007996,0.001912,0.079757,0.098393,-0.991946,0.07984181957047368
-0.055825,0.030229,0.183873,0.980898,-0.000301,0.001569,0.001857,0.002223,0.007141,0.00281,0.079832,0.0984,-0.99194,0.0799175944790131
-0.055862,0.030258,0.183881,0.980893,-0.001103,0.000426,0.001046,0.002457,0.005772,0.001369,0.079903,0.098461,-0.991928,0.07998891220571684
-0.055875,0.03023,0.183906,0.980889,0.001079,-0.003866,0.001926,0.00279,0.00519,0.002117,0.079856,0.098496,-0.991928,0.07994116242928863
-0.055865,0.030217,0.183951,0.980881,0.002764,-0.000305,0.004183,0.003371,0.005439,0.002752,0.079832,0.098476,-0.991932,0.07991644666557615
-0.055837,0.030244,0.184028,0.980868,0.003398,-0.000993,0.006137,0.003221,0.005029,0.002772,0.079882,0.098406,-0.991935,0.07996708726551384
-0.055774,0.030244,0.184111,0.980856,0.008869,-0.003469,0.007116,0.004551,0.005691,0.002897,0.079868,0.098277,-0.991949,0.07995238539189771
-0.055661,0.030237,0.184178,0.98085,0.010666,0.000563,0.006687,0.004097,0.007976,0.00377,0.079819,0.098051,-0.991975,0.07990398553257215
-0.055594,0.030277,0.184222,0.980844,0.003857,-0.00088,0.001068,0.003374,0.009267,0.001617,0.079877,0.097903,-0.991985,0.07996248942921812
-0.055587,0.030225,0.184185,0.980853,-7.3e-05,-0.008076,-0.005624,0.003325,0.009569,0.001718,0.07977,0.097911,-0.991993,0.07985398692951036
-0.055615,0.030157,0.184122,0.980865,-0.004941,-0.008488,-0.007644,0.003642,0.00982,0.003977,0.079639,0.097996,-0.991995,0.07972420867487535
-0.055699,0.030081,0.184043,0.980878,-0.009892,-0.006421,-0.006752,0.003653,0.00831,0.00436,0.079514,0.098195,-0.991986,0.07959762994154354
-0.055829,0.029984,0.183955,0.98089,-0.011767,-0.002961,-0.005766,0.002546,0.007247,0.003962,0.079363,0.098494,-0.991968,0.07944560407260216
-0.055979,0.029931,0.183918,0.98089,-0.010706,-0.000748,0.000483,0.003542,0.007263,0.003525,0.079309,0.098808,-0.991941,0.07939250642089227
-0.056031,0.029965,0.183967,0.980876,-0.006512,0.000291,0.000469,0.00381,0.008622,0.003171,0.0794,0.098894,-0.991925,0.0794832726650238
-0.056084,0.029999,0.184016,0.980863,-0.002319,0.001331,0.000456,0.004078,0.009982,0.002816,0.079491,0.09898,-0.991909,0.07957447726841688
-0.056136,0.030033,0.184065,0.98085,0.001875,0.002371,0.000442,0.004345,0.011341,0.002462,0.079582,0.099066,-0.991893,0.07966532188128185
-0.056131,0.030079,0.184078,0.980846,0.004306,0.003025,-0.002767,0.004645,0.011605,0.002682,0.079671,0.099037,-0.991889,0.07975522365982746
-0.056089,0.030122,0.184032,0.980856,0.007579,0.001616,-0.008352,0.005086,0.010608,0.002398,0.079735,0.098944,-0.991893,0.07981976143203064
-0.056015,0.030148,0.183937,0.980877,0.009032,0.00099,-0.010831,0.004054,0.008533,0.00215,0.07975,0.098798,-0.991907,0.0798341985487659
-0.055936,0.030156,0.183831,0.980902,0.008323,0.000257,-0.006976,0.004411,0.007477,0.003103,0.079725,0.098648,-0.991924,0.07981040413877744
-0.055898,0.030177,0.183751,0.980918,0.002529,0.002216,-0.005344,0.004245,0.005673,0.002453,0.079745,0.098573,-0.99193,0.07982971433308322
-0.055905,0.030188,0.183748,0.980918,7.5e-05,-0.005162,0.000527,0.003881,0.004379,-0.000537,0.07977,0.098583,-0.991927,0.07985360772914267
-0.055878,0.030083,0.183794,0.980914,0.006421,-0.010875,0.006845,0.006053,0.005,0.003719,0.079557,0.098566,-0.991945,0.07964191988922362
-0.055821,0.030051,0.183875,0.980903,0.00158,0.00243,0.009955,0.005981,0.005766,0.004091,0.079483,0.098459,-0.991962,0.07956633138840713
-0.055821,0.03004,0.183942,0.980891,-0.001473,-0.003023,0.004774,0.0043,0.005549,0.000517,0.079468,0.098457,-0.991963,0.07955146354734274
-0.055794,0.030009,0.183996,0.980883,0.00137,-0.005654,0.00516,0.004624,0.006642,0.000381,0.079402,0.098412,-0.991973,0.07948605435549687
-0.055789,0.029921,0.183995,0.980886,-0.001918,-0.009103,-0.004394,0.004509,0.007865,0.000324,0.079228,0.098435,-0.991985,0.07931109574368903
-0.05582,0.029836,0.183944,0.980897,-0.003573,-0.008961,-0.006849,0.005212,0.006939,0.001882,0.079068,0.098532,-0.991988,0.07915021085246231
-0.055867,0.029752,0.183873,0.98091,-0.007557,-0.005752,-0.006718,0.004228,0.004848,0.002411,0.078913,0.09866,-0.991987,0.07899506656451984
-0.055964,0.029726,0.183863,0.980907,-0.007707,-0.002561,-0.004643,0.004105,0.005255,0.002842,0.078897,0.09886,-0.991969,0.07897838094760645
-0.056062,0.029701,0.183852,0.980904,-0.007856,0.00063,-0.002567,0.003983,0.005662,0.003272,0.078881,0.099061,-0.99195,0.07896391609443137
-0.056159,0.029675,0.183842,0.980901,-0.008006,0.00382,-0.000492,0.00386,0.006068,0.003702,0.078866,0.099262,-0.991931,0.07894722313966647
-0.056273,0.029716,0.183845,0.980893,-0.009401,0.004688,-0.001073,0.004296,0.005967,0.002572,0.078986,0.099469,-0.991901,0.07906981761933535
-0.056399,0.029748,0.183827,0.980888,-0.01156,0.004516,-0.004376,0.005111,0.007441,0.001521,0.079094,0.099706,-0.991868,0.07917693098455725
-0.056573,0.029726,0.183713,0.9809,-0.015143,0.001281,-0.010894,0.005603,0.007091,0.001508,0.079103,0.100064,-0.991832,0.07918558560520005
-0.056748,0.029704,0.183599,0.980912,-0.018726,-0.001954,-0.017412,0.006096,0.006741,0.001495,0.079111,0.100422,-0.991795,0.07919452793150547
-0.056936,0.029645,0.183422,0.980936,-0.018161,-0.003466,-0.016096,0.005741,0.006416,0.001584,0.079046,0.100826,-0.991759,0.07912887555512386
-0.057113,0.029552,0.183294,0.980953,-0.01586,-0.006916,-0.008962,0.004687,0.00554,0.002221,0.078916,0.101218,-0.991729,0.07899732574394534
-0.057258,0.029461,0.183213,0.980962,-0.013998,-0.005307,-0.002176,0.00427,0.005194,0.002473,0.078781,0.101541,-0.991707,0.07886278318042148
-0.057396,0.029373,0.183223,0.980955,-0.013873,-0.004882,0.004015,0.004037,0.00548,0.002989,0.07866,0.101841,-0.991686,0.07874105961385838
-0.057538,0.029316,0.183281,0.980937,-0.012841,-0.003494,0.007076,0.00431,0.00616,0.002677,0.078607,0.102137,-0.99166,0.07868671684422049
-0.057654,0.029286,0.183385,0.980912,-0.010514,-0.004113,0.009751,0.003805,0.008466,0.002979,0.0786,0.102366,-0.991637,0.07868089152483516
-0.057766,0.029229,0.183482,0.980889,-0.01054,-0.00375,0.006554,0.003707,0.010739,0.002578,0.078539,0.102597,-0.991618,0.07861981907079148
-0.057866,0.029181,0.183502,0.980881,-0.009366,-0.003292,0.003471,0.00396,0.010608,0.003078,0.078483,0.102809,-0.9916,0.07856402565011875
-0.057966,0.029133,0.183523,0.980872,-0.008192,-0.002833,0.000388,0.004213,0.010478,0.003578,0.078427,0.103021,-0.991583,0.07850829988414636
-0.058066,0.029084,0.183544,0.980864,-0.007019,-0.002375,-0.002696,0.004466,0.010347,0.004079,0.078371,0.103233,-0.991565,0.07845067509078539
-0.058147,0.029044,0.18351,0.980867,-0.005162,-0.001733,-0.002322,0.004128,0.009236,0.003502,0.078319,0.10341,-0.991551,0.07839799845922654
-0.058202,0.029008,0.183495,0.980867,-0.004208,-0.001408,-0.000455,0.004582,0.009018,0.00319,0.078266,0.10353,-0.991542,0.0783456554082236
-0.058269,0.028997,0.183486,0.980865,-0.003858,-0.001289,0.000231,0.004688,0.008455,0.001772,0.078267,0.103667,-0.991528,0.07834750550945309
-0.058327,0.028957,0.183492,0.980862,-0.00256,-0.000855,0.000282,0.004069,0.008496,0.001791,0.078211,0.103794,-0.991519,0.07829067265357247
-0.058366,0.028915,0.183519,0.980856,-8.3e-05,-0.001902,0.001851,0.004506,0.008263,0.001259,0.078146,0.103885,-0.991515,0.07822519701148468
-0.058374,0.028894,0.183555,0.980849,0.000805,-0.002278,0.002415,0.004589,0.008625,0.001509,0.07811,0.103906,-0.991515,0.07819063011553011
-0.058338,0.02887,0.183583,0.980847,0.002728,-0.002821,0.003296,0.004409,0.009157,0.001156,0.078054,0.103842,-0.991526,0.07813330984747344
-0.058296,0.028832,0.183622,0.980843,0.003554,-0.003911,0.002718,0.004245,0.007887,0.001576,0.077968,0.10377,-0.991541,0.07804739912228925
-0.058257,0.028795,0.183637,0.980844,0.00342,-0.003479,0.001624,0.0038,0.006836,0.00227,0.077883,0.103706,-0.991554,0.07796203996192796
-0.058213,0.028752,0.183671,0.980841,0.00202,-0.002824,0.002347,0.00446,0.006264,0.002857,0.077786,0.103634,-0.991569,0.07786501895895635
-0.058171,0.028738,0.183696,0.980839,0.001381,-0.001643,0.002499,0.004339,0.006641,0.002435,0.077746,0.103555,-0.991581,0.07782479884295097
-0.058129,0.028724,0.183722,0.980838,0.000742,-0.000461,0.00265,0.004218,0.007018,0.002013,0.077706,0.103475,-0.991592,0.07778474898552361
-0.058108,0.028713,0.183758,0.980832,0.00111,-0.001811,0.002699,0.004241,0.00765,0.003236,0.07768,0.103436,-0.991598,0.07775921626735162
-0.058091,0.028711,0.18379,0.980827,0.000571,-0.000527,0.002162,0.00466,0.007622,0.003144,0.077674,0.103401,-0.991602,0.0777524554538088
-0.058074,0.028709,0.183823,0.980822,3.3e-05,0.000757,0.001625,0.005078,0.007595,0.003052,0.077668,0.103365,-0.991606,0.07774580900126418
-0.058078,0.028694,0.183846,0.980818,1.1e-05,0.000244,0.000525,0.005074,0.00754,0.002099,0.077642,0.103377,-0.991607,0.07772021968948022
-0.058098,0.028707,0.183879,0.98081,0.000288,0.000171,0.002023,0.004295,0.008252,0.002824,0.077678,0.103409,-0.991601,0.07775655970422297
-0.058104,0.028711,0.18389,0.980808,-0.00116,-0.000364,0.000853,0.003603,0.00933,0.002126,0.077689,0.103419,-0.991599,0.07776781017464332
-0.058141,0.028722,0.183905,0.980803,-0.003008,-0.001993,-0.002118,0.004378,0.009502,0.003202,0.077726,0.103486,-0.991589,0.07780456395748017
-0.058176,0.028724,0.183866,0.980808,-0.003061,-0.00132,-0.00609,0.00366,0.00823,0.003754,0.077739,0.103555,-0.991581,0.07781714810781683
-0.0582,0.028691,0.183797,0.98082,0.00065,-0.001893,-0.003974,0.004864,0.007301,0.002762,0.077675,0.10362,-0.991579,0.07775370549649803
-0.058188,0.028663,0.183749,0.980831,0.005301,0.001132,-0.00207,0.004596,0.006803,0.002566,0.07761,0.103611,-0.991585,0.07768921831304534
-0.058174,0.028669,0.183721,0.980837,0.003263,-0.004208,0.000332,0.00366,0.005859,0.000224,0.077615,0.103584,-0.991588,0.07769294082576007
-0.058138,0.028639,0.183743,0.980836,0.00453,-0.005189,0.004677,0.003902,0.005234,0.001923,0.077545,0.103523,-0.9916,0.07762315315671336
-0.058088,0.02859,0.18381,0.980827,0.003907,-0.005816,0.008119,0.002987,0.003688,0.002646,0.077438,0.103438,-0.991617,0.077515602696861
-0.058021,0.028571,0.183947,0.980806,0.009828,-0.00397,0.014065,0.003873,0.003621,0.001666,0.077391,0.103303,-0.991635,0.07746825641679447
-0.057875,0.02854,0.184083,0.98079,0.016199,-0.009174,0.014357,0.004799,0.006948,0.003115,0.077292,0.103019,-0.991672,0.07736826313116679
-0.05768,0.02853,0.184221,0.980776,0.015288,-0.001091,0.008344,0.005558,0.00911,0.004399,0.077216,0.10263,-0.991718,0.0772917471349941
-0.05756,0.028541,0.184251,0.980777,0.004892,-0.004288,-0.001638,0.004067,0.012316,-0.000165,0.077197,0.10239,-0.991744,0.07727256459333082
-0.057522,0.02844,0.184171,0.980797,0.001827,-0.012634,-0.011137,0.005256,0.011625,0.000432,0.076975,0.102359,-0.991765,0.07705172151959865
-0.057506,0.028307,0.18406,0.980823,-0.001794,-0.010536,-0.012514,0.004204,0.009908,0.002928,0.076697,0.102386,-0.991784,0.0767728171542801
-0.057568,0.028158,0.183921,0.98085,-0.008791,-0.009837,-0.01197,0.003484,0.008763,0.004218,0.076414,0.102574,-0.991786,0.07648803622795897
-0.057682,0.028059,0.183816,0.980866,-0.011021,-0.005479,-0.005779,0.003108,0.006247,0.003668,0.076251,0.102841,-0.991771,0.07632406820335072
-0.057771,0.028012,0.183828,0.980859,-0.006149,-0.001445,0.006291,0.002401,0.005921,0.005158,0.076191,0.103032,-0.991756,0.07626540974400169
-0.057828,0.02803,0.183919,0.980839,-0.002497,0.002568,0.01099,0.002007,0.008483,0.004922,0.076258,0.10313,-0.99174,0.07633127217000708
-0.057833,0.028048,0.184048,0.980813,0.003208,0.003,0.011485,0.00308,0.011171,0.001955,0.076308,0.103121,-0.991737,0.07638203188328245
-0.057791,0.028063,0.184145,0.980797,0.004523,-0.000216,0.004405,0.00473,0.012306,0.000976,0.076331,0.103028,-0.991745,0.07640638069547907
-0.057732,0.028072,0.184142,0.980801,0.007678,-0.004472,-0.006095,0.003908,0.012175,0.002005,0.076328,0.102908,-0.991758,0.07640217183660855
-0.057625,0.028041,0.184057,0.980824,0.012803,-0.005159,-0.010397,0.003154,0.008627,0.001448,0.076218,0.102718,-0.991786,0.07629313178161869
