timestamp,quat_x,quat_y,quat_z,quat_w,rot_x,rot_y,rot_z,acc_x,acc_y,acc_z,grav_x,grav_y,grav_z
1762624796.791516,-0.127587,0.115271,-0.000000,0.985106,0.014540,0.150497,0.125837,0.019023,-0.014767,0.027485,0.227109,0.251374,-0.940868
1762624796.820937,-0.127428,0.116051,0.000427,0.985035,0.020303,0.098274,0.076847,0.016201,-0.020445,0.031754,0.228738,0.250942,-0.940589
1762624796.821272,-0.127268,0.116831,0.000854,0.984963,0.026066,0.046050,0.027856,0.013380,-0.026121,0.036021,0.230366,0.250509,-0.940307
1762624796.855909,-0.126639,0.120556,0.000674,0.984596,0.030872,0.009439,-0.093771,0.021665,-0.023343,0.007680,0.237568,0.249215,-0.938858
1762624796.856187,-0.126199,0.125882,0.000814,0.983985,0.032754,0.002996,-0.124509,0.014301,-0.017522,-0.001005,0.247938,0.248150,-0.936455
1762624796.892371,-0.123697,0.127269,-0.000654,0.984125,0.028583,-0.015313,-0.130040,-0.002834,0.002915,0.011246,0.250335,0.243632,-0.937004
1762624796.923058,-0.122369,0.127264,-0.001143,0.984291,0.044825,-0.047771,-0.108607,-0.003721,0.003590,0.007432,0.250249,0.241184,-0.937660
1762624796.923212,-0.121041,0.127258,-0.001631,0.984455,0.061067,-0.080230,-0.087173,-0.004609,0.004266,0.003612,0.250165,0.238733,-0.938309
1762624796.985367,-0.118985,0.127409,-0.002348,0.984685,0.101408,-0.066993,-0.036818,0.003507,0.005257,-0.010291,0.250357,0.234923,-0.939219
1762624796.985733,-0.119027,0.127089,-0.002591,0.984720,0.106023,-0.064737,-0.023398,0.002729,0.003608,-0.008954,0.249677,0.235075,-0.939362
1762624796.986097,-0.119069,0.126769,-0.002834,0.984756,0.110637,-0.062481,-0.009978,0.001951,0.001960,-0.007618,0.248997,0.235227,-0.939505
1762624797.016135,-0.118652,0.125579,-0.003223,0.984958,0.100490,-0.071938,-0.008978,0.006925,-0.003178,0.000939,0.246615,0.234543,-0.940304
1762624797.016446,-0.118189,0.125267,-0.003346,0.985052,0.082935,-0.063013,-0.017016,0.010244,-0.002246,0.000422,0.245997,0.233683,-0.940679
1762624797.051716,-0.117439,0.124589,-0.003791,0.985227,0.048915,-0.058521,-0.035233,0.016459,-0.001247,0.000042,0.244606,0.232352,-0.941372
1762624797.081944,-0.117255,0.124369,-0.004021,0.985275,0.048161,-0.067300,-0.042656,0.010912,-0.003876,0.004146,0.244132,0.232057,-0.941567
1762624797.082289,-0.117071,0.124149,-0.004251,0.985324,0.047407,-0.076078,-0.050079,0.005364,-0.006505,0.008250,0.243659,0.231761,-0.941763
1762624797.114940,-0.116429,0.123343,-0.004881,0.985498,0.057189,-0.122094,-0.043623,-0.003192,0.005780,0.007415,0.241972,0.230684,-0.942462
1762624797.115197,-0.116164,0.122986,-0.005023,0.985574,0.049767,-0.125381,-0.022556,0.001004,0.011561,-0.001873,0.241256,0.230212,-0.942761
1762624797.149603,-0.115616,0.122537,-0.004639,0.985696,0.022795,-0.062706,0.040996,-0.000841,0.016497,-0.015554,0.240495,0.229062,-0.943235
1762624797.190922,-0.115624,0.122355,-0.004021,0.985720,0.016942,-0.051191,0.049516,-0.006421,0.011929,-0.011812,0.240287,0.228930,-0.943320
1762624797.191258,-0.115632,0.122174,-0.003403,0.985744,0.011089,-0.039677,0.058036,-0.012000,0.007360,-0.008070,0.240078,0.228799,-0.943405
1762624797.220072,-0.115744,0.122051,-0.002926,0.985748,0.007154,-0.024833,0.055579,-0.011722,0.003647,-0.008629,0.239946,0.228903,-0.943414
1762624797.220417,-0.115856,0.121928,-0.002449,0.985751,0.003219,-0.009989,0.053122,-0.011444,-0.000067,-0.009188,0.239814,0.229008,-0.943422
1762624797.257950,-0.116141,0.121830,-0.001894,0.985731,0.010216,0.019458,0.029057,-0.008895,-0.005312,-0.005997,0.239743,0.229429,-0.943338
1762624797.258283,-0.116122,0.121759,-0.001840,0.985742,0.022677,0.023967,0.013207,-0.008580,-0.006378,-0.005895,0.239619,0.229381,-0.943381
1762624797.300533,-0.115723,0.121675,-0.002068,0.985799,0.038455,0.044759,-0.014508,-0.006115,-0.004966,-0.006674,0.239415,0.228662,-0.943607
1762624797.300866,-0.115534,0.121753,-0.002200,0.985811,0.043564,0.047862,-0.021124,-0.007182,-0.004274,-0.001932,0.239542,0.228325,-0.943656
1762624797.352891,-0.114645,0.121929,-0.002929,0.985891,0.053157,0.029728,-0.036689,-0.007613,-0.002279,0.001871,0.239746,0.226769,-0.943980
1762624797.353161,-0.114115,0.121882,-0.003337,0.985957,0.058657,0.026727,-0.035695,-0.003184,-0.000551,-0.001170,0.239579,0.225838,-0.944245
1762624797.382387,-0.113677,0.121913,-0.003655,0.986003,0.055717,0.023662,-0.029113,-0.005307,0.002310,-0.000488,0.239583,0.225063,-0.944429
1762624797.382660,-0.113240,0.121944,-0.003972,0.986048,0.052776,0.020596,-0.022531,-0.007432,0.005171,0.000193,0.239587,0.224288,-0.944613
1762624797.413729,-0.112575,0.121838,-0.004320,0.986136,0.027527,0.000751,0.001225,-0.005596,0.009405,-0.001657,0.239324,0.223081,-0.944965
1762624797.414047,-0.112424,0.121752,-0.004322,0.986163,0.014243,-0.003169,0.009177,-0.004408,0.009476,-0.004595,0.239164,0.222790,-0.945074
1762624797.442124,-0.112397,0.121760,-0.004216,0.986166,0.001608,0.001955,0.015870,-0.004300,0.006911,-0.005949,0.239202,0.222711,-0.945083
1762624797.474160,-0.112730,0.121701,-0.003979,0.986136,-0.021830,0.002565,0.012668,-0.002758,0.003167,-0.004454,0.239131,0.223302,-0.944962
1762624797.474440,-0.112969,0.121656,-0.003887,0.986115,-0.029219,0.001147,0.004118,-0.001624,0.001330,-0.006527,0.239055,0.223747,-0.944876
1762624797.504031,-0.113263,0.121638,-0.003933,0.986083,-0.031530,0.004688,-0.008434,-0.003518,-0.000448,-0.002683,0.239000,0.224330,-0.944752
1762624797.534954,-0.113929,0.121418,-0.004196,0.986033,-0.034624,-0.015708,-0.026549,-0.003966,0.000773,-0.001177,0.238488,0.225694,-0.944556
1762624797.535285,-0.114227,0.121257,-0.004349,0.986017,-0.036338,-0.014119,-0.021975,-0.002278,-0.001323,-0.002288,0.238129,0.226314,-0.944498
1762624797.566062,-0.114622,0.120814,-0.004598,0.986025,-0.015270,-0.018809,-0.020794,-0.002178,-0.003849,-0.001743,0.237197,0.227151,-0.944532
1762624797.597082,-0.114665,0.120637,-0.004704,0.986041,-0.009554,-0.021096,-0.019248,-0.002693,-0.002573,-0.001470,0.236827,0.227264,-0.944597
1762624797.597520,-0.114709,0.120460,-0.004809,0.986057,-0.003838,-0.023383,-0.017702,-0.003208,-0.001297,-0.001197,0.236457,0.227377,-0.944663
1762624797.650582,-0.114886,0.119948,-0.004895,0.986098,-0.017946,-0.028237,-0.009740,-0.003562,-0.000087,-0.003750,0.235436,0.227751,-0.944828
1762624797.650933,-0.115020,0.119713,-0.004911,0.986111,-0.022033,-0.033527,-0.010103,-0.003982,-0.001609,-0.004271,0.234971,0.228020,-0.944878
1762624797.679726,-0.115202,0.119492,-0.004903,0.986117,-0.029713,-0.029034,-0.003657,-0.004696,-0.001670,-0.005481,0.234537,0.228378,-0.944900
1762624797.680047,-0.115385,0.119272,-0.004894,0.986122,-0.037393,-0.024541,0.002789,-0.005411,-0.001731,-0.006690,0.234103,0.228735,-0.944921
1762624797.711266,-0.115967,0.118733,-0.004704,0.986120,-0.040227,-0.032577,0.008282,-0.006882,-0.000622,-0.004945,0.233079,0.229832,-0.944908
1762624797.752033,-0.116286,0.118587,-0.004428,0.986101,-0.040386,-0.014802,0.016385,-0.004623,-0.002366,-0.006521,0.232848,0.230390,-0.944829
1762624797.752142,-0.116605,0.118441,-0.004153,0.986082,-0.040545,0.002974,0.024488,-0.002364,-0.004109,-0.008097,0.232616,0.230949,-0.944750
1762624797.761344,-0.117060,0.118465,-0.003774,0.986027,-0.043895,0.018899,0.022119,-0.004050,-0.002641,-0.007254,0.232736,0.231742,-0.944526
1762624797.791405,-0.117359,0.118545,-0.003608,0.985982,-0.042388,0.017685,0.012599,-0.004957,-0.002153,-0.003482,0.232921,0.232283,-0.944348
1762624797.821723,-0.117618,0.118595,-0.003549,0.985945,-0.042996,0.012789,0.002111,-0.003704,-0.001290,-0.002447,0.233022,0.232771,-0.944202
1762624797.821986,-0.117877,0.118645,-0.003489,0.985909,-0.043604,0.007894,-0.008376,-0.002450,-0.000428,-0.001413,0.233123,0.233260,-0.944057
1762624797.858207,-0.118443,0.118789,-0.003611,0.985823,-0.040002,0.012337,-0.015068,-0.002499,0.000170,0.000781,0.233354,0.234385,-0.943721
1762624797.858484,-0.118625,0.118838,-0.003680,0.985795,-0.033323,0.013315,-0.018706,-0.004026,-0.002922,0.000316,0.233428,0.234754,-0.943611
1762624797.889535,-0.118909,0.118685,-0.003978,0.985778,-0.015852,-0.005843,-0.017147,-0.003175,0.006557,-0.001988,0.233047,0.235381,-0.943549
1762624797.968155,-0.119188,0.118645,-0.003928,0.985749,-0.018849,0.000278,-0.013263,-0.001892,0.005276,-0.002366,0.232973,0.235911,-0.943435
1762624797.968490,-0.119467,0.118606,-0.003877,0.985721,-0.021846,0.006399,-0.009380,-0.000610,0.003995,-0.002744,0.232899,0.236442,-0.943320
1762624797.968743,-0.119746,0.118567,-0.003827,0.985692,-0.024843,0.012520,-0.005496,0.000673,0.002714,-0.003122,0.232825,0.236972,-0.943206
1762624797.969218,-0.120024,0.118528,-0.003777,0.985663,-0.027840,0.018641,-0.001613,0.001955,0.001433,-0.003500,0.232750,0.237502,-0.943091
1762624798.000519,-0.120278,0.118586,-0.003758,0.985625,-0.029754,0.019639,-0.001698,-0.000003,0.001506,-0.001912,0.232858,0.237988,-0.942942
1762624798.000818,-0.120531,0.118643,-0.003739,0.985587,-0.031667,0.020636,-0.001783,-0.001962,0.001580,-0.000325,0.232966,0.238474,-0.942792
1762624798.028584,-0.120952,0.118848,-0.003934,0.985510,-0.010417,0.011132,-0.016793,-0.000483,-0.000675,0.001512,0.233299,0.239334,-0.942492
1762624798.059303,-0.120986,0.118932,-0.004076,0.985495,-0.003795,0.013855,-0.017462,0.000434,0.000976,-0.000635,0.233428,0.239431,-0.942435
1762624798.059759,-0.121020,0.119017,-0.004217,0.985480,0.002827,0.016579,-0.018131,0.001350,0.002627,-0.002782,0.233557,0.239529,-0.942378
1762624798.089910,-0.120902,0.119253,-0.004491,0.985465,0.014881,0.016887,-0.009926,-0.000483,0.002031,-0.002756,0.233954,0.239361,-0.942323
1762624798.120581,-0.120768,0.119340,-0.004567,0.985471,0.018232,0.017627,-0.010563,-0.000003,0.001695,-0.002163,0.234109,0.239116,-0.942346
1762624798.120937,-0.120633,0.119427,-0.004644,0.985476,0.021583,0.018367,-0.011200,0.000477,0.001360,-0.001570,0.234264,0.238871,-0.942370
1762624798.150975,-0.120324,0.119733,-0.004886,0.985476,0.015714,0.015982,-0.009043,0.000192,0.003124,0.001207,0.234811,0.238323,-0.942372
1762624798.158924,-0.120251,0.119847,-0.005054,0.985470,0.007248,0.010146,-0.011571,-0.000034,0.001263,0.001866,0.234995,0.238219,-0.942353
1762624798.203169,-0.120234,0.119867,-0.005143,0.985469,0.006166,0.006030,-0.012828,-0.000366,0.000279,0.002213,0.235013,0.238208,-0.942351
1762624798.203419,-0.120218,0.119887,-0.005233,0.985468,0.005085,0.001914,-0.014085,-0.000698,-0.000705,0.002560,0.235031,0.238196,-0.942350
1762624798.259181,-0.120209,0.119750,-0.005454,0.985484,0.000357,-0.015565,-0.014650,-0.000746,0.000635,0.001408,0.234713,0.238235,-0.942419
1762624798.259534,-0.120227,0.119619,-0.005524,0.985498,0.001273,-0.018025,-0.011287,-0.000120,-0.000379,0.000264,0.234441,0.238289,-0.942473
1762624798.259874,-0.120245,0.119489,-0.005594,0.985511,0.002190,-0.020486,-0.007925,0.000507,-0.001392,-0.000881,0.234169,0.238342,-0.942527
1762624798.304559,-0.120243,0.119243,-0.005720,0.985540,-0.000467,-0.010435,-0.008593,-0.000035,0.002203,-0.005838,0.233662,0.238373,-0.942645
1762624798.304879,-0.120265,0.119198,-0.005752,0.985543,-0.008334,-0.008492,-0.004055,-0.003066,0.003211,-0.003108,0.233566,0.238424,-0.942656
1762624798.336204,-0.120435,0.118909,-0.005727,0.985557,-0.006755,-0.029114,0.000416,-0.003350,0.000553,0.001841,0.233003,0.238753,-0.942712
1762624798.336670,-0.120441,0.118692,-0.005714,0.985583,-0.003668,-0.028161,0.000842,-0.000211,0.000005,-0.000985,0.232585,0.238766,-0.942812
1762624798.367992,-0.120414,0.118510,-0.005527,0.985609,0.004040,0.001432,0.014012,0.001905,-0.000627,-0.006601,0.232277,0.238672,-0.942912
1762624798.397685,-0.120416,0.118561,-0.005435,0.985603,-0.000193,0.002895,0.014797,-0.001879,0.001953,-0.004171,0.232400,0.238654,-0.942886
1762624798.397987,-0.120419,0.118613,-0.005343,0.985597,-0.004426,0.004357,0.015581,-0.005664,0.004532,-0.001741,0.232523,0.238636,-0.942861
1762624798.417191,-0.120459,0.118589,-0.005209,0.985596,-0.005086,-0.010140,0.007023,-0.004551,0.003159,0.000223,0.232507,0.238684,-0.942852
1762624798.446888,-0.120527,0.118447,-0.005164,0.985605,-0.007848,-0.001333,-0.001138,-0.001926,0.002033,-0.002496,0.232239,0.238807,-0.942887
1762624798.495027,-0.120626,0.118369,-0.005300,0.985601,0.003821,-0.004175,-0.009228,-0.005454,-0.000972,-0.000497,0.232051,0.239033,-0.942876
1762624798.507379,-0.120550,0.118256,-0.005421,0.985624,0.009654,-0.001845,-0.008313,-0.003271,0.001656,-0.004573,0.231806,0.238916,-0.942966
1762624798.552014,-0.120523,0.118264,-0.005498,0.985625,0.003158,0.000894,-0.006817,-0.004193,0.002295,-0.003786,0.231803,0.238882,-0.942976
1762624798.552298,-0.120496,0.118272,-0.005576,0.985627,-0.003339,0.003634,-0.005320,-0.005114,0.002935,-0.002998,0.231800,0.238848,-0.942985
1762624798.558701,-0.120519,0.118284,-0.005652,0.985623,-0.004909,0.010423,-0.007301,-0.000346,0.002775,-0.004759,0.231805,0.238910,-0.942968
1762624798.588036,-0.120603,0.118438,-0.005712,0.985594,-0.006009,0.021118,-0.004431,-0.000343,-0.000095,-0.003152,0.232086,0.239084,-0.942855
1762624798.616118,-0.120697,0.118648,-0.005777,0.985556,-0.007544,0.025846,-0.003445,-0.000683,0.000143,-0.001372,0.232473,0.239279,-0.942710
1762624798.618051,-0.120770,0.118833,-0.005843,0.985525,-0.002584,0.019844,-0.007621,-0.001206,-0.000500,0.000163,0.232814,0.239431,-0.942587
1762624798.647174,-0.120806,0.118989,-0.005966,0.985501,0.001088,0.015118,-0.008945,-0.001317,0.000945,-0.000119,0.233086,0.239529,-0.942495
1762624798.677906,-0.120803,0.119135,-0.006080,0.985483,0.002524,0.016708,-0.009662,-0.001305,0.001076,-0.001457,0.233342,0.239548,-0.942427
1762624798.679191,-0.120770,0.119274,-0.006202,0.985469,0.004111,0.012648,-0.010400,-0.001654,0.001684,-0.002497,0.233584,0.239510,-0.942376
1762624798.709517,-0.120712,0.119366,-0.006313,0.985465,0.003786,0.012214,-0.010063,-0.000764,0.001147,-0.003138,0.233737,0.239423,-0.942361
1762624798.752975,-0.120700,0.119493,-0.006434,0.985450,0.002425,0.016918,-0.011469,-0.000240,0.000638,-0.003496,0.233956,0.239426,-0.942306
1762624798.753228,-0.120688,0.119621,-0.006556,0.985435,0.001063,0.021622,-0.012875,0.000284,0.000130,-0.003855,0.234174,0.239429,-0.942250
1762624798.755024,-0.120718,0.119801,-0.006704,0.985409,-0.000811,0.018654,-0.015089,-0.000026,-0.000782,-0.002348,0.234487,0.239519,-0.942150
1762624798.783519,-0.120760,0.119996,-0.006922,0.985378,-0.000751,0.025162,-0.020468,-0.000458,-0.004130,-0.002075,0.234812,0.239651,-0.942036
1762624798.814108,-0.120780,0.120193,-0.007191,0.985350,0.005759,0.021150,-0.028918,-0.001369,-0.004763,0.000011,0.235127,0.239749,-0.941932
1762624798.815424,-0.120750,0.120324,-0.007526,0.985335,0.007580,0.014495,-0.030395,-0.000524,-0.000981,0.001666,0.235302,0.239769,-0.941883
1762624798.879587,-0.120716,0.120413,-0.007804,0.985326,0.004655,0.012885,-0.024899,-0.000448,-0.000844,0.001292,0.235408,0.239768,-0.941857
1762624798.879911,-0.120682,0.120502,-0.008081,0.985317,0.001730,0.011275,-0.019403,-0.000372,-0.000708,0.000918,0.235515,0.239767,-0.941830
1762624798.881324,-0.120625,0.120558,-0.008287,0.985316,0.006112,0.004341,-0.016962,-0.000844,-0.000932,-0.000578,0.235576,0.239705,-0.941831
1762624798.909667,-0.120577,0.120545,-0.008461,0.985322,0.003614,0.006629,-0.011747,0.001231,0.001363,-0.002220,0.235510,0.239654,-0.941861
1762624798.917477,-0.120582,0.120553,-0.008528,0.985319,-0.003679,-0.003845,-0.002380,-0.001078,0.001937,-0.000298,0.235510,0.239681,-0.941854
1762624798.947444,-0.120650,0.120448,-0.008521,0.985324,-0.009043,-0.015115,0.002056,-0.000812,-0.000027,0.000727,0.235305,0.239811,-0.941872
1762624798.977373,-0.120737,0.120280,-0.008447,0.985335,-0.010066,-0.012565,0.003571,0.002192,-0.002642,-0.004405,0.234992,0.239964,-0.941911
1762624798.977654,-0.120871,0.120277,-0.008358,0.985319,-0.016050,0.006540,0.004122,0.004604,-0.004061,-0.007017,0.235001,0.240203,-0.941847
1762624799.010774,-0.121104,0.120433,-0.008302,0.985272,-0.026601,0.020188,0.004483,0.001657,-0.002863,-0.004774,0.235308,0.240641,-0.941659
1762624799.044431,-0.121411,0.120556,-0.008343,0.985219,-0.029049,0.016674,-0.013391,0.003428,-0.009840,-0.007007,0.235523,0.241244,-0.941451
1762624799.044693,-0.121718,0.120680,-0.008383,0.985165,-0.031497,0.013160,-0.031266,0.005199,-0.016817,-0.009241,0.235738,0.241848,-0.941242
1762624799.080668,-0.122040,0.120845,-0.008894,0.985101,-0.028002,0.034153,-0.089260,0.008041,-0.026546,-0.013775,0.235918,0.242594,-0.941005
1762624799.082689,-0.122390,0.121154,-0.010186,0.985007,-0.019160,0.062445,-0.176729,0.008821,-0.034210,-0.013996,0.236182,0.243578,-0.940685
1762624799.111091,-0.122767,0.121568,-0.012508,0.984882,-0.015332,0.084816,-0.274142,0.005991,-0.034199,-0.009416,0.236389,0.244863,-0.940299
1762624799.112299,-0.123170,0.122119,-0.015787,0.984717,-0.014239,0.102495,-0.367334,-0.000116,-0.025618,-0.007596,0.236615,0.246430,-0.939833
1762624799.150647,-0.123601,0.122762,-0.019810,0.984510,-0.026256,0.118724,-0.418346,-0.003142,-0.012519,-0.006208,0.236823,0.248237,-0.939305
1762624799.156615,-0.124118,0.123450,-0.024150,0.984262,-0.033825,0.128526,-0.442241,-0.005212,-0.006914,-0.006326,0.237019,0.250291,-0.938710
1762624799.195672,-0.124632,0.124178,-0.028665,0.983984,-0.023205,0.125798,-0.448633,-0.006494,-0.001447,-0.004397,0.237234,0.252392,-0.938093
1762624799.197008,-0.125097,0.124903,-0.033153,0.983692,-0.019818,0.136075,-0.433776,-0.007344,0.007171,-0.004081,0.237437,0.254396,-0.937500
1762624799.232617,-0.125615,0.125701,-0.037361,0.983374,-0.025244,0.136401,-0.388121,-0.009360,0.016915,-0.000537,0.237836,0.256446,-0.936840
1762624799.233323,-0.126160,0.126441,-0.041051,0.983062,-0.024039,0.114899,-0.330609,-0.012895,0.021841,0.004277,0.238241,0.258426,-0.936193
1762624799.263465,-0.126610,0.127012,-0.044122,0.982798,-0.017547,0.091983,-0.265084,-0.011712,0.024667,0.005439,0.238482,0.260072,-0.935676
1762624799.303447,-0.127010,0.127485,-0.046512,0.982574,-0.014319,0.073093,-0.196783,-0.010454,0.027280,0.004104,0.238712,0.261453,-0.935232
1762624799.305021,-0.127374,0.127852,-0.048197,0.982398,-0.014131,0.055333,-0.125047,-0.009120,0.029795,0.005488,0.238926,0.262588,-0.934859
1762624799.333907,-0.127732,0.128110,-0.049204,0.982269,-0.018358,0.035333,-0.061505,-0.007191,0.030207,0.004419,0.239106,0.263542,-0.934545
1762624799.335588,-0.128116,0.128296,-0.049530,0.982178,-0.025698,0.024478,0.003824,-0.003220,0.025483,0.002974,0.239328,0.264374,-0.934253
1762624799.364622,-0.128509,0.128465,-0.049308,0.982116,-0.025929,0.016056,0.043817,-0.001679,0.017622,0.001432,0.239661,0.265090,-0.933965
1762624799.395380,-0.128862,0.128591,-0.048699,0.982083,-0.021579,-0.000732,0.076543,-0.002551,0.015327,0.006118,0.240023,0.265631,-0.933718
1762624799.397565,-0.129133,0.128553,-0.047766,0.982098,-0.016463,-0.022086,0.108489,-0.000928,0.013882,0.007170,0.240166,0.265924,-0.933598
1762624799.450652,-0.129279,0.128329,-0.046249,0.982181,-0.018177,-0.040693,0.147640,0.000234,0.015901,0.007124,0.240126,0.265820,-0.933638
1762624799.450942,-0.129424,0.128105,-0.044731,0.982262,-0.019891,-0.059299,0.186792,0.001397,0.017919,0.007079,0.240086,0.265717,-0.933677
1762624799.482870,-0.129536,0.127715,-0.042658,0.982390,-0.026382,-0.078144,0.226689,0.001722,0.018161,0.006614,0.239881,0.265407,-0.933818
1762624799.484498,-0.129658,0.127192,-0.040118,0.982548,-0.032639,-0.098653,0.260753,0.002201,0.013320,0.006757,0.239542,0.264996,-0.934022
1762624799.541826,-0.129825,0.126504,-0.037303,0.982726,-0.034160,-0.103911,0.262192,0.004241,0.005923,0.004635,0.238952,0.264604,-0.934284
1762624799.542157,-0.129991,0.125815,-0.034488,0.982895,-0.035680,-0.109168,0.263631,0.006282,-0.001479,0.002513,0.238360,0.264214,-0.934546
1762624799.542380,-0.130166,0.125125,-0.031785,0.983051,-0.029626,-0.109325,0.244831,0.006379,-0.011003,-0.000264,0.237735,0.263874,-0.934801
1762624799.571073,-0.130290,0.124418,-0.029394,0.983199,-0.025905,-0.095503,0.207524,0.008369,-0.015401,-0.006850,0.236995,0.263516,-0.935090
1762624799.573058,-0.130382,0.123851,-0.027393,0.983316,-0.022251,-0.086722,0.164447,0.004827,-0.017903,-0.006470,0.236427,0.263199,-0.935323
1762624799.608692,-0.130439,0.123300,-0.025874,0.983419,-0.021546,-0.077727,0.116068,0.003304,-0.017687,-0.006443,0.235761,0.262934,-0.935565
1762624799.640465,-0.130509,0.122785,-0.024793,0.983502,-0.021798,-0.064822,0.073117,0.004379,-0.017173,-0.010850,0.235046,0.262801,-0.935783
1762624799.641763,-0.130604,0.122477,-0.024118,0.983545,-0.025965,-0.026170,0.035821,0.005020,-0.017090,-0.014151,0.234623,0.262819,-0.935884
1762624799.670902,-0.130729,0.122436,-0.023840,0.983540,-0.026513,-0.001805,0.007937,0.000765,-0.011213,-0.010180,0.234608,0.262992,-0.935839
1762624799.672107,-0.130881,0.122501,-0.023786,0.983513,-0.028016,0.001926,-0.002307,-0.006284,-0.002516,-0.003512,0.234735,0.263273,-0.935728
1762624799.703486,-0.131026,0.122466,-0.023761,0.983499,-0.024962,-0.009716,-0.002657,-0.005446,0.002239,0.000041,0.234664,0.263548,-0.935668
1762624799.761342,-0.131154,0.122391,-0.023622,0.983494,-0.022642,-0.006759,0.007399,-0.004245,0.003133,-0.000498,0.234546,0.263761,-0.935638
1762624799.761660,-0.131282,0.122316,-0.023483,0.983490,-0.020323,-0.003802,0.017455,-0.003045,0.004027,-0.001037,0.234427,0.263974,-0.935608
1762624799.761916,-0.131385,0.122234,-0.023314,0.983490,-0.009030,-0.009277,0.012322,-0.004330,0.000461,0.001078,0.234306,0.264131,-0.935594
1762624799.790568,-0.131414,0.122053,-0.023156,0.983513,-0.003763,-0.020453,0.016081,-0.003685,0.003371,-0.000634,0.233996,0.264148,-0.935667
1762624799.797603,-0.131478,0.121860,-0.022976,0.983532,-0.006134,-0.012870,0.021802,-0.001388,0.007567,-0.002927,0.233666,0.264225,-0.935727
1762624799.827500,-0.131580,0.121751,-0.022713,0.983538,-0.009878,-0.006459,0.023947,-0.002425,0.003588,-0.003676,0.233516,0.264358,-0.935727
1762624799.859156,-0.131615,0.121680,-0.022387,0.983550,-0.003272,-0.015926,0.031173,-0.004766,0.000495,0.000149,0.233463,0.264349,-0.935743
1762624799.861488,-0.131580,0.121630,-0.022044,0.983569,0.008108,-0.003183,0.035076,-0.003179,0.000219,-0.002597,0.233462,0.264197,-0.935786
1762624799.893487,-0.131445,0.121638,-0.021661,0.983594,0.012593,0.003566,0.044926,-0.002439,0.001545,-0.002072,0.233590,0.263847,-0.935853
1762624799.894341,-0.131265,0.121686,-0.021174,0.983623,0.017443,-0.004420,0.050039,-0.003823,0.002004,-0.000717,0.233827,0.263385,-0.935924
1762624799.916618,-0.131055,0.121640,-0.020675,0.983667,0.014316,-0.007387,0.052881,-0.002009,0.001900,-0.001374,0.233887,0.262859,-0.936057
1762624799.946130,-0.130871,0.121608,-0.020147,0.983706,0.008297,-0.006637,0.052916,-0.001885,0.001012,-0.000642,0.233979,0.262378,-0.936168
1762624799.975712,-0.130759,0.121566,-0.019660,0.983736,0.003918,-0.006559,0.041928,-0.000675,-0.001160,-0.002553,0.234036,0.262045,-0.936248
1762624799.976024,-0.130718,0.121486,-0.019289,0.983759,-0.001812,-0.013130,0.034303,-0.000142,-0.000881,-0.002202,0.233983,0.261877,-0.936308
1762624800.005763,-0.130721,0.121419,-0.018983,0.983773,-0.002980,-0.008282,0.024905,-0.000584,-0.002613,-0.002096,0.233934,0.261809,-0.936339
1762624800.050809,-0.130716,0.121325,-0.018754,0.983790,-0.003379,-0.008534,0.022079,0.000164,-0.001410,-0.001451,0.233813,0.261744,-0.936387
1762624800.051129,-0.130711,0.121231,-0.018526,0.983806,-0.003778,-0.008787,0.019252,0.000912,-0.000207,-0.000806,0.233693,0.261680,-0.936435
1762624800.052503,-0.130702,0.121167,-0.018305,0.983819,-0.002996,-0.007128,0.016491,0.001858,0.000426,-0.000024,0.233627,0.261611,-0.936471
1762624800.081092,-0.130671,0.121118,-0.018129,0.983833,-0.004041,-0.006199,0.015439,0.000636,0.000610,0.000471,0.233582,0.261508,-0.936511
1762624800.111788,-0.130662,0.121040,-0.017935,0.983847,-0.003628,-0.012296,0.015553,-0.000599,0.000444,0.000988,0.233482,0.261445,-0.936554
1762624800.113895,-0.130668,0.120925,-0.017748,0.983864,-0.001147,-0.011829,0.014850,0.000277,0.001006,-0.000666,0.233309,0.261411,-0.936606
1762624800.143087,-0.130624,0.120827,-0.017526,0.983886,0.005611,-0.012679,0.020550,0.000149,-0.000238,-0.001640,0.233181,0.261274,-0.936677
1762624800.173087,-0.130514,0.120743,-0.017296,0.983915,0.011591,-0.009113,0.023644,0.000127,-0.003697,-0.003749,0.233086,0.261005,-0.936775
1762624800.175148,-0.130331,0.120672,-0.017066,0.983952,0.016694,-0.008148,0.022094,-0.000057,-0.002590,-0.003509,0.233023,0.260598,-0.936904
1762624800.213139,-0.130157,0.120603,-0.016877,0.983986,0.015395,-0.010034,0.016350,-0.002047,-0.000588,-0.001832,0.232951,0.260217,-0.937028
1762624800.215107,-0.130010,0.120510,-0.016697,0.984020,0.009104,-0.013798,0.016928,-0.000358,0.000273,-0.001012,0.232827,0.259890,-0.937149
1762624800.243421,-0.129908,0.120455,-0.016493,0.984044,0.002632,-0.007087,0.015990,-0.000346,-0.001399,-0.001752,0.232781,0.259644,-0.937229
1762624800.274228,-0.129850,0.120409,-0.016322,0.984060,0.004161,-0.005247,0.013239,-0.001008,-0.005306,-0.000392,0.232741,0.259491,-0.937281
1762624800.275530,-0.129754,0.120340,-0.016245,0.984082,0.009516,-0.003219,0.004098,0.000538,-0.004903,-0.002827,0.232633,0.259288,-0.937364
1762624800.304583,-0.129674,0.120330,-0.016227,0.984095,0.006780,-0.001229,0.002803,-0.000589,-0.001651,-0.001396,0.232623,0.259128,-0.937411
1762624800.353410,-0.129632,0.120176,-0.016215,0.984119,0.001224,-0.010810,0.002889,-0.000519,0.000630,-0.001797,0.232332,0.259044,-0.937506
1762624800.353482,-0.129590,0.120023,-0.016204,0.984143,-0.004332,-0.020391,0.002974,-0.000449,0.002911,-0.002199,0.232040,0.258960,-0.937602
1762624800.353540,-0.129623,0.119874,-0.016080,0.984159,-0.013644,-0.008858,0.014284,0.004015,0.005761,-0.006303,0.231781,0.258994,-0.937656
1762624800.381536,-0.129769,0.119933,-0.015848,0.984137,-0.018462,0.008822,0.023450,0.002423,0.003781,-0.005187,0.231947,0.259223,-0.937552
1762624800.416454,-0.129934,0.120054,-0.015531,0.984105,-0.019691,0.006189,0.037561,-0.002343,0.004147,0.000016,0.232255,0.259467,-0.937408
1762624800.416482,-0.130045,0.120068,-0.015158,0.984095,-0.007263,-0.015792,0.032153,-0.003065,-0.000202,0.002763,0.232374,0.259594,-0.937344
1762624800.448675,-0.130044,0.119914,-0.014835,0.984119,0.003486,-0.020987,0.024617,0.000477,0.000582,-0.001143,0.232160,0.259515,-0.937419
1762624800.448856,-0.129990,0.119815,-0.014604,0.984141,0.002134,-0.010268,0.017232,0.001119,0.000893,-0.000188,0.232033,0.259357,-0.937494
1762624800.477426,-0.129953,0.119729,-0.014440,0.984159,0.007215,-0.008149,0.008927,-0.001330,-0.001369,0.001841,0.231911,0.259247,-0.937554
1762624800.508133,-0.129845,0.119533,-0.014390,0.984198,0.015541,-0.021732,0.001281,-0.003132,0.000034,-0.000481,0.231551,0.259027,-0.937704
1762624800.509458,-0.129694,0.119299,-0.014299,0.984247,0.013270,-0.018440,0.011706,-0.001170,0.003904,-0.003998,0.231131,0.258713,-0.937895
1762624800.539491,-0.129575,0.119206,-0.014132,0.984277,0.010868,-0.015905,0.019252,-0.001858,0.002608,-0.002388,0.231002,0.258444,-0.938000
1762624800.568967,-0.129488,0.119143,-0.013901,0.984299,0.005144,-0.011382,0.022308,-0.003336,-0.001625,-0.001977,0.230944,0.258222,-0.938076
1762624800.570882,-0.129365,0.119049,-0.013711,0.984329,0.009547,-0.001311,0.015203,0.000746,-0.005823,-0.006770,0.230819,0.257939,-0.938184
1762624800.603900,-0.129283,0.119043,-0.013594,0.984342,0.005296,0.006298,0.009195,-0.000007,-0.004666,-0.006809,0.230843,0.257753,-0.938230
1762624800.652783,-0.129295,0.119113,-0.013605,0.984332,0.001528,0.002237,0.000902,-0.001504,-0.003103,-0.003802,0.230976,0.257779,-0.938190
1762624800.652976,-0.129307,0.119184,-0.013616,0.984322,-0.002240,-0.001824,-0.007391,-0.003002,-0.001539,-0.000796,0.231110,0.257806,-0.938150
1762624800.653416,-0.129368,0.119173,-0.013658,0.984315,-0.008483,0.002194,-0.005291,-0.001120,-0.000257,-0.002363,0.231074,0.257932,-0.938124
1762624800.682047,-0.129424,0.119200,-0.013684,0.984304,-0.008898,0.006105,-0.005789,0.000110,-0.000736,-0.004177,0.231116,0.258047,-0.938082
1762624800.711146,-0.129462,0.119234,-0.013720,0.984294,-0.002416,0.004873,-0.002680,-0.000317,-0.002261,-0.003085,0.231170,0.258128,-0.938046
1762624800.713085,-0.129477,0.119266,-0.013774,0.984287,-0.001544,0.007015,-0.002148,-0.000941,-0.001362,-0.001902,0.231218,0.258170,-0.938023
1762624800.770447,-0.129520,0.119352,-0.013810,0.984271,-0.005652,0.008094,-0.002159,-0.000395,-0.000505,-0.001374,0.231372,0.258262,-0.937959
1762624800.770708,-0.129564,0.119438,-0.013846,0.984254,-0.009761,0.009174,-0.002169,0.000151,0.000351,-0.000847,0.231527,0.258355,-0.937896
1762624800.772383,-0.129640,0.119516,-0.013900,0.984234,-0.011822,0.009795,-0.004488,0.000282,0.000557,-0.000720,0.231659,0.258515,-0.937819
1762624800.831925,-0.129694,0.119567,-0.013942,0.984220,-0.006412,0.006084,-0.003131,0.000904,-0.000249,-0.000569,0.231744,0.258630,-0.937766
1762624800.832299,-0.129749,0.119618,-0.013983,0.984206,-0.001002,0.002373,-0.001775,0.001526,-0.001054,-0.000417,0.231828,0.258745,-0.937714
1762624800.832866,-0.129756,0.119640,-0.014024,0.984202,0.001495,-0.000024,-0.002267,0.000968,-0.001008,-0.000502,0.231861,0.258767,-0.937699
1762624800.865539,-0.129709,0.119626,-0.014049,0.984209,0.006862,-0.005543,-0.002477,-0.000027,-0.000710,0.000409,0.231829,0.258682,-0.937731
1762624800.872267,-0.129603,0.119529,-0.014053,0.984235,0.010276,-0.007546,0.002169,0.001673,-0.003531,-0.002182,0.231646,0.258479,-0.937832
1762624800.901606,-0.129475,0.119442,-0.014039,0.984262,0.015806,-0.008460,0.002897,-0.000402,-0.004479,-0.003137,0.231490,0.258229,-0.937939
1762624800.950409,-0.129356,0.119354,-0.013994,0.984289,0.009774,-0.008880,0.004421,-0.000958,-0.005777,-0.003857,0.231338,0.257988,-0.938043
1762624800.950770,-0.129237,0.119266,-0.013949,0.984316,0.003742,-0.009301,0.005944,-0.001513,-0.007075,-0.004577,0.231186,0.257747,-0.938147
1762624800.951551,-0.129219,0.119181,-0.013874,0.984330,-0.004139,-0.008351,0.008502,-0.000980,-0.010423,-0.005029,0.231041,0.257695,-0.938197
1762624800.983724,-0.129298,0.119108,-0.013730,0.984331,-0.015980,-0.008191,0.010800,0.000080,-0.016031,-0.005836,0.230932,0.257814,-0.938191
1762624801.014455,-0.129472,0.119085,-0.013585,0.984313,-0.025800,-0.001168,0.009840,0.001049,-0.023786,-0.003925,0.230917,0.258117,-0.938111
1762624801.014718,-0.129698,0.119091,-0.013439,0.984284,-0.027346,-0.003280,0.008801,0.000379,-0.032614,-0.002740,0.230952,0.258520,-0.937992
1762624801.042349,-0.129893,0.119052,-0.013323,0.984265,-0.028070,0.000993,0.010491,0.000778,-0.035828,-0.003442,0.230896,0.258871,-0.937909
1762624801.082813,-0.129881,0.119069,-0.012849,0.984271,-0.013567,-0.009845,0.038250,-0.001924,-0.043987,-0.002630,0.231054,0.258735,-0.937907
1762624801.082891,-0.129868,0.119086,-0.012374,0.984276,0.000936,-0.020684,0.066010,-0.004626,-0.052146,-0.001819,0.231213,0.258599,-0.937906
1762624801.112725,-0.129515,0.119001,-0.011606,0.984342,0.015487,-0.021010,0.085681,-0.006100,-0.047161,-0.002680,0.231268,0.257736,-0.938130
1762624801.113458,-0.129054,0.118787,-0.010324,0.984443,0.000076,-0.027799,0.155289,0.002780,-0.038738,-0.012974,0.231214,0.256546,-0.938469
1762624801.144592,-0.128748,0.118814,-0.008496,0.984497,-0.030625,-0.018847,0.194876,-0.000425,-0.041182,-0.013388,0.231757,0.255524,-0.938614
1762624801.151346,-0.128672,0.118848,-0.006331,0.984519,-0.069097,-0.028467,0.213018,-0.002995,-0.039281,-0.012203,0.232387,0.254865,-0.938637
1762624801.181405,-0.129029,0.118671,-0.004009,0.984506,-0.112619,-0.053525,0.214518,-0.004577,-0.038548,-0.009900,0.232630,0.255011,-0.938537
1762624801.200078,-0.129916,0.118324,-0.001678,0.984438,-0.170644,-0.065407,0.205308,-0.001742,-0.034170,-0.009740,0.232529,0.256186,-0.938243
1762624801.252536,-0.131740,0.117923,0.000726,0.984245,-0.230422,-0.067070,0.199874,-0.000181,-0.037054,-0.007164,0.232322,0.259158,-0.937477
1762624801.252932,-0.133563,0.117522,0.003131,0.984043,-0.290201,-0.068734,0.194441,0.001366,-0.039935,-0.004601,0.232129,0.262128,-0.936699
1762624801.253336,-0.135999,0.117010,0.005524,0.983759,-0.316804,-0.084068,0.183856,-0.000537,-0.042116,-0.004369,0.231722,0.266287,-0.935626
1762624801.283492,-0.138715,0.116351,0.007892,0.983442,-0.342344,-0.094339,0.188207,0.001196,-0.034911,-0.006664,0.231039,0.270999,-0.934441
1762624801.289499,-0.141652,0.115627,0.010401,0.983085,-0.367774,-0.107202,0.198962,0.000659,-0.030316,-0.005668,0.230289,0.276106,-0.933130
1762624801.319445,-0.144804,0.114878,0.013030,0.982682,-0.392221,-0.116086,0.203952,-0.000484,-0.030326,-0.001016,0.229551,0.281600,-0.931669
1762624801.348746,-0.148108,0.114075,0.015776,0.982243,-0.412465,-0.100452,0.210764,0.005432,-0.032364,-0.004883,0.228771,0.287356,-0.930102
1762624801.350679,-0.151522,0.113386,0.018516,0.981754,-0.406130,-0.091372,0.206274,0.003303,-0.034673,-0.000776,0.228246,0.293316,-0.928369
1762624801.379958,-0.154886,0.112787,0.021178,0.981244,-0.386689,-0.088660,0.201302,-0.005308,-0.031135,0.005424,0.227904,0.299184,-0.926579
1762624801.419581,-0.157825,0.112111,0.023671,0.980797,-0.364986,-0.091712,0.194517,-0.004847,-0.028578,0.002941,0.227388,0.304282,-0.925045
1762624801.419852,-0.160762,0.111433,0.026163,0.980333,-0.343283,-0.094764,0.187731,-0.004409,-0.026013,0.000424,0.226895,0.309371,-0.923476
1762624801.448508,-0.163502,0.110819,0.028513,0.979884,-0.331620,-0.083364,0.173220,-0.000671,-0.023152,-0.006558,0.226503,0.314107,-0.921973
1762624801.450591,-0.166269,0.110275,0.030673,0.979415,-0.339278,-0.061196,0.154279,0.000238,-0.020947,-0.006011,0.226209,0.318927,-0.920389
1762624801.479724,-0.169181,0.109833,0.032571,0.978904,-0.350064,-0.049463,0.130532,-0.000139,-0.020413,-0.002492,0.226054,0.324069,-0.918629
1762624801.510370,-0.172224,0.109502,0.034243,0.978353,-0.356944,-0.042149,0.105630,-0.003226,-0.020544,-0.000023,0.226058,0.329493,-0.916696
1762624801.565513,-0.175381,0.109209,0.035399,0.977784,-0.354586,-0.031159,0.081603,-0.002722,-0.021710,0.001646,0.225982,0.335237,-0.914630
1762624801.565851,-0.178535,0.108914,0.036555,0.977203,-0.352228,-0.020168,0.057576,-0.002227,-0.022863,0.003277,0.225916,0.340968,-0.912526
1762624801.566209,-0.181688,0.108619,0.037710,0.976611,-0.349869,-0.009178,0.033549,-0.001743,-0.024002,0.004869,0.225860,0.346684,-0.910383
1762624801.567549,-0.184689,0.108382,0.038372,0.976049,-0.321648,-0.010589,0.016473,-0.003634,-0.017334,0.009227,0.225746,0.352213,-0.908287
1762624801.596644,-0.187417,0.108253,0.038866,0.975523,-0.294129,0.000058,0.013366,-0.003288,-0.010958,0.011499,0.225775,0.357245,-0.906312
1762624801.642163,-0.189875,0.108239,0.039381,0.975029,-0.286257,0.003701,0.024834,-0.006849,-0.006912,0.017100,0.226027,0.361742,-0.904464
1762624801.642460,-0.192332,0.108224,0.039895,0.974528,-0.278385,0.007343,0.036301,-0.010413,-0.002856,0.022679,0.226281,0.366230,-0.902592
1762624801.673431,-0.194826,0.108208,0.040723,0.974000,-0.283025,-0.008965,0.070231,-0.012060,-0.000045,0.034565,0.226657,0.370708,-0.900668
1762624801.673705,-0.197345,0.108148,0.041843,0.973452,-0.272597,-0.017524,0.081936,-0.012057,-0.012231,0.041747,0.227068,0.375161,-0.898718
1762624801.710446,-0.199683,0.107909,0.042978,0.972952,-0.245191,-0.037406,0.074048,-0.011582,-0.012234,0.043353,0.227145,0.379289,-0.896964
1762624801.712640,-0.201904,0.107470,0.044006,0.972496,-0.239697,-0.047003,0.060259,-0.008531,-0.002530,0.034489,0.226798,0.383243,-0.895370
1762624801.750605,-0.204185,0.106954,0.044824,0.972039,-0.244983,-0.055087,0.027493,-0.004927,0.012881,0.020947,0.226231,0.387363,-0.893739
1762624801.752655,-0.206624,0.106372,0.045319,0.971565,-0.274428,-0.040232,-0.000340,0.000745,0.043585,0.007560,0.225423,0.391856,-0.891983
1762624801.780963,-0.209496,0.105930,0.045663,0.970981,-0.327101,-0.018186,-0.008846,0.005459,0.065969,0.002444,0.224844,0.397160,-0.889780
1762624801.811617,-0.212857,0.105669,0.045942,0.970266,-0.359051,0.004507,-0.016018,0.010996,0.065309,0.003329,0.224612,0.403346,-0.887052
1762624801.813034,-0.216275,0.105509,0.045955,0.969526,-0.329509,0.019182,-0.051579,0.014124,0.057397,0.006042,0.224465,0.409672,-0.884186
1762624801.865863,-0.219144,0.105634,0.045354,0.968897,-0.268452,0.034563,-0.074413,0.007887,0.055579,0.024317,0.224574,0.415073,-0.881635
1762624801.866118,-0.222010,0.105757,0.044752,0.968258,-0.207395,0.049944,-0.097246,0.001662,0.053776,0.042562,0.224671,0.420460,-0.879054
1762624801.868324,-0.224101,0.105759,0.043874,0.967816,-0.133754,-0.012815,-0.107571,-0.005243,0.059465,0.054621,0.224374,0.424498,-0.877187
1762624801.898896,-0.225593,0.105016,0.043019,0.967589,-0.129434,-0.050965,-0.111611,0.015287,0.096954,0.002907,0.222635,0.427527,-0.876159
1762624801.927198,-0.227511,0.104734,0.042336,0.967201,-0.200338,0.022796,-0.062266,0.019802,0.112160,-0.010662,0.221862,0.431229,-0.874539
1762624801.929173,-0.229902,0.104738,0.042011,0.966649,-0.226893,0.007357,-0.037251,0.007382,0.097377,0.004126,0.221806,0.435668,-0.872351
1762624801.958673,-0.232357,0.104480,0.041824,0.966098,-0.209830,-0.033499,-0.053278,0.001906,0.080208,0.015885,0.221311,0.440219,-0.870189
1762624801.977425,-0.234676,0.103802,0.041365,0.965630,-0.191301,-0.062948,-0.092560,0.004022,0.079447,0.014358,0.219883,0.444632,-0.868305
1762624802.009301,-0.236985,0.102895,0.040766,0.965189,-0.211251,-0.056074,-0.102995,0.009738,0.100475,-0.004254,0.217947,0.449081,-0.866502
1762624802.011233,-0.239619,0.102270,0.040181,0.964629,-0.263151,-0.013824,-0.072135,0.010944,0.110921,-0.004557,0.216562,0.454069,-0.864247
1762624802.042942,-0.242552,0.102048,0.039898,0.963931,-0.287672,0.023120,-0.045877,0.006632,0.092991,0.006439,0.216089,0.459464,-0.861510
1762624802.044174,-0.245550,0.102083,0.039697,0.963176,-0.280127,0.028632,-0.041951,-0.002302,0.073623,0.022931,0.216144,0.464911,-0.858568
1762624802.102050,-0.248329,0.102071,0.039298,0.962481,-0.258706,0.021903,-0.062214,-0.007925,0.066061,0.026620,0.215999,0.470001,-0.855829
1762624802.102374,-0.251106,0.102057,0.038898,0.961778,-0.237285,0.015174,-0.082477,-0.013541,0.058514,0.030280,0.215847,0.475076,-0.853061
1762624802.109023,-0.253681,0.101883,0.038296,0.961145,-0.224533,0.016280,-0.077535,-0.004093,0.060551,0.022383,0.215278,0.479846,-0.850531
1762624802.150546,-0.256030,0.101791,0.037690,0.960556,-0.198553,0.029457,-0.073947,-0.003679,0.056861,0.005145,0.214851,0.484188,-0.848175
1762624802.152470,-0.258107,0.101928,0.037021,0.960011,-0.160018,0.049231,-0.070285,-0.007272,0.051057,0.008608,0.214816,0.488024,-0.845983
1762624802.197416,-0.259432,0.101838,0.036308,0.959690,-0.108139,0.029064,-0.070786,-0.008217,0.047932,0.007766,0.214305,0.490554,-0.844648
1762624802.197646,-0.260757,0.101748,0.035595,0.959368,-0.056260,0.008897,-0.071287,-0.009158,0.044810,0.006918,0.213790,0.493080,-0.843307
1762624802.227328,-0.261495,0.101621,0.034936,0.959204,-0.026852,0.013752,-0.061206,-0.007168,0.037807,0.004258,0.213221,0.494555,-0.842587
1762624802.227573,-0.261920,0.101535,0.034372,0.959118,0.004963,0.005512,-0.046369,-0.007977,0.024727,0.007814,0.212774,0.495445,-0.842177
1762624802.258277,-0.262001,0.101371,0.033826,0.959132,0.034832,0.010691,-0.047938,-0.004840,0.020058,0.004808,0.212180,0.495730,-0.842159
1762624802.273861,-0.261908,0.101376,0.033310,0.959175,0.044053,0.022239,-0.034355,-0.003544,0.016660,0.003623,0.211924,0.495678,-0.842254
1762624802.312941,-0.261737,0.101491,0.032846,0.959226,0.039494,0.027400,-0.029257,-0.004073,0.015280,0.004831,0.211900,0.495463,-0.842386
1762624802.315068,-0.261600,0.101558,0.032423,0.959270,0.030640,0.015444,-0.025700,-0.003389,0.020466,-0.000534,0.211806,0.495306,-0.842502
1762624802.343956,-0.261608,0.101725,0.032102,0.959262,0.002965,0.034854,-0.012127,0.003915,0.023170,-0.009776,0.211957,0.495369,-0.842427
1762624802.344579,-0.261758,0.102018,0.031850,0.959198,0.000079,0.041894,-0.014582,0.003336,0.010491,-0.006453,0.212384,0.495657,-0.842150
1762624802.375661,-0.261783,0.102321,0.031495,0.959171,0.022440,0.041698,-0.031220,0.003202,0.005723,-0.002097,0.212777,0.495743,-0.842000
1762624802.441975,-0.261309,0.102595,0.030827,0.959292,0.046036,0.042101,-0.042212,0.002933,0.004297,-0.001078,0.212948,0.495017,-0.842384
1762624802.442317,-0.260834,0.102868,0.030159,0.959413,0.069632,0.042504,-0.053203,0.002662,0.002871,-0.000061,0.213119,0.494291,-0.842767
1762624802.442604,-0.260360,0.103142,0.029491,0.959534,0.093228,0.042907,-0.064194,0.002391,0.001445,0.000955,0.213292,0.493565,-0.843149
1762624802.460050,-0.259578,0.103471,0.028581,0.959738,0.096990,0.044794,-0.077767,0.001685,-0.003297,0.001796,0.213447,0.492339,-0.843826
1762624802.488990,-0.258707,0.103741,0.027518,0.959975,0.111167,0.050059,-0.091244,-0.000142,-0.009203,0.001158,0.213416,0.490994,-0.844617
1762624802.490246,-0.257712,0.104027,0.026321,0.960245,0.128820,0.051579,-0.106765,0.000081,-0.015141,0.000109,0.213349,0.489456,-0.845526
1762624802.533266,-0.256536,0.104219,0.024959,0.960575,0.143514,0.041227,-0.115420,-0.005405,-0.014902,0.003305,0.213026,0.487642,-0.846656
1762624802.535079,-0.255370,0.104421,0.023572,0.960899,0.130034,0.048430,-0.115408,-0.003949,-0.010447,0.002726,0.212715,0.485846,-0.847765
1762624802.563530,-0.254328,0.104529,0.022354,0.961193,0.107666,0.034513,-0.097514,-0.003692,-0.008995,0.004052,0.212315,0.484244,-0.848782
1762624802.565434,-0.253419,0.104647,0.021211,0.961446,0.092137,0.024959,-0.099022,-0.005003,-0.004944,0.001611,0.211974,0.482858,-0.849656
1762624802.608211,-0.252728,0.104641,0.020166,0.961651,0.061356,0.027782,-0.083170,-0.001946,0.000571,-0.005823,0.211449,0.481851,-0.850358
1762624802.609377,-0.252311,0.104725,0.019359,0.961768,0.038182,0.019531,-0.062497,-0.005452,0.001819,-0.000982,0.211211,0.481274,-0.850744
1762624802.643200,-0.252065,0.104662,0.018770,0.961851,0.017194,0.003212,-0.045214,-0.005395,0.006859,0.002303,0.210800,0.480969,-0.851018
1762624802.645215,-0.252043,0.104585,0.018484,0.961870,-0.004805,0.000191,-0.007875,-0.001994,0.002860,-0.001135,0.210511,0.480999,-0.851073
1762624802.704148,-0.252040,0.104658,0.018441,0.961864,0.001088,0.022929,0.001821,0.007808,-0.001134,-0.011335,0.210629,0.480997,-0.851045
1762624802.706273,-0.252027,0.105002,0.018278,0.961833,0.001563,0.024968,-0.003121,0.000908,0.001890,-0.004826,0.211202,0.480977,-0.850914
1762624802.753170,-0.252027,0.105232,0.018088,0.961811,0.003294,0.017468,-0.012638,-0.001601,0.003814,-0.000061,0.211544,0.480999,-0.850817
1762624802.754369,-0.251985,0.105312,0.017871,0.961818,0.007643,0.008174,-0.017987,-0.000244,0.003906,0.000656,0.211588,0.480963,-0.850826
1762624802.783554,-0.251871,0.105365,0.017609,0.961846,0.014805,0.009930,-0.025130,0.000721,0.002760,0.000063,0.211561,0.480812,-0.850918
1762624802.785506,-0.251688,0.105394,0.017269,0.961897,0.026488,0.008833,-0.030866,-0.000056,0.004072,0.001594,0.211450,0.480557,-0.851090
1762624802.818008,-0.251463,0.105403,0.016899,0.961962,0.028569,0.008791,-0.029376,-0.000608,0.006251,0.000137,0.211286,0.480233,-0.851313
1762624802.848143,-0.251262,0.105412,0.016581,0.962019,0.023272,0.009401,-0.021159,-0.001575,0.009034,0.000636,0.211150,0.479942,-0.851511
1762624802.849394,-0.251074,0.105438,0.016366,0.962069,0.020903,0.002983,-0.013172,-0.002766,0.008807,0.001916,0.211095,0.479650,-0.851689
1762624802.871196,-0.250896,0.105397,0.016244,0.962122,0.025721,-0.005885,-0.005890,-0.002042,0.006416,-0.000326,0.210961,0.479361,-0.851885
1762624802.909168,-0.250691,0.105393,0.016165,0.962177,0.026386,0.007304,-0.001302,0.000483,0.003777,-0.004579,0.210918,0.479011,-0.852093
1762624802.911191,-0.250516,0.105519,0.016082,0.962210,0.024096,0.017646,-0.001056,-0.000993,0.002638,-0.002834,0.211119,0.478704,-0.852215
1762624802.940044,-0.250365,0.105679,0.016007,0.962233,0.021386,0.012142,0.000064,-0.005483,0.002585,0.002409,0.211392,0.478436,-0.852299
1762624802.943929,-0.250190,0.105754,0.015952,0.962272,0.023594,0.003800,0.000012,-0.003668,0.001964,0.002065,0.211510,0.478128,-0.852442
1762624802.975502,-0.249973,0.105819,0.015925,0.962321,0.024382,0.005755,0.001068,-0.002728,0.001272,0.000851,0.211625,0.477739,-0.852632
1762624803.007952,-0.249737,0.105867,0.015884,0.962378,0.024809,0.003718,0.001742,-0.002571,0.001408,-0.000172,0.211701,0.477319,-0.852847
1762624803.008250,-0.249532,0.105885,0.015856,0.962430,0.021327,0.002458,0.004386,-0.003979,0.003090,-0.001339,0.211727,0.476957,-0.853044
1762624803.055568,-0.249374,0.105910,0.015871,0.962467,0.016264,0.002215,0.007297,-0.002594,0.004716,-0.003068,0.211786,0.476667,-0.853191
1762624803.055887,-0.249250,0.105938,0.015918,0.962496,0.011208,0.004457,0.009639,-0.001673,0.004678,-0.003831,0.211866,0.476432,-0.853303
1762624803.086863,-0.249150,0.105989,0.015999,0.962515,0.008590,0.007851,0.009919,-0.000038,0.003513,-0.003963,0.212003,0.476229,-0.853382
1762624803.088168,-0.249081,0.106084,0.016044,0.962521,0.008361,0.008403,0.008104,-0.000619,0.003402,-0.001373,0.212208,0.476087,-0.853410
1762624803.118065,-0.249007,0.106192,0.016073,0.962528,0.008683,0.008530,0.004405,-0.000595,0.002870,0.000315,0.212431,0.475939,-0.853438
1762624803.147219,-0.248901,0.106249,0.016078,0.962549,0.014778,0.003596,0.002328,-0.000614,0.003378,-0.000360,0.212543,0.475743,-0.853519
1762624803.149245,-0.248731,0.106292,0.016061,0.962589,0.021909,0.002838,-0.001016,-0.000118,0.002698,0.000889,0.212621,0.475436,-0.853670
1762624803.179218,-0.248502,0.106299,0.016016,0.962648,0.028079,0.000806,-0.002852,-0.000187,0.002852,0.001056,0.212618,0.475034,-0.853895
1762624803.217147,-0.248225,0.106273,0.015967,0.962723,0.028744,-0.000906,-0.002141,-0.000600,0.002532,0.000589,0.212549,0.474550,-0.854181
1762624803.217453,-0.247948,0.106246,0.015918,0.962798,0.029409,-0.002618,-0.001431,-0.001012,0.002214,0.000121,0.212481,0.474066,-0.854467
1762624803.246046,-0.247660,0.106211,0.015868,0.962877,0.031637,-0.004076,-0.000765,-0.001042,0.002385,-0.000459,0.212396,0.473562,-0.854767
1762624803.247102,-0.247395,0.106163,0.015857,0.962951,0.027246,-0.004477,0.000164,-0.000587,0.001551,-0.002082,0.212306,0.473091,-0.855050
1762624803.277159,-0.247189,0.106136,0.015854,0.963006,0.020639,-0.004691,0.001383,-0.001097,0.000248,-0.000360,0.212256,0.472724,-0.855266
1762624803.349515,-0.247022,0.106117,0.015860,0.963051,0.020907,-0.006462,0.000236,-0.001050,0.000263,-0.000307,0.212229,0.472423,-0.855439
1762624803.349831,-0.246854,0.106099,0.015866,0.963096,0.021174,-0.008233,-0.000910,-0.001004,0.000277,-0.000255,0.212201,0.472122,-0.855612
1762624803.350150,-0.246686,0.106081,0.015873,0.963141,0.021442,-0.010004,-0.002056,-0.000957,0.000292,-0.000203,0.212173,0.471820,-0.855785
1762624803.350492,-0.246547,0.106034,0.015848,0.963182,0.012824,-0.000251,-0.001520,0.000681,0.002067,-0.002969,0.212074,0.471578,-0.855943
1762624803.386822,-0.246447,0.106041,0.015805,0.963208,0.011707,-0.004309,-0.003334,-0.004125,0.001300,0.002703,0.212070,0.471407,-0.856039
1762624803.387907,-0.246328,0.105886,0.015764,0.963256,0.012461,-0.022829,-0.005386,-0.004121,0.002878,0.002306,0.211757,0.471216,-0.856221
1762624803.422884,-0.246229,0.105657,0.015795,0.963306,0.009197,-0.021111,0.002947,0.000191,0.003351,-0.004250,0.211338,0.471050,-0.856416
1762624803.424956,-0.246147,0.105608,0.015887,0.963331,0.005843,0.002713,0.010642,0.003092,0.000964,-0.007815,0.211292,0.470887,-0.856517
1762624803.453486,-0.246088,0.105740,0.015943,0.963330,0.005420,0.016623,0.012812,-0.001298,0.001756,-0.004518,0.211571,0.470757,-0.856520
1762624803.484239,-0.246059,0.105896,0.016005,0.963320,0.004157,0.007997,0.009951,-0.005609,0.002098,0.000410,0.211900,0.470677,-0.856482
1762624803.486348,-0.246023,0.105891,0.016059,0.963329,0.004466,-0.006433,0.002551,-0.003470,0.002040,0.000754,0.211917,0.470601,-0.856520
1762624803.514745,-0.245997,0.105836,0.016067,0.963341,0.000124,-0.002342,0.000855,-0.001007,0.003473,-0.001551,0.211818,0.470557,-0.856569
1762624803.545336,-0.245984,0.105811,0.016070,0.963347,0.002484,-0.000339,0.000732,-0.001447,0.001940,-0.000887,0.211772,0.470536,-0.856591
1762624803.547449,-0.245930,0.105760,0.016054,0.963367,0.012044,-0.004571,-0.000019,-0.002723,0.000022,0.000068,0.211668,0.470446,-0.856666
1762624803.577052,-0.245801,0.105692,0.016051,0.963407,0.013434,-0.004740,0.001329,-0.002734,0.000502,-0.000220,0.211538,0.470219,-0.856823
1762624803.606095,-0.245676,0.105646,0.016081,0.963444,0.013584,-0.001523,0.004725,-0.001755,0.000396,-0.000185,0.211469,0.469993,-0.856964
1762624803.608122,-0.245556,0.105597,0.016098,0.963479,0.014497,-0.002665,0.002786,-0.002533,-0.000810,-0.001809,0.211388,0.469777,-0.857103
1762624803.650847,-0.245397,0.105517,0.016079,0.963529,0.020230,-0.008892,-0.000786,-0.001350,-0.001489,-0.001938,0.211229,0.469501,-0.857293
1762624803.656231,-0.245240,0.105471,0.016020,0.963575,0.013689,0.004690,-0.002393,0.001955,-0.000355,-0.005429,0.211117,0.469234,-0.857467
1762624803.686722,-0.245138,0.105542,0.015957,0.963594,0.009113,0.010667,-0.001085,-0.000416,0.000670,-0.003109,0.211224,0.469058,-0.857537
1762624803.687014,-0.245053,0.105658,0.015904,0.963604,0.012125,0.007756,-0.001696,-0.002929,0.000032,0.000829,0.211420,0.468907,-0.857571
1762624803.715121,-0.244891,0.105675,0.015851,0.963644,0.019910,-0.001258,-0.001370,-0.001834,0.000180,0.000294,0.211430,0.468626,-0.857722
1762624803.724783,-0.244658,0.105690,0.015798,0.963703,0.022136,-0.000172,-0.003209,-0.001655,0.000753,-0.000407,0.211437,0.468215,-0.857945
1762624803.753449,-0.244431,0.105691,0.015743,0.963761,0.023215,-0.001291,-0.000904,-0.002946,0.002266,-0.000236,0.211418,0.467818,-0.858166
1762624803.789215,-0.244230,0.105655,0.015712,0.963816,0.020236,-0.002229,-0.000368,-0.003044,0.001998,-0.001562,0.211339,0.467467,-0.858377
1762624803.789446,-0.244057,0.105633,0.015698,0.963863,0.016716,-0.003531,0.004174,-0.002350,0.002424,-0.002080,0.211294,0.467158,-0.858556
1762624803.817838,-0.243909,0.105618,0.015704,0.963902,0.012528,-0.000067,0.002575,-0.002274,0.001901,-0.002316,0.211271,0.466891,-0.858707
1762624803.825194,-0.243799,0.105592,0.015708,0.963932,0.008667,-0.001035,0.001675,-0.000695,0.003144,-0.001876,0.211227,0.466694,-0.858825
1762624803.867116,-0.243731,0.105603,0.015709,0.963949,0.004512,0.001729,0.001507,-0.000398,0.002645,-0.001304,0.211249,0.466570,-0.858887
1762624803.868451,-0.243695,0.105617,0.015688,0.963956,0.005109,0.002156,-0.001227,-0.000619,0.001737,-0.000297,0.211266,0.466510,-0.858915
1762624803.899208,-0.243638,0.105592,0.015649,0.963974,0.009284,0.000243,-0.002525,-0.001223,0.001496,0.000071,0.211200,0.466417,-0.858982
1762624803.901178,-0.243531,0.105562,0.015602,0.964005,0.012171,-0.000954,-0.002937,-0.001517,0.003002,0.000153,0.211123,0.466236,-0.859099
1762624803.951806,-0.243365,0.105534,0.015591,0.964050,0.015167,-0.002026,0.000304,-0.001969,0.003302,-0.000122,0.211068,0.465941,-0.859272
1762624803.952087,-0.243199,0.105506,0.015580,0.964096,0.018162,-0.003097,0.003545,-0.002420,0.003600,-0.000397,0.211013,0.465647,-0.859446
1762624803.984710,-0.243007,0.105450,0.015621,0.964149,0.020454,-0.006321,0.007605,-0.003309,0.003559,-0.000229,0.210932,0.465295,-0.859656
1762624803.984962,-0.242832,0.105415,0.015705,0.964196,0.016286,-0.005220,0.010825,-0.002784,0.003640,-0.001962,0.210908,0.464964,-0.859841
1762624804.015653,-0.242696,0.105365,0.015820,0.964233,0.015025,-0.004114,0.009981,-0.002465,0.002431,-0.002268,0.210872,0.464698,-0.859993
1762624804.044850,-0.242577,0.105351,0.015924,0.964264,0.012552,-0.002174,0.010020,-0.001420,0.001592,-0.001469,0.210898,0.464461,-0.860115
1762624804.046944,-0.242466,0.105339,0.015993,0.964292,0.012540,0.000768,0.007755,-0.000509,0.000664,-0.001410,0.210910,0.464246,-0.860228
1762624804.109498,-0.242350,0.105381,0.016004,0.964316,0.014550,-0.001678,0.002057,-0.000675,-0.000244,-0.000170,0.210998,0.464030,-0.860323
1762624804.109735,-0.242233,0.105423,0.016015,0.964340,0.016560,-0.004123,-0.003642,-0.000840,-0.001152,0.001071,0.211086,0.463814,-0.860418
1762624804.111337,-0.242114,0.105409,0.015969,0.964373,0.011491,0.001693,-0.005836,0.000230,0.000116,-0.001827,0.211039,0.463609,-0.860540
1762624804.139932,-0.242031,0.105412,0.015905,0.964394,0.007191,-0.000799,-0.004504,-0.003071,0.000288,0.001064,0.211016,0.463473,-0.860619
1762624804.141740,-0.241942,0.105298,0.015884,0.964429,0.006118,-0.023500,-0.002718,-0.005851,0.002451,0.000444,0.210792,0.463326,-0.860753
1762624804.176040,-0.241890,0.105105,0.015969,0.964462,0.000150,-0.011873,0.010362,0.002805,0.003404,-0.009371,0.210466,0.463231,-0.860884
1762624804.207009,-0.241896,0.105199,0.016094,0.964448,-0.004089,0.020097,0.016055,0.004989,0.000230,-0.011342,0.210705,0.463207,-0.860838
1762624804.211462,-0.241956,0.105521,0.016176,0.964397,-0.004964,0.035338,0.015444,-0.000460,-0.000264,-0.004110,0.211356,0.463269,-0.860645
1762624804.251986,-0.241930,0.105610,0.016164,0.964394,-0.001572,0.016195,0.005841,-0.000854,0.001339,-0.003035,0.211520,0.463217,-0.860633
1762624804.252248,-0.241904,0.105699,0.016152,0.964391,0.001820,-0.002947,-0.003761,-0.001248,0.002941,-0.001960,0.211684,0.463166,-0.860620
1762624804.280964,-0.241886,0.105714,0.016127,0.964394,-0.001975,0.000483,-0.002926,0.000687,0.003350,-0.003947,0.211702,0.463137,-0.860632
1762624804.282150,-0.241879,0.105707,0.016084,0.964397,0.000934,0.001277,-0.002633,-0.001271,0.001961,-0.001961,0.211668,0.463135,-0.860641
1762624804.313081,-0.241832,0.105685,0.016067,0.964412,0.005889,0.000377,0.001323,-0.003190,0.000473,-0.000028,0.211619,0.463055,-0.860696
1762624804.342487,-0.241741,0.105628,0.016096,0.964440,0.009722,-0.007254,0.006849,-0.002934,0.000726,-0.000279,0.211525,0.462888,-0.860809
1762624804.344203,-0.241657,0.105555,0.016166,0.964468,0.006285,-0.000474,0.009539,-0.000770,0.000153,-0.003248,0.211423,0.462728,-0.860920
1762624804.373349,-0.241585,0.105574,0.016249,0.964483,0.004619,0.003330,0.006591,-0.000655,-0.001915,-0.003343,0.211500,0.462579,-0.860981
1762624804.421798,-0.241520,0.105603,0.016187,0.964497,0.005667,0.010259,-0.000412,0.000338,-0.003062,-0.003447,0.211527,0.462472,-0.861032
1762624804.422181,-0.241455,0.105633,0.016124,0.964511,0.006716,0.017187,-0.007416,0.001332,-0.004209,-0.003552,0.211554,0.462366,-0.861082
1762624804.422884,-0.241416,0.105749,0.016003,0.964510,0.001681,0.018586,-0.009532,0.000562,-0.001777,-0.001499,0.211719,0.462311,-0.861071
1762624804.452998,-0.241426,0.105856,0.015860,0.964498,-0.001610,0.009448,-0.008500,-0.003004,-0.002198,0.001373,0.211854,0.462351,-0.861016
1762624804.482069,-0.241410,0.105864,0.015735,0.964503,-0.001273,0.002487,-0.010079,-0.001792,-0.000746,0.000486,0.211809,0.462351,-0.861028
1762624804.487150,-0.241415,0.105863,0.015638,0.964504,-0.003346,0.002828,-0.005556,-0.000785,0.000547,-0.001470,0.211762,0.462379,-0.861024
1762624804.553083,-0.241475,0.105860,0.015619,0.964489,-0.005082,0.002554,-0.004112,-0.000763,0.000463,-0.001483,0.211744,0.462494,-0.860967
1762624804.553408,-0.241536,0.105856,0.015600,0.964475,-0.006819,0.002280,-0.002667,-0.000742,0.000380,-0.001496,0.211727,0.462609,-0.860909
1762624804.553689,-0.241597,0.105853,0.015580,0.964460,-0.008555,0.002006,-0.001223,-0.000720,0.000297,-0.001510,0.211710,0.462723,-0.860852
1762624804.566260,-0.241658,0.105814,0.015552,0.964450,-0.004373,0.001110,-0.002285,0.000013,0.000447,-0.001823,0.211621,0.462842,-0.860810
1762624804.602558,-0.241687,0.105818,0.015505,0.964443,-0.002438,0.004088,-0.004504,0.000763,0.001641,-0.002351,0.211605,0.462906,-0.860780
1762624804.603256,-0.241719,0.105825,0.015429,0.964435,-0.000695,0.004154,-0.006043,-0.000313,0.002170,-0.001552,0.211581,0.462980,-0.860746
1762624804.661806,-0.241728,0.105806,0.015332,0.964436,-0.001015,0.000108,-0.005322,-0.000635,0.002052,-0.001597,0.211499,0.463018,-0.860745
1762624804.662114,-0.241736,0.105788,0.015235,0.964438,-0.001335,-0.003938,-0.004601,-0.000958,0.001935,-0.001642,0.211418,0.463056,-0.860745
1762624804.663793,-0.241752,0.105733,0.015175,0.964441,0.002109,-0.002494,-0.004737,-0.001023,0.002293,-0.001257,0.211284,0.463102,-0.860753
1762624804.713186,-0.241727,0.105649,0.015156,0.964457,0.002715,-0.004198,-0.002629,-0.001621,0.002037,-0.000709,0.211116,0.463068,-0.860812
1762624804.713445,-0.241703,0.105565,0.015138,0.964472,0.003322,-0.005902,-0.000521,-0.002219,0.001781,-0.000161,0.210947,0.463035,-0.860872
1762624804.755798,-0.241692,0.105483,0.015172,0.964483,0.001957,-0.005832,0.000804,-0.001817,0.000716,-0.000668,0.210807,0.463016,-0.860916
1762624804.756114,-0.241682,0.105400,0.015207,0.964494,0.000591,-0.005762,0.002129,-0.001416,-0.000348,-0.001176,0.210667,0.462997,-0.860961
1762624804.762513,-0.241705,0.105319,0.015212,0.964497,-0.000987,-0.002785,-0.000139,-0.001798,-0.000598,-0.001474,0.210514,0.463043,-0.860973
1762624804.790708,-0.241748,0.105262,0.015226,0.964493,-0.002990,-0.002861,-0.002874,-0.001623,0.000495,-0.001186,0.210411,0.463123,-0.860956
1762624804.852619,-0.241779,0.105248,0.015197,0.964487,-0.001866,0.001790,-0.002999,-0.001211,0.000172,-0.001049,0.210370,0.463185,-0.860932
1762624804.852945,-0.241809,0.105234,0.015168,0.964481,-0.000741,0.006442,-0.003124,-0.000800,-0.000151,-0.000911,0.210328,0.463248,-0.860908
1762624804.853182,-0.241840,0.105220,0.015140,0.964476,0.000384,0.011093,-0.003249,-0.000388,-0.000474,-0.000774,0.210287,0.463311,-0.860885
1762624804.871279,-0.241846,0.105268,0.015079,0.964470,0.002410,0.006316,-0.003563,-0.002436,-0.000304,0.001858,0.210350,0.463331,-0.860859
1762624804.900178,-0.241804,0.105239,0.014989,0.964485,0.007018,0.003134,-0.006401,0.000188,0.002114,-0.001707,0.210252,0.463278,-0.860911
1762624804.900428,-0.241755,0.105237,0.014907,0.964498,0.006438,0.004412,-0.002994,-0.001379,0.001767,-0.001371,0.210210,0.463207,-0.860959
1762624804.933422,-0.241651,0.105206,0.014865,0.964529,0.010508,-0.014037,-0.005079,-0.005871,0.003351,0.002716,0.210132,0.463031,-0.861073
1762624804.962483,-0.241567,0.104992,0.014895,0.964573,0.008684,-0.018501,0.005228,0.000193,0.005327,-0.005905,0.209740,0.462889,-0.861245
1762624804.980446,-0.241545,0.104984,0.015018,0.964577,0.000203,0.012211,0.014967,0.004816,0.001860,-0.012163,0.209785,0.462825,-0.861269
1762624804.980747,-0.241541,0.105250,0.015110,0.964548,-0.001093,0.034274,0.018652,0.002477,0.000986,-0.007689,0.210337,0.462775,-0.861161
1762624805.010432,-0.241564,0.105601,0.015191,0.964502,0.001873,0.024190,0.014796,-0.005214,-0.000643,0.001588,0.211044,0.462769,-0.860991
1762624805.038759,-0.241492,0.105698,0.015237,0.964509,0.004862,-0.001607,0.004447,-0.004233,-0.000409,0.001995,0.211253,0.462622,-0.861019
1762624805.040154,-0.241449,0.105657,0.015272,0.964524,-0.001829,-0.000270,0.002001,-0.000419,0.001647,-0.002950,0.211193,0.462539,-0.861078
1762624805.072070,-0.241439,0.105666,0.015307,0.964524,-0.000575,0.000735,0.001613,-0.002033,0.000822,-0.001021,0.211226,0.462514,-0.861083
1762624805.101160,-0.241395,0.105624,0.015312,0.964540,0.007990,-0.001566,0.001127,-0.002442,-0.000907,-0.000590,0.211150,0.462435,-0.861144
1762624805.102943,-0.241303,0.105542,0.015319,0.964572,0.012966,-0.007466,0.004006,-0.004280,-0.001021,-0.000707,0.210999,0.462275,-0.861267
1762624805.150623,-0.241202,0.105496,0.015388,0.964601,0.011193,-0.005684,0.005149,-0.002739,-0.001157,-0.000957,0.210946,0.462081,-0.861385
1762624805.150906,-0.241101,0.105449,0.015458,0.964630,0.009421,-0.003901,0.006292,-0.001197,-0.001293,-0.001208,0.210892,0.461886,-0.861502
1762624805.179676,-0.241003,0.105414,0.015533,0.964658,0.012229,-0.005270,0.004791,-0.001279,-0.003805,-0.002147,0.210865,0.461695,-0.861611
1762624805.181827,-0.240834,0.105384,0.015553,0.964703,0.017857,0.005254,-0.000815,0.001436,-0.003891,-0.005580,0.210820,0.461388,-0.861786
1762624805.220625,-0.240673,0.105456,0.015509,0.964736,0.014514,0.012036,-0.003088,0.000468,-0.002807,-0.004241,0.210940,0.461100,-0.861911
1762624805.222584,-0.240570,0.105614,0.015462,0.964745,0.009253,0.013254,0.001557,-0.003084,-0.002236,0.000103,0.211221,0.460912,-0.861943
1762624805.251049,-0.240440,0.105653,0.015411,0.964774,0.013364,0.001760,-0.002934,-0.002186,-0.003671,0.000458,0.211273,0.460684,-0.862052
1762624805.258301,-0.240248,0.105640,0.015394,0.964823,0.017558,-0.003503,0.001013,-0.000899,-0.001820,-0.000250,0.211245,0.460342,-0.862242
1762624805.287366,-0.240056,0.105633,0.015425,0.964871,0.012348,-0.001424,0.004746,-0.001050,-0.001355,-0.001040,0.211250,0.459988,-0.862429
1762624805.298265,-0.239940,0.105598,0.015463,0.964903,0.007267,-0.003226,0.004067,-0.002318,-0.001228,-0.001959,0.211205,0.459772,-0.862556
1762624805.328256,-0.239886,0.105575,0.015490,0.964919,0.001588,-0.000831,0.001334,-0.001252,-0.000786,-0.002962,0.211174,0.459671,-0.862617
1762624805.360396,-0.239891,0.105577,0.015499,0.964918,-0.003576,0.001993,-0.001131,-0.000076,-0.000422,-0.003668,0.211182,0.459676,-0.862612
1762624805.362450,-0.239936,0.105609,0.015476,0.964903,-0.008479,0.007696,-0.006249,0.000699,0.000061,-0.005213,0.211232,0.459761,-0.862555
1762624805.391007,-0.240018,0.105659,0.015381,0.964879,-0.008422,0.008284,-0.006918,0.000020,0.000562,-0.003322,0.211279,0.459926,-0.862455
1762624805.398875,-0.240073,0.105719,0.015282,0.964860,-0.005430,0.008430,-0.009347,-0.000796,0.001850,-0.000998,0.211347,0.460042,-0.862377
1762624805.452564,-0.240099,0.105728,0.015201,0.964854,-0.002828,0.006129,-0.006784,-0.000400,0.001667,-0.000083,0.211323,0.460107,-0.862348
1762624805.452793,-0.240126,0.105736,0.015119,0.964847,-0.000227,0.003828,-0.004220,-0.000004,0.001485,0.000831,0.211300,0.460173,-0.862319
1762624805.482953,-0.240092,0.105739,0.015053,0.964857,0.007940,0.000575,-0.003817,-0.002375,0.001797,0.001206,0.211274,0.460125,-0.862351
1762624805.483278,-0.239985,0.105718,0.014994,0.964886,0.017612,-0.004691,-0.004215,-0.002695,0.003572,0.001346,0.211209,0.459947,-0.862461
1762624805.510969,-0.239810,0.105642,0.014929,0.964939,0.024184,-0.004861,-0.003097,-0.001739,0.008490,-0.000427,0.211036,0.459649,-0.862662
1762624805.518755,-0.239602,0.105570,0.014873,0.965000,0.022275,-0.005337,-0.001550,-0.001453,0.013091,-0.003005,0.210878,0.459292,-0.862892
1762624805.548806,-0.239407,0.105511,0.014819,0.965055,0.025876,-0.006939,-0.005604,-0.002394,0.017900,-0.003370,0.210744,0.458956,-0.863103
1762624805.578577,-0.239112,0.105373,0.014710,0.965146,0.035870,-0.012270,-0.012652,-0.000617,0.029172,-0.009012,0.210434,0.458455,-0.863445
1762624805.578870,-0.238786,0.105211,0.014507,0.965247,0.041774,-0.006573,-0.021499,0.002466,0.045024,-0.017980,0.210037,0.457922,-0.863824
1762624805.607334,-0.238465,0.105124,0.014253,0.965339,0.042314,0.002536,-0.017220,0.003732,0.058623,-0.018449,0.209759,0.457403,-0.864166
1762624805.649641,-0.237876,0.105185,0.014017,0.965482,0.074866,0.006822,-0.015249,0.003286,0.064405,-0.013599,0.209777,0.456380,-0.864703
1762624805.649945,-0.237286,0.105246,0.013782,0.965624,0.107418,0.011108,-0.013279,0.002839,0.070188,-0.008750,0.209796,0.455357,-0.865237
1762624805.678599,-0.236222,0.105318,0.013492,0.965881,0.150724,0.013327,-0.007746,0.002871,0.077824,-0.009069,0.209824,0.453483,-0.866214
1762624805.680467,-0.234706,0.105481,0.013179,0.966237,0.195860,0.018308,-0.005940,0.001552,0.083804,-0.006838,0.210025,0.450783,-0.867574
1762624805.709780,-0.232748,0.105712,0.012882,0.966689,0.244110,0.030970,0.009064,0.003142,0.086180,-0.005741,0.210377,0.447267,-0.869306
1762624805.716612,-0.230303,0.106131,0.012657,0.967231,0.301330,0.033369,0.020639,-0.001622,0.079341,0.006911,0.211136,0.442826,-0.871394
1762624805.776972,-0.227125,0.106375,0.012533,0.967958,0.337259,0.023090,0.036666,0.001169,0.079757,0.005446,0.211625,0.437028,-0.874197
1762624805.777198,-0.223945,0.106617,0.012410,0.968673,0.373188,0.012811,0.052694,0.003963,0.080191,0.003942,0.212112,0.431212,-0.876963
1762624805.778836,-0.220512,0.107091,0.012435,0.969408,0.389659,0.043035,0.061773,0.004671,0.074259,0.005049,0.213114,0.424869,-0.879812
1762624805.807226,-0.216954,0.107746,0.012465,0.970137,0.396370,0.054205,0.060486,-0.001737,0.072025,0.012191,0.214465,0.418265,-0.882643
1762624805.838094,-0.213410,0.108283,0.012403,0.970864,0.403984,0.025844,0.045976,-0.007490,0.070985,0.022842,0.215550,0.411698,-0.885462
1762624805.839216,-0.209894,0.108527,0.012255,0.971605,0.397654,0.009482,0.032564,-0.002849,0.072237,0.022878,0.216035,0.405208,-0.888333
1762624805.882836,-0.206469,0.108719,0.012035,0.972320,0.396693,0.010134,0.025055,0.002446,0.069046,0.022259,0.216388,0.398891,-0.891102
1762624805.884966,-0.202990,0.108937,0.011669,0.973032,0.418378,0.015494,0.008098,0.003303,0.064433,0.024838,0.216736,0.392490,-0.893855
1762624805.915849,-0.199333,0.109055,0.011089,0.973781,0.440830,0.009452,-0.012540,0.005351,0.068515,0.022478,0.216813,0.385794,-0.896747
1762624805.917199,-0.195626,0.109209,0.010351,0.974524,0.436037,0.021165,-0.016626,0.007567,0.077104,0.018773,0.216903,0.379024,-0.899607
1762624805.947370,-0.192088,0.109448,0.009641,0.975208,0.411556,0.018282,-0.010979,0.004473,0.075991,0.024080,0.217173,0.372541,-0.902247
1762624805.979105,-0.188808,0.109662,0.009008,0.975830,0.387333,0.002321,-0.009844,-0.001347,0.066561,0.032094,0.217425,0.366513,-0.904651
1762624805.980340,-0.185773,0.109653,0.008476,0.976418,0.362542,-0.022695,-0.007313,-0.000953,0.054855,0.032781,0.217284,0.360926,-0.906929
1762624806.009736,-0.183026,0.109494,0.008034,0.976959,0.331035,-0.022371,-0.000197,0.002947,0.040459,0.027112,0.216882,0.355858,-0.909025
1762624806.016671,-0.180574,0.109339,0.007699,0.977435,0.310733,-0.038460,0.003352,0.000820,0.023172,0.029056,0.216523,0.351315,-0.910876
1762624806.057919,-0.178261,0.109039,0.007367,0.977895,0.290488,-0.041246,-0.001416,0.001383,0.008236,0.024734,0.215884,0.347034,-0.912667
1762624806.060013,-0.176070,0.108743,0.007073,0.978327,0.272812,-0.027762,-0.000705,0.000445,-0.013920,0.024928,0.215262,0.342970,-0.914349
1762624806.090739,-0.173760,0.108445,0.006696,0.978776,0.289022,-0.041405,-0.025345,0.000365,-0.037447,0.020664,0.214614,0.338693,-0.916094
1762624806.095351,-0.171231,0.108097,0.005977,0.979265,0.296071,-0.027790,-0.057635,0.000594,-0.044753,0.010329,0.213759,0.334068,-0.917990
1762624806.123369,-0.168626,0.107842,0.004982,0.979750,0.285254,-0.018944,-0.081758,-0.008112,-0.046672,0.009829,0.212996,0.329349,-0.919871
1762624806.154048,-0.166151,0.107494,0.003851,0.980216,0.252447,-0.031901,-0.089531,-0.012802,-0.046678,0.009350,0.212015,0.324899,-0.921678
1762624806.156123,-0.163919,0.107040,0.002814,0.980645,0.212385,-0.047023,-0.081800,-0.012189,-0.050845,0.009255,0.210860,0.320890,-0.923346
1762624806.186695,-0.162001,0.106552,0.002048,0.981019,0.173365,-0.037299,-0.055532,-0.008790,-0.063631,0.001259,0.209723,0.317416,-0.924805
1762624806.215986,-0.160422,0.106144,0.001580,0.981324,0.134488,-0.034344,-0.017799,-0.009925,-0.071453,-0.003850,0.208829,0.314515,-0.925997
1762624806.217247,-0.159092,0.105776,0.001474,0.981580,0.107167,-0.040370,0.009514,-0.012492,-0.079671,-0.007924,0.208124,0.312011,-0.927002
1762624806.248119,-0.158066,0.105497,0.001642,0.981775,0.059524,-0.013403,0.035655,-0.013323,-0.083278,-0.011087,0.207668,0.310025,-0.927771
1762624806.277251,-0.157419,0.105356,0.002125,0.981894,0.018368,-0.028074,0.050689,-0.012146,-0.090895,-0.003883,0.207566,0.308689,-0.928239
1762624806.279209,-0.157118,0.105140,0.002747,0.981963,-0.023179,-0.026185,0.059368,0.000910,-0.102522,-0.005920,0.207351,0.307991,-0.928519
1762624806.312847,-0.157048,0.104953,0.003361,0.981993,-0.044561,-0.010772,0.038917,0.012634,-0.119727,-0.010487,0.207182,0.307735,-0.928641
1762624806.314346,-0.157073,0.104811,0.003625,0.982003,-0.051127,-0.007946,-0.005924,0.013601,-0.125718,-0.009891,0.206988,0.307733,-0.928685
1762624806.356647,-0.157163,0.104590,0.003480,0.982013,-0.047615,-0.022965,-0.041431,0.006356,-0.128096,-0.000213,0.206511,0.307943,-0.928722
1762624806.357136,-0.157053,0.104133,0.003026,0.982080,-0.017863,-0.052256,-0.082627,0.003514,-0.127122,0.001160,0.205485,0.307847,-0.928981
1762624806.374416,-0.156582,0.103364,0.002185,0.982239,0.018854,-0.082553,-0.128856,0.005385,-0.113088,-0.008863,0.203740,0.307150,-0.929596
1762624806.411098,-0.155861,0.102427,0.000835,0.982454,0.015031,-0.073625,-0.180311,0.013873,-0.078513,-0.033136,0.201519,0.306080,-0.930433
1762624806.425366,-0.155520,0.101901,-0.000899,0.982562,-0.072772,0.018835,-0.202140,0.021144,-0.044648,-0.052206,0.199969,0.305799,-0.930860
1762624806.440615,-0.156183,0.102252,-0.002712,0.982417,-0.183568,0.095321,-0.192872,0.013129,-0.039069,-0.045680,0.200062,0.307429,-0.930303
1762624806.475342,-0.157745,0.103248,-0.004460,0.982057,-0.242984,0.142383,-0.188380,0.002633,-0.059124,-0.038964,0.201384,0.310751,-0.928912
1762624806.476464,-0.159610,0.104446,-0.006340,0.981619,-0.216619,0.147956,-0.215082,-0.006430,-0.081572,-0.030164,0.203028,0.314677,-0.927231
1762624806.506800,-0.161134,0.105520,-0.008522,0.981238,-0.142230,0.121337,-0.238976,-0.008785,-0.089970,-0.020020,0.204334,0.318020,-0.925803
1762624806.535957,-0.161979,0.106246,-0.010946,0.980997,-0.066904,0.112053,-0.241823,-0.007845,-0.084310,-0.023546,0.204908,0.320127,-0.924949
1762624806.537959,-0.162089,0.106859,-0.013306,0.980883,0.004074,0.090996,-0.218512,-0.015708,-0.074271,-0.020838,0.205318,0.320825,-0.924616
1762624806.567125,-0.161361,0.107179,-0.015555,0.980935,0.059549,0.059892,-0.212002,-0.015152,-0.051178,-0.019117,0.205251,0.319903,-0.924951
1762624806.599875,-0.160369,0.107366,-0.017537,0.981044,0.045793,0.056600,-0.169433,-0.011012,-0.024579,-0.020474,0.205036,0.318424,-0.925509
1762624806.600232,-0.159763,0.107770,-0.018988,0.981071,-0.017583,0.097068,-0.109594,-0.006982,-0.012045,-0.028120,0.205393,0.317571,-0.925723
1762624806.651834,-0.159887,0.108608,-0.019882,0.980941,-0.030691,0.092599,-0.098001,-0.015522,-0.018372,-0.019920,0.206719,0.317998,-0.925281
1762624806.652150,-0.160010,0.109446,-0.020776,0.980809,-0.043800,0.088129,-0.086407,-0.024060,-0.024700,-0.011722,0.208043,0.318426,-0.924837
1762624806.654149,-0.160231,0.110000,-0.021672,0.980692,-0.025158,0.076259,-0.086145,-0.020784,-0.023718,-0.011148,0.208807,0.319043,-0.924452
1762624806.683716,-0.160285,0.110460,-0.022602,0.980610,-0.000801,0.078021,-0.082396,-0.014719,-0.014172,-0.014175,0.209391,0.319348,-0.924214
1762624806.714243,-0.160163,0.111112,-0.023502,0.980535,0.009935,0.096075,-0.069542,-0.017753,-0.000474,-0.005235,0.210371,0.319313,-0.924004
1762624806.716448,-0.159940,0.111824,-0.024213,0.980474,0.007656,0.101823,-0.033487,-0.025007,0.006026,0.004737,0.211536,0.319049,-0.923829
1762624806.770600,-0.159550,0.112461,-0.024467,0.980458,0.019534,0.095591,-0.010701,-0.016487,0.002632,-0.000157,0.212719,0.318367,-0.923793
1762624806.770935,-0.159160,0.113097,-0.024721,0.980442,0.031412,0.089359,0.012085,-0.007967,-0.000763,-0.005053,0.213902,0.317686,-0.923754
1762624806.775319,-0.158642,0.113891,-0.024684,0.980435,0.058935,0.100649,0.043793,0.000691,-0.020707,-0.009566,0.215494,0.316700,-0.923723
1762624806.803622,-0.157759,0.114797,-0.024679,0.980472,0.126637,0.115506,0.016380,0.008439,-0.037503,-0.015522,0.217324,0.315023,-0.923867
1762624806.815968,-0.156295,0.115757,-0.025125,0.980582,0.175863,0.125280,-0.026449,0.009856,-0.031255,-0.009639,0.219164,0.312336,-0.924345
1762624806.846390,-0.154543,0.116674,-0.025982,0.980729,0.188912,0.108920,-0.055580,0.008078,-0.020339,0.000366,0.220820,0.309193,-0.925007
1762624806.878145,-0.152773,0.117442,-0.026928,0.980889,0.169745,0.088616,-0.059991,0.007440,-0.010411,0.004231,0.222167,0.306032,-0.925736
1762624806.879436,-0.151047,0.118099,-0.027779,0.981053,0.146329,0.073228,-0.054245,0.009600,-0.004780,0.001885,0.223332,0.302931,-0.926475
1762624806.909216,-0.149602,0.118749,-0.028512,0.981175,0.114894,0.076443,-0.043571,0.008072,-0.000429,-0.003321,0.224496,0.300342,-0.927036
1762624806.916502,-0.148485,0.119384,-0.029061,0.981252,0.096808,0.053708,-0.029718,0.004917,0.000561,0.002101,0.225662,0.298342,-0.927399
1762624806.954445,-0.147639,0.119788,-0.029441,0.981319,0.074467,0.035277,-0.010578,0.008165,0.000002,0.000580,0.226406,0.296816,-0.927707
1762624806.954735,-0.147041,0.120124,-0.029553,0.981364,0.044283,0.029925,0.009367,0.011497,-0.002044,-0.004521,0.227080,0.295701,-0.927899
1762624806.982213,-0.146665,0.120467,-0.029460,0.981381,0.028349,0.021496,0.020935,0.006490,-0.006563,-0.001881,0.227807,0.294966,-0.927954
1762624807.015045,-0.146366,0.120701,-0.029307,0.981402,0.025042,0.006116,0.020552,0.004944,-0.004948,0.001212,0.228334,0.294363,-0.928016
1762624807.015373,-0.146190,0.120750,-0.029096,0.981428,0.008012,-0.006542,0.025674,0.001384,0.001386,0.004871,0.228508,0.293977,-0.928096
1762624807.048778,-0.146179,0.120689,-0.028745,0.981448,-0.014115,-0.024493,0.038539,0.000551,0.003533,0.006323,0.228496,0.293873,-0.928131
1762624807.079448,-0.146330,0.120482,-0.028215,0.981466,-0.027845,-0.040530,0.048474,-0.003270,0.002036,0.001027,0.228241,0.294034,-0.928143
1762624807.079690,-0.146522,0.120205,-0.027565,0.981490,-0.028724,-0.042236,0.058608,-0.002377,-0.001140,-0.003033,0.227881,0.294247,-0.928164
1762624807.107450,-0.146690,0.119870,-0.026838,0.981526,-0.018587,-0.043956,0.071211,-0.000825,-0.001293,-0.005985,0.227436,0.294394,-0.928227
1762624807.139054,-0.146712,0.119607,-0.026015,0.981577,0.005433,-0.038443,0.079481,-0.000630,-0.007276,-0.008036,0.227173,0.294242,-0.928340
1762624807.140535,-0.146435,0.119411,-0.025238,0.981662,0.040452,-0.022633,0.068443,-0.002657,-0.011914,-0.007132,0.227050,0.293526,-0.928596
1762624807.165036,-0.145809,0.119200,-0.024730,0.981794,0.070460,-0.032363,0.033795,-0.002534,-0.004498,-0.003020,0.226848,0.292204,-0.929063
1762624807.252113,-0.145958,0.119432,-0.024823,0.981741,0.036203,-0.009078,0.011723,-0.000137,-0.003558,0.001044,0.227257,0.292515,-0.928865
1762624807.252455,-0.146107,0.119664,-0.024915,0.981689,0.001946,0.014208,-0.010349,0.002261,-0.002618,0.005107,0.227666,0.292826,-0.928666
1762624807.252929,-0.146256,0.119897,-0.025008,0.981636,-0.032312,0.037493,-0.032422,0.004659,-0.001677,0.009170,0.228075,0.293137,-0.928468
1762624807.253288,-0.146405,0.120129,-0.025100,0.981583,-0.066569,0.060779,-0.054494,0.007057,-0.000737,0.013233,0.228483,0.293448,-0.928269
1762624807.254329,-0.146965,0.120579,-0.025650,0.981430,-0.048936,0.054421,-0.066955,0.012570,-0.003820,0.011399,0.229141,0.294657,-0.927724
1762624807.282273,-0.147380,0.121041,-0.026420,0.981290,-0.005734,0.045469,-0.079596,0.013098,-0.004848,0.010321,0.229765,0.295641,-0.927256
1762624807.322875,-0.147398,0.121367,-0.027277,0.981224,0.028499,0.029764,-0.081434,0.011716,0.000989,0.007389,0.230135,0.295882,-0.927088
1762624807.323595,-0.147100,0.121535,-0.028138,0.981223,0.044790,0.016609,-0.073685,0.007381,0.009842,0.007322,0.230228,0.295515,-0.927182
1762624807.353531,-0.146705,0.121552,-0.028860,0.981259,0.049462,-0.018114,-0.063708,-0.000561,0.015896,0.008733,0.230080,0.294928,-0.927406
1762624807.355360,-0.146375,0.121255,-0.029362,0.981330,0.029650,-0.039407,-0.040221,0.000489,0.021395,0.000132,0.229386,0.294406,-0.927743
1762624807.384628,-0.146288,0.120972,-0.029555,0.981372,-0.000011,-0.029205,-0.009173,0.001746,0.021200,-0.005938,0.228791,0.294277,-0.927931
1762624807.428083,-0.146602,0.120789,-0.029372,0.981354,-0.014440,-0.032635,0.005041,-0.003513,0.015344,-0.002370,0.228461,0.294833,-0.927836
1762624807.428393,-0.146916,0.120606,-0.029189,0.981335,-0.028868,-0.036065,0.019256,-0.008773,0.009488,0.001198,0.228132,0.295389,-0.927740
1762624807.434712,-0.147356,0.120183,-0.028945,0.981328,-0.038912,-0.051541,0.014519,-0.009316,0.008525,0.003712,0.227347,0.296167,-0.927685
1762624807.464753,-0.147969,0.119699,-0.028682,0.981303,-0.056792,-0.062255,0.014696,-0.008919,0.010406,0.005337,0.226433,0.297271,-0.927555
1762624807.496531,-0.148730,0.119153,-0.028363,0.981263,-0.074826,-0.056514,0.017634,-0.006642,0.007254,0.000199,0.225404,0.298645,-0.927364
1762624807.498721,-0.149545,0.118640,-0.028018,0.981211,-0.078335,-0.049701,0.016973,-0.006842,0.003379,-0.003067,0.224442,0.300119,-0.927122
1762624807.551745,-0.150310,0.118222,-0.027735,0.981153,-0.075399,-0.039094,0.016305,-0.006775,0.004483,-0.006300,0.223650,0.301512,-0.926861
1762624807.552140,-0.151075,0.117804,-0.027453,0.981094,-0.072463,-0.028487,0.015637,-0.006709,0.005587,-0.009537,0.222858,0.302905,-0.926597
1762624807.552815,-0.151791,0.117518,-0.027132,0.981026,-0.071807,-0.023939,0.019797,-0.007115,0.005386,-0.008616,0.222339,0.304200,-0.926298
1762624807.590964,-0.152456,0.117330,-0.026825,0.980954,-0.064173,-0.020871,0.019513,-0.006144,0.002112,-0.006440,0.222012,0.305399,-0.925982
1762624807.592178,-0.152991,0.117243,-0.026559,0.980889,-0.053503,0.002121,0.019730,-0.000675,0.000250,-0.010102,0.221877,0.306361,-0.925696
1762624807.623044,-0.153373,0.117353,-0.026287,0.980823,-0.032630,0.021487,0.026354,0.000409,-0.005904,-0.007253,0.222142,0.307033,-0.925410
1762624807.652162,-0.153566,0.117579,-0.026084,0.980771,-0.010105,0.028696,0.014773,-0.000428,-0.006824,-0.004619,0.222625,0.307361,-0.925185
1762624807.654245,-0.153513,0.117799,-0.026072,0.980753,0.007816,0.023425,-0.000840,-0.001982,-0.005398,0.002322,0.223058,0.307260,-0.925114
1762624807.686719,-0.153397,0.117917,-0.026170,0.980755,0.005120,0.016325,-0.008033,-0.000764,0.001366,0.002524,0.223267,0.307062,-0.925130
1762624807.691536,-0.153356,0.118040,-0.026244,0.980744,-0.004239,0.009670,-0.007208,-0.000002,0.003720,0.001473,0.223485,0.307003,-0.925097
1762624807.720171,-0.153377,0.118137,-0.026293,0.980728,-0.005825,0.007076,-0.001319,-0.000157,0.004878,-0.000503,0.223655,0.307055,-0.925038
1762624807.761170,-0.153413,0.118173,-0.026303,0.980718,-0.004417,0.002472,0.001437,0.000413,0.002560,0.000453,0.223718,0.307127,-0.924999
1762624807.761465,-0.153458,0.118186,-0.026273,0.980710,-0.006756,0.002448,-0.000727,0.001568,0.004112,-0.001558,0.223748,0.307206,-0.924966
1762624807.791746,-0.153587,0.118266,-0.026300,0.980680,-0.012604,0.005424,-0.003255,-0.001367,0.004871,0.002637,0.223883,0.307460,-0.924848
1762624807.793710,-0.153720,0.118221,-0.026329,0.980663,-0.014236,-0.010363,-0.003001,-0.000649,0.006948,0.004675,0.223776,0.307721,-0.924788
1762624807.853162,-0.153873,0.118100,-0.026225,0.980657,-0.011176,-0.009836,0.004321,-0.000085,0.005700,0.001897,0.223561,0.307987,-0.924751
1762624807.853469,-0.154025,0.117979,-0.026120,0.980650,-0.008115,-0.009309,0.011643,0.000478,0.004452,-0.000882,0.223345,0.308253,-0.924715
1762624807.854299,-0.154060,0.117909,-0.025986,0.980657,0.004678,-0.008534,0.012562,-0.000038,0.002643,-0.000843,0.223249,0.308289,-0.924726
1762624807.886489,-0.154014,0.117861,-0.025849,0.980673,0.010553,-0.008374,0.012126,-0.000524,0.003632,-0.000962,0.223203,0.308168,-0.924777
1762624807.916658,-0.153946,0.117828,-0.025744,0.980691,0.013489,-0.000599,0.006208,-0.000534,0.003191,-0.002663,0.223179,0.308013,-0.924835
1762624807.916818,-0.153800,0.117833,-0.025714,0.980714,0.016211,0.000074,0.000913,-0.001632,0.003475,-0.000854,0.223211,0.307727,-0.924922
1762624807.944782,-0.153668,0.117852,-0.025778,0.980731,0.016441,0.003882,-0.001405,-0.000320,0.003022,-0.000275,0.223240,0.307490,-0.924994
1762624807.952508,-0.153545,0.117863,-0.025824,0.980747,0.015037,0.000221,-0.001819,-0.001743,0.004100,-0.003376,0.223257,0.307265,-0.925065
1762624807.980770,-0.153406,0.117937,-0.025840,0.980760,0.017372,0.010775,0.004900,0.000866,0.003332,-0.002270,0.223407,0.307004,-0.925115
1762624808.011793,-0.153215,0.118070,-0.025823,0.980774,0.019067,0.018199,0.009459,-0.000122,0.000049,0.000180,0.223687,0.306636,-0.925170
1762624808.013705,-0.153014,0.118214,-0.025800,0.980789,0.022247,0.010020,0.005327,-0.000384,-0.001082,0.000029,0.223990,0.306248,-0.925225
1762624808.042337,-0.152822,0.118305,-0.025838,0.980807,0.015243,0.014812,-0.000334,0.002033,0.000950,-0.004983,0.224171,0.305892,-0.925299
1762624808.074725,-0.152709,0.118456,-0.025855,0.980806,0.009767,0.013403,-0.000657,-0.001423,-0.002290,-0.000393,0.224469,0.305682,-0.925296
1762624808.074986,-0.152607,0.118423,-0.025922,0.980824,0.010781,-0.010584,-0.007414,-0.005580,-0.001639,0.003269,0.224392,0.305501,-0.925374
1762624808.104245,-0.152518,0.118267,-0.025975,0.980855,0.004531,-0.007528,0.001858,0.001565,0.001966,-0.004475,0.224081,0.305341,-0.925502
1762624808.111017,-0.152507,0.118273,-0.025854,0.980859,-0.004559,0.012759,0.017585,0.002949,0.004316,-0.008726,0.224132,0.305291,-0.925507
1762624808.152887,-0.152569,0.118512,-0.025601,0.980827,-0.012821,0.023173,0.032841,0.000689,0.002451,-0.004379,0.224667,0.305355,-0.925355
1762624808.154960,-0.152645,0.118729,-0.025290,0.980797,-0.006056,0.012317,0.025322,-0.004131,-0.003732,0.000641,0.225176,0.305434,-0.925206
1762624808.183417,-0.152636,0.118744,-0.025125,0.980801,0.005160,-0.003834,0.008677,-0.002019,-0.004425,0.000670,0.225258,0.305378,-0.925205
1762624808.191348,-0.152588,0.118714,-0.025083,0.980813,0.002336,-0.001101,0.001584,0.000919,-0.000463,-0.001499,0.225217,0.305276,-0.925248
1762624808.221316,-0.152565,0.118754,-0.025096,0.980812,0.002867,0.011371,-0.002329,-0.000702,-0.002882,-0.000808,0.225294,0.305235,-0.925243
1762624808.251760,-0.152452,0.118779,-0.025169,0.980824,0.018176,-0.001749,-0.006982,-0.002648,-0.005160,0.000322,0.225329,0.305036,-0.925300
1762624808.252001,-0.152213,0.118712,-0.025282,0.980867,0.025524,-0.002907,-0.004544,-0.001459,-0.002258,-0.001834,0.225185,0.304605,-0.925477
1762624808.279756,-0.151954,0.118654,-0.025353,0.980912,0.018445,0.002129,0.001486,-0.000669,0.002324,-0.002862,0.225072,0.304124,-0.925663
1762624808.315358,-0.151805,0.118648,-0.025300,0.980937,0.006512,-0.004757,0.009465,-0.003268,0.003888,-0.001071,0.225090,0.303825,-0.925756
1762624808.316761,-0.151739,0.118515,-0.025151,0.980967,0.003191,-0.022739,0.018419,-0.000637,0.000602,0.001023,0.224886,0.303664,-0.925858
1762624808.346923,-0.151686,0.118365,-0.024989,0.980998,-0.002709,-0.008369,0.010758,0.001046,-0.001545,-0.004429,0.224651,0.303523,-0.925962
1762624808.348727,-0.151754,0.118330,-0.024846,0.980995,-0.005371,-0.001991,0.007989,-0.000350,-0.003188,-0.003551,0.224621,0.303620,-0.925938
1762624808.377194,-0.151813,0.118297,-0.024806,0.980991,0.002058,-0.003712,-0.000760,-0.002074,-0.004164,-0.001205,0.224565,0.303724,-0.925917
1762624808.407830,-0.151758,0.118173,-0.024812,0.981014,0.007888,-0.010616,-0.000855,-0.000553,-0.001086,0.000433,0.224328,0.303618,-0.926009
1762624808.409876,-0.151614,0.118085,-0.024813,0.981047,0.016946,-0.006688,0.002600,-0.000187,-0.002000,-0.002914,0.224170,0.303341,-0.926138
1762624808.474634,-0.151386,0.118001,-0.024788,0.981093,0.016116,-0.007291,0.003965,-0.000874,0.000552,-0.002407,0.224035,0.302897,-0.926316
1762624808.475076,-0.151157,0.117917,-0.024762,0.981139,0.015286,-0.007893,0.005330,-0.001562,0.003104,-0.001899,0.223901,0.302453,-0.926494
1762624808.475711,-0.151024,0.117836,-0.024621,0.981173,0.001418,-0.011054,0.015815,-0.000646,0.004365,-0.000502,0.223798,0.302164,-0.926613
1762624808.512794,-0.151043,0.117765,-0.024427,0.981183,-0.009300,-0.012274,0.014532,0.000491,0.001618,-0.001258,0.223719,0.302155,-0.926635
1762624808.514861,-0.151118,0.117692,-0.024278,0.981184,-0.012382,-0.004116,0.008754,0.001418,-0.000258,-0.003618,0.223617,0.302263,-0.926624
1762624808.543493,-0.151261,0.117667,-0.024168,0.981168,-0.009144,-0.004348,0.006209,0.000450,0.000519,-0.001022,0.223590,0.302513,-0.926549
1762624808.549907,-0.151371,0.117641,-0.024100,0.981156,-0.005025,0.000828,0.004988,0.000523,0.000549,-0.001928,0.223553,0.302707,-0.926495
1762624808.578344,-0.151439,0.117660,-0.024074,0.981144,-0.004626,0.006617,0.004578,-0.000519,0.002198,-0.003517,0.223591,0.302833,-0.926445
1762624808.610679,-0.151440,0.117770,-0.024008,0.981132,0.000881,0.006739,0.004151,-0.002297,0.002283,0.000415,0.223824,0.302820,-0.926392
1762624808.612483,-0.151396,0.117799,-0.023986,0.981136,0.004619,-0.000792,0.003713,-0.004348,0.005511,0.001650,0.223890,0.302730,-0.926406
1762624808.649083,-0.151361,0.117794,-0.023897,0.981144,0.002161,-0.004571,0.014645,-0.002287,0.009658,0.001317,0.223911,0.302643,-0.926429
1762624808.651182,-0.151304,0.117725,-0.023588,0.981168,-0.000794,-0.005409,0.041767,-0.000258,0.008187,-0.002111,0.223878,0.302464,-0.926496
1762624808.679647,-0.151204,0.117699,-0.023101,0.981199,0.014914,-0.012166,0.058675,-0.001380,0.001930,-0.001104,0.223986,0.302160,-0.926569
1762624808.710231,-0.150932,0.117645,-0.022513,0.981261,0.032918,-0.013075,0.062909,-0.000341,-0.001054,-0.001340,0.224086,0.301503,-0.926758
1762624808.711575,-0.150540,0.117583,-0.021916,0.981342,0.043641,-0.010881,0.059526,0.000193,-0.002808,-0.001224,0.224180,0.300616,-0.927024
1762624808.760814,-0.150142,0.117532,-0.021450,0.981419,0.036707,-0.011037,0.050228,0.000193,-0.003929,-0.000171,0.224255,0.299746,-0.927287
1762624808.761096,-0.149743,0.117480,-0.020984,0.981496,0.029774,-0.011194,0.040929,0.000194,-0.005050,0.000882,0.224328,0.298876,-0.927551
1762624808.792779,-0.149379,0.117333,-0.020695,0.981576,0.027059,-0.017119,0.018383,0.002882,-0.002725,-0.004468,0.224160,0.298110,-0.927838
1762624808.795015,-0.149149,0.117255,-0.020547,0.981623,0.019053,-0.013722,0.013712,0.000876,-0.001773,-0.001491,0.224072,0.297634,-0.928012
1762624808.823663,-0.148964,0.117128,-0.020461,0.981668,0.019551,-0.021811,0.001095,-0.000535,-0.002611,-0.001377,0.223865,0.297259,-0.928182
1762624808.830073,-0.148764,0.116829,-0.020460,0.981734,0.016274,-0.029400,-0.005272,0.003609,0.002586,-0.004830,0.223303,0.296874,-0.928440
1762624808.860088,-0.148712,0.116645,-0.020469,0.981764,-0.005163,-0.004199,-0.000027,0.009467,0.009217,-0.008440,0.222947,0.296775,-0.928557
1762624808.888557,-0.148848,0.116796,-0.020458,0.981725,-0.030023,0.020315,-0.000415,0.006172,0.007630,-0.002095,0.223233,0.297034,-0.928406
1762624808.888867,-0.149224,0.116935,-0.020417,0.981652,-0.040912,0.000940,-0.000761,-0.006227,0.009521,0.011320,0.223486,0.297747,-0.928117
1762624808.919191,-0.149606,0.116632,-0.020383,0.981631,-0.035215,-0.054012,-0.007504,-0.008178,0.011351,0.015973,0.222881,0.298470,-0.928030
1762624808.948378,-0.150074,0.116048,-0.020242,0.981632,-0.049923,-0.074637,0.013951,-0.004925,0.022548,0.012373,0.221757,0.299333,-0.928021
1762624808.950463,-0.150651,0.115511,-0.019695,0.981618,-0.062679,-0.062701,0.053437,-0.003595,0.019575,0.003995,0.220841,0.300313,-0.927923
1762624808.986558,-0.151227,0.115048,-0.018961,0.981598,-0.054426,-0.044530,0.071018,-0.007580,0.011886,0.001217,0.220126,0.301252,-0.927789
1762624808.987993,-0.151713,0.114657,-0.018039,0.981586,-0.039872,-0.058972,0.085585,-0.005227,0.007785,0.001618,0.219618,0.301976,-0.927674
1762624809.050422,-0.152312,0.114607,-0.017093,0.981516,-0.059334,-0.033007,0.088464,-0.007242,0.009413,-0.000475,0.219771,0.302911,-0.927333
1762624809.050716,-0.152910,0.114558,-0.016146,0.981445,-0.078797,-0.007041,0.091342,-0.009258,0.011042,-0.002569,0.219926,0.303845,-0.926990
1762624809.052457,-0.153608,0.114487,-0.015186,0.981360,-0.071938,-0.026086,0.073915,-0.002109,0.001146,-0.007027,0.220040,0.304967,-0.926595
1762624809.096000,-0.154227,0.114498,-0.014399,0.981273,-0.056236,-0.000492,0.070008,0.004932,-0.006443,-0.007887,0.220267,0.305975,-0.926208
1762624809.096249,-0.154544,0.114667,-0.013751,0.981213,-0.016913,0.022620,0.049364,0.004073,-0.014730,-0.010386,0.220776,0.306435,-0.925935
1762624809.127786,-0.154548,0.114852,-0.013249,0.981197,0.016329,0.010553,0.048481,-0.000569,-0.019158,-0.003027,0.221290,0.306328,-0.925847
1762624809.128081,-0.154160,0.114807,-0.012900,0.981268,0.043515,-0.022162,0.033945,-0.001835,-0.012776,-0.001157,0.221336,0.305507,-0.926108
1762624809.155887,-0.153682,0.114765,-0.012561,0.981353,0.039359,-0.010715,0.031801,0.001674,-0.006703,-0.004828,0.221389,0.304516,-0.926421
1762624809.186657,-0.153198,0.114791,-0.012264,0.981429,0.028349,0.008749,0.038493,-0.002413,-0.007121,-0.004933,0.221561,0.303521,-0.926707
1762624809.188762,-0.152685,0.114718,-0.011889,0.981522,0.051153,-0.019217,0.034352,-0.004621,-0.020458,-0.007277,0.221566,0.302456,-0.927054
1762624809.217632,-0.151909,0.114668,-0.011652,0.981651,0.082722,0.000382,0.024382,0.002978,-0.027736,-0.012596,0.221587,0.300915,-0.927550
1762624809.250633,-0.150863,0.114746,-0.011661,0.981803,0.108176,0.021166,-0.008418,0.004885,-0.027123,-0.020695,0.221797,0.298911,-0.928148
1762624809.252602,-0.149815,0.115116,-0.012073,0.981915,0.098643,0.053573,-0.028952,0.002060,-0.016267,-0.012449,0.222452,0.296991,-0.928607
1762624809.280894,-0.148950,0.115507,-0.012644,0.981994,0.069726,0.042898,-0.051073,-0.003325,-0.009234,0.002296,0.223088,0.295457,-0.928944
1762624809.287031,-0.148252,0.115712,-0.013299,0.982067,0.046960,0.014438,-0.049560,-0.007231,-0.000699,0.011260,0.223331,0.294264,-0.929264
1762624809.316544,-0.147815,0.115669,-0.013914,0.982129,0.031201,0.001736,-0.067670,-0.011016,0.000034,0.010208,0.223089,0.293566,-0.929543
1762624809.356651,-0.147587,0.115362,-0.014412,0.982193,0.008740,-0.044008,-0.051369,-0.015065,0.007793,0.012618,0.222362,0.293242,-0.929819
1762624809.362477,-0.147609,0.114719,-0.014803,0.982259,-0.012809,-0.060776,-0.042495,-0.012826,0.011475,0.005968,0.220998,0.293377,-0.930102
1762624809.392819,-0.147898,0.114011,-0.014989,0.982295,-0.030545,-0.075391,-0.016715,-0.019247,0.012252,0.008966,0.219551,0.293976,-0.930256
1762624809.393121,-0.148156,0.113073,-0.014832,0.982367,-0.010205,-0.111290,0.010722,-0.024679,0.002539,0.003142,0.217763,0.294442,-0.930529
1762624809.427879,-0.148086,0.111880,-0.014398,0.982520,0.033579,-0.119058,0.044440,-0.013943,0.000294,-0.015962,0.215585,0.294217,-0.931107
1762624809.429944,-0.147603,0.110893,-0.013756,0.982714,0.065935,-0.083516,0.072898,-0.000634,-0.002674,-0.026469,0.213891,0.293154,-0.931832
1762624809.458483,-0.146894,0.110388,-0.012934,0.982888,0.078282,-0.033695,0.098954,0.002616,-0.000135,-0.015712,0.213199,0.291615,-0.932473
1762624809.488996,-0.146049,0.110172,-0.011861,0.983052,0.086655,-0.021796,0.122105,0.001469,-0.004123,-0.004469,0.213145,0.289761,-0.933064
1762624809.552721,-0.144978,0.110074,-0.010630,0.983236,0.103074,-0.014203,0.150834,0.010235,-0.009966,-0.000030,0.213375,0.287435,-0.933730
1762624809.554974,-0.143160,0.110099,-0.009148,0.983514,0.151214,-0.027822,0.144409,0.007248,-0.015312,0.004937,0.213948,0.283614,-0.934767
1762624809.555287,-0.141341,0.110123,-0.007666,0.983787,0.199354,-0.041440,0.137983,0.004273,-0.020653,0.009890,0.214509,0.279787,-0.935791
1762624809.583666,-0.139167,0.109896,-0.006435,0.984131,0.217428,-0.063803,0.120578,0.002877,-0.012724,0.007979,0.214514,0.275331,-0.937111
1762624809.585524,-0.137026,0.109520,-0.005380,0.984480,0.183126,-0.059759,0.112255,0.006467,0.004467,-0.001429,0.214165,0.270976,-0.938459
1762624809.614806,-0.135356,0.109269,-0.004310,0.984744,0.109739,-0.034557,0.113829,0.009663,0.015486,-0.009544,0.214037,0.267524,-0.939478
1762624809.650360,-0.134467,0.109272,-0.003223,0.984869,0.029327,-0.014718,0.108906,0.003272,0.018833,-0.007985,0.214370,0.265569,-0.939957
1762624809.652480,-0.134381,0.109290,-0.002144,0.984882,-0.037609,-0.019393,0.094544,-0.000834,0.015650,-0.004994,0.214700,0.265168,-0.939995
1762624809.680850,-0.134936,0.109214,-0.001191,0.984816,-0.082219,-0.027448,0.075332,0.001689,0.010715,-0.005833,0.214789,0.266035,-0.939729
1762624809.687340,-0.135911,0.109143,-0.000408,0.984691,-0.111706,-0.011954,0.054500,0.007681,0.003743,-0.008839,0.214833,0.267749,-0.939232
1762624809.722834,-0.137079,0.109236,0.000164,0.984519,-0.118132,0.013700,0.031779,0.009531,-0.004878,-0.007748,0.215134,0.269878,-0.938554
1762624809.724205,-0.138225,0.109469,0.000426,0.984332,-0.103792,0.027933,0.001846,0.006948,-0.010929,-0.002676,0.215626,0.272026,-0.937821
1762624809.761287,-0.139192,0.109748,0.000394,0.984165,-0.086432,0.031515,-0.023957,0.005450,-0.009753,-0.000067,0.216131,0.273889,-0.937162
1762624809.766831,-0.139990,0.110055,0.000114,0.984018,-0.073432,0.031049,-0.042261,0.002836,-0.006323,0.002212,0.216624,0.275479,-0.936582
1762624809.794806,-0.140662,0.110269,-0.000342,0.983898,-0.068621,0.019455,-0.058061,-0.000658,-0.000555,0.002429,0.216891,0.276869,-0.936110
1762624809.825432,-0.141276,0.110352,-0.000871,0.983800,-0.066005,0.006982,-0.061847,-0.000091,0.003004,-0.000014,0.216883,0.278167,-0.935727
1762624809.826608,-0.141877,0.110376,-0.001375,0.983710,-0.062017,0.006676,-0.055690,-0.000243,0.003773,-0.003734,0.216766,0.279435,-0.935376
1762624809.857106,-0.142436,0.110463,-0.001814,0.983619,-0.053644,0.014081,-0.044180,-0.001938,0.004688,-0.004393,0.216789,0.280606,-0.935020
1762624809.885988,-0.142917,0.110551,-0.002173,0.983539,-0.043629,0.015706,-0.033244,-0.004663,0.005391,-0.002503,0.216842,0.281609,-0.934706
1762624809.887965,-0.143320,0.110674,-0.002435,0.983466,-0.032264,0.015079,-0.024693,-0.005029,0.003914,-0.001344,0.216990,0.282439,-0.934422
1762624809.950969,-0.143510,0.110824,-0.002682,0.983420,-0.017919,0.015772,-0.024633,-0.004174,0.003363,-0.000581,0.217203,0.282855,-0.934246
1762624809.951340,-0.143700,0.110974,-0.002928,0.983375,-0.003574,0.016466,-0.024573,-0.003318,0.002812,0.000182,0.217416,0.283272,-0.934070
1762624809.952605,-0.143739,0.111097,-0.003212,0.983355,0.009342,0.018574,-0.024440,-0.001576,0.002479,-0.001048,0.217571,0.283406,-0.933993
1762624809.984300,-0.143649,0.111232,-0.003518,0.983351,0.019338,0.021358,-0.023889,-0.001777,0.003418,0.000313,0.217750,0.283297,-0.933985
1762624810.015952,-0.143450,0.111372,-0.003825,0.983364,0.022315,0.020304,-0.023788,-0.000947,0.005071,0.001053,0.217941,0.282979,-0.934037
1762624810.016162,-0.143279,0.111491,-0.004110,0.983374,0.017212,0.017443,-0.021722,-0.001713,0.006256,0.002664,0.218098,0.282709,-0.934082
1762624810.046155,-0.143165,0.111548,-0.004338,0.983383,0.010840,0.009035,-0.011525,-0.000659,0.008247,0.001043,0.218146,0.282539,-0.934122
1762624810.048063,-0.143115,0.111610,-0.004400,0.983383,0.006369,0.006203,0.004023,-0.001002,0.006836,0.000615,0.218251,0.282456,-0.934123
1762624810.081137,-0.143067,0.111642,-0.004289,0.983387,0.005794,-0.000243,0.017819,-0.001781,0.005222,0.002185,0.218348,0.282338,-0.934136
1762624810.097496,-0.143013,0.111613,-0.004063,0.983399,0.007470,-0.007025,0.024919,-0.001358,0.001524,0.002110,0.218359,0.282185,-0.934179
1762624810.127977,-0.142951,0.111520,-0.003830,0.983419,0.011658,-0.013675,0.020964,-0.000715,-0.002295,0.001879,0.218247,0.282015,-0.934257
1762624810.128297,-0.142842,0.111356,-0.003675,0.983454,0.016813,-0.021704,0.010279,-0.001594,-0.004487,0.001605,0.217977,0.281775,-0.934392
1762624810.155973,-0.142706,0.111110,-0.003634,0.983502,0.019293,-0.026296,-0.002846,-0.001646,-0.003745,-0.000392,0.217516,0.281511,-0.934579
1762624810.187050,-0.142546,0.110822,-0.003659,0.983558,0.018955,-0.028743,-0.007117,-0.001191,-0.003552,-0.001262,0.216957,0.281215,-0.934798
1762624810.188472,-0.142354,0.110547,-0.003687,0.983616,0.019632,-0.024835,-0.004124,-0.001716,-0.003211,-0.003273,0.216422,0.280859,-0.935029
1762624810.254338,-0.142091,0.110308,-0.003681,0.983681,0.023219,-0.023252,-0.001254,-0.002088,-0.003284,-0.005121,0.215969,0.280358,-0.935284
1762624810.254671,-0.141829,0.110068,-0.003675,0.983746,0.026807,-0.021669,0.001616,-0.002460,-0.003357,-0.006970,0.215516,0.279856,-0.935539
1762624810.254832,-0.141562,0.109881,-0.003623,0.983806,0.024220,-0.014907,0.007893,-0.003406,-0.004279,-0.008292,0.215176,0.279336,-0.935773
1762624810.282375,-0.141264,0.109710,-0.003508,0.983868,0.030354,-0.019492,0.010201,-0.004504,-0.006800,-0.005980,0.214889,0.278739,-0.936017
1762624810.286306,-0.140942,0.109482,-0.003411,0.983940,0.027502,-0.019747,0.010316,-0.003476,-0.006598,-0.008021,0.214486,0.278103,-0.936298
1762624810.318686,-0.140666,0.109324,-0.003285,0.983997,0.021125,-0.006702,0.014098,0.000260,-0.006433,-0.011810,0.214225,0.277548,-0.936523
1762624810.349527,-0.140445,0.109400,-0.003175,0.984021,0.014756,0.014417,0.013157,-0.001130,-0.006840,-0.008906,0.214411,0.277097,-0.936614
1762624810.350398,-0.140282,0.109556,-0.003092,0.984027,0.008367,0.018625,0.014699,-0.004583,-0.005721,-0.004702,0.214744,0.276760,-0.936637
1762624810.385451,-0.140166,0.109693,-0.002996,0.984028,0.003844,0.009581,0.009093,-0.006920,-0.004958,-0.001356,0.215043,0.276513,-0.936642
1762624810.387547,-0.140112,0.109758,-0.002951,0.984029,-0.002688,0.006783,0.002736,-0.002865,-0.002077,-0.002442,0.215184,0.276395,-0.936644
1762624810.430407,-0.140144,0.109831,-0.002950,0.984016,-0.014876,0.010819,-0.001185,-0.000833,0.000011,-0.002230,0.215324,0.276456,-0.936594
1762624810.432433,-0.140300,0.109909,-0.002999,0.983985,-0.023201,0.012815,-0.007145,-0.001026,-0.001715,-0.000687,0.215456,0.276765,-0.936472
1762624810.460943,-0.140499,0.109945,-0.003109,0.983952,-0.020513,0.010785,-0.015475,-0.001238,-0.003258,-0.000687,0.215487,0.277173,-0.936344
1762624810.462110,-0.140660,0.109982,-0.003304,0.983925,-0.017246,0.011490,-0.021391,-0.000417,-0.001964,-0.002136,0.215498,0.277524,-0.936238
1762624810.492922,-0.140856,0.110044,-0.003527,0.983889,-0.016992,0.008366,-0.023441,-0.001170,-0.000592,-0.001163,0.215549,0.277950,-0.936100
1762624810.553251,-0.141016,0.110036,-0.003732,0.983866,-0.017615,0.005612,-0.019213,0.000344,0.001022,-0.002364,0.215468,0.278303,-0.936013
1762624810.553563,-0.141176,0.110027,-0.003936,0.983843,-0.018238,0.002858,-0.014985,0.001858,0.002635,-0.003564,0.215387,0.278657,-0.935927
1762624810.553811,-0.141362,0.110059,-0.004040,0.983813,-0.020836,0.007788,-0.006941,0.001555,0.002554,-0.003114,0.215413,0.279036,-0.935808
1762624810.583649,-0.141579,0.110135,-0.004066,0.983773,-0.022860,0.008014,-0.002468,0.000895,0.001519,-0.001810,0.215544,0.279458,-0.935652
1762624810.583968,-0.141788,0.110176,-0.004086,0.983738,-0.019750,0.001305,-0.004681,-0.000821,-0.000059,0.001636,0.215609,0.279864,-0.935515
1762624810.618067,-0.141996,0.110148,-0.004109,0.983711,-0.016811,-0.003872,-0.005375,-0.000206,0.000306,0.000391,0.215541,0.280271,-0.935409
1762624810.657942,-0.142106,0.110131,-0.004161,0.983697,-0.009925,-0.003356,-0.006726,-0.000061,0.000175,-0.000223,0.215489,0.280494,-0.935354
1762624810.658133,-0.142215,0.110115,-0.004213,0.983683,-0.003039,-0.002839,-0.008078,0.000085,0.000044,-0.000837,0.215437,0.280717,-0.935299
1762624810.687583,-0.142250,0.110100,-0.004300,0.983679,0.002115,-0.003259,-0.008366,-0.000034,0.002007,0.000636,0.215382,0.280804,-0.935286
1762624810.689123,-0.142261,0.110057,-0.004390,0.983682,-0.000261,-0.002658,-0.005490,-0.000008,0.003674,-0.000977,0.215273,0.280845,-0.935299
1762624810.723186,-0.142314,0.110039,-0.004441,0.983676,-0.008218,-0.001669,-0.002227,0.000499,0.004277,-0.001636,0.215221,0.280958,-0.935277
1762624810.724355,-0.142430,0.110017,-0.004450,0.983662,-0.013443,-0.001483,0.001319,0.000290,0.002333,-0.000380,0.215171,0.281185,-0.935220
1762624810.762958,-0.142602,0.109996,-0.004417,0.983639,-0.014331,-0.003481,0.003282,0.000804,0.001239,-0.000459,0.215133,0.281510,-0.935131
1762624810.765023,-0.142751,0.109974,-0.004358,0.983620,-0.011282,-0.003969,0.004690,0.001536,0.000572,-0.000410,0.215101,0.281783,-0.935056
1762624810.793452,-0.142869,0.109901,-0.004262,0.983612,-0.007790,-0.009648,0.008973,0.001000,0.001348,0.000185,0.214982,0.281991,-0.935021
1762624810.850603,-0.142938,0.109825,-0.004120,0.983611,-0.007242,-0.010140,0.011094,0.000519,0.001686,0.000306,0.214872,0.282096,-0.935014
1762624810.850913,-0.143008,0.109749,-0.003978,0.983610,-0.006693,-0.010632,0.013215,0.000038,0.002023,0.000428,0.214763,0.282201,-0.935008
1762624810.851914,-0.143048,0.109673,-0.003816,0.983613,-0.005216,-0.011264,0.012861,-0.000420,0.001461,0.000482,0.214659,0.282246,-0.935018
1762624810.881119,-0.143069,0.109572,-0.003664,0.983622,-0.001001,-0.012738,0.016364,-0.000566,0.001583,0.000880,0.214507,0.282254,-0.935051
1762624810.882380,-0.143045,0.109506,-0.003469,0.983633,0.003997,-0.010450,0.019046,-0.000433,0.000376,0.000771,0.214436,0.282167,-0.935093
1762624810.920838,-0.142948,0.109462,-0.003265,0.983653,0.014098,-0.011227,0.017717,-0.000466,-0.001739,0.001553,0.214411,0.281938,-0.935168
1762624810.949953,-0.142748,0.109355,-0.003111,0.983695,0.021613,-0.010959,0.014464,0.000605,-0.000251,-0.003044,0.214256,0.281521,-0.935329
1762624810.951758,-0.142568,0.109287,-0.002979,0.983729,0.016371,-0.008759,0.013876,0.000010,0.000776,-0.001454,0.214168,0.281148,-0.935461
1762624811.002923,-0.142476,0.109138,-0.002914,0.983759,0.008145,-0.012607,0.009418,0.000804,0.001531,-0.003602,0.213901,0.280961,-0.935579
1762624811.003324,-0.142385,0.108990,-0.002849,0.983789,-0.000080,-0.016456,0.004960,0.001598,0.002287,-0.005749,0.213634,0.280774,-0.935696
1762624811.004017,-0.142401,0.108909,-0.002785,0.983795,-0.006479,-0.001197,0.004787,0.002123,0.002170,-0.008597,0.213494,0.280794,-0.935722
1762624811.034243,-0.142456,0.108973,-0.002729,0.983780,-0.009900,0.012266,0.007390,0.000410,0.001957,-0.005521,0.213633,0.280886,-0.935662
1762624811.066662,-0.142554,0.109119,-0.002622,0.983750,-0.008049,0.012319,0.010921,-0.004702,0.000887,-0.000888,0.213945,0.281046,-0.935543
1762624811.066935,-0.142593,0.109167,-0.002541,0.983740,-0.001591,-0.002449,0.004788,-0.006352,0.001005,0.002025,0.214058,0.281103,-0.935500
1762624811.104236,-0.142615,0.109094,-0.002489,0.983745,-0.003413,-0.005041,0.003464,-0.001948,0.003797,-0.001076,0.213931,0.281136,-0.935519
1762624811.106268,-0.142673,0.109077,-0.002443,0.983738,-0.005077,0.002189,0.003882,-0.001585,0.002332,-0.001788,0.213909,0.281238,-0.935493
1762624811.152230,-0.142679,0.109090,-0.002425,0.983736,0.007598,0.002552,0.001593,-0.004011,-0.001515,-0.000003,0.213939,0.281247,-0.935484
1762624811.153378,-0.142554,0.108997,-0.002480,0.983764,0.019706,-0.005131,-0.005059,-0.004090,0.000106,-0.001957,0.213747,0.281019,-0.935596
1762624811.184609,-0.142363,0.108964,-0.002553,0.983795,0.021184,0.004144,-0.001416,-0.003009,0.002079,-0.003495,0.213670,0.280669,-0.935719
1762624811.186452,-0.142137,0.108995,-0.002593,0.983824,0.025208,0.005485,0.002414,-0.003948,0.001384,-0.002357,0.213726,0.280241,-0.935835
1762624811.216705,-0.141842,0.109019,-0.002607,0.983864,0.033584,-0.001837,0.004728,-0.004370,-0.001776,-0.000538,0.213780,0.279674,-0.935992
1762624811.246282,-0.141461,0.109046,-0.002623,0.983916,0.040231,0.009478,0.003121,-0.001798,-0.004083,-0.003978,0.213842,0.278944,-0.936195
1762624811.249004,-0.141054,0.109158,-0.002677,0.983962,0.039533,0.017296,0.001717,-0.001558,-0.003166,-0.003364,0.214059,0.278167,-0.936377
1762624811.280030,-0.140687,0.109301,-0.002735,0.983999,0.034684,0.014023,0.000736,-0.003142,-0.002613,0.000200,0.214334,0.277469,-0.936521
1762624811.319725,-0.140393,0.109332,-0.002792,0.984037,0.028029,0.011194,0.001263,-0.002067,-0.001381,-0.001162,0.214389,0.276914,-0.936673
1762624811.319963,-0.140099,0.109363,-0.002849,0.984075,0.021374,0.008364,0.001791,-0.000992,-0.000149,-0.002524,0.214445,0.276360,-0.936824
1762624811.348602,-0.139874,0.109405,-0.002858,0.984102,0.018557,0.005457,0.005293,-0.000645,0.000423,-0.002340,0.214532,0.275925,-0.936932
1762624811.350472,-0.139696,0.109445,-0.002810,0.984123,0.014304,0.005205,0.012661,-0.000679,0.000317,-0.001873,0.214630,0.275570,-0.937014
1762624811.379504,-0.139547,0.109467,-0.002694,0.984142,0.015098,0.002558,0.016371,-0.000422,-0.000649,-0.001583,0.214711,0.275258,-0.937087
1762624811.381600,-0.139357,0.109535,-0.002530,0.984162,0.021113,0.004512,0.018685,0.000104,-0.003697,-0.002062,0.214895,0.274855,-0.937163
1762624811.411103,-0.139120,0.109613,-0.002424,0.984187,0.024459,0.005944,0.009368,0.000668,-0.005536,-0.001790,0.215084,0.274372,-0.937261
1762624811.453140,-0.138883,0.109686,-0.002460,0.984213,0.021469,0.007644,0.001061,0.001259,-0.004857,-0.001962,0.215226,0.273920,-0.937361
1762624811.453428,-0.138646,0.109760,-0.002497,0.984238,0.018478,0.009345,-0.007246,0.001849,-0.004177,-0.002135,0.215368,0.273469,-0.937460
1762624811.485645,-0.138436,0.109865,-0.002599,0.984255,0.017201,0.010071,-0.010794,0.001051,-0.003536,-0.002387,0.215550,0.273083,-0.937531
1762624811.485931,-0.138257,0.109961,-0.002726,0.984269,0.013500,0.011435,-0.012843,0.000053,-0.003880,-0.003370,0.215710,0.272763,-0.937587
1762624811.515459,-0.138105,0.110057,-0.002853,0.984280,0.009754,0.010219,-0.011540,0.000156,-0.004203,-0.003698,0.215866,0.272495,-0.937629
1762624811.544650,-0.137993,0.110142,-0.002989,0.984285,0.007792,0.008987,-0.010201,-0.000384,-0.003726,-0.002747,0.215996,0.272308,-0.937654
1762624811.545921,-0.137917,0.110215,-0.003094,0.984288,0.005024,0.006585,-0.009029,-0.000270,-0.004060,-0.001860,0.216113,0.272182,-0.937663
1762624811.576921,-0.137891,0.110251,-0.003206,0.984287,0.000482,0.003322,-0.007319,-0.000312,-0.002906,-0.001969,0.216153,0.272155,-0.937662
1762624811.583723,-0.137907,0.110298,-0.003288,0.984279,-0.006029,0.004319,-0.003366,-0.000295,-0.003278,-0.000344,0.216220,0.272203,-0.937632
1762624811.613456,-0.137970,0.110311,-0.003308,0.984269,-0.006111,0.000473,-0.004332,0.000132,-0.003992,-0.003224,0.216238,0.272329,-0.937592
1762624811.660334,-0.138097,0.110315,-0.003310,0.984251,-0.011500,-0.004655,-0.003663,-0.000610,-0.003096,-0.001343,0.216240,0.272574,-0.937520
1762624811.660703,-0.138224,0.110318,-0.003311,0.984232,-0.016890,-0.009783,-0.002994,-0.001352,-0.002200,0.000539,0.216242,0.272819,-0.937448
1762624811.661499,-0.138402,0.110172,-0.003310,0.984224,-0.023850,-0.020548,-0.006272,-0.000130,-0.000633,-0.001764,0.215951,0.273167,-0.937414
1762624811.691891,-0.138664,0.110037,-0.003265,0.984202,-0.033621,-0.008290,0.001100,0.002728,0.000092,-0.005638,0.215692,0.273666,-0.937328
1762624811.763468,-0.139013,0.110087,-0.003192,0.984148,-0.034188,-0.009910,0.000270,0.000747,0.000284,-0.002995,0.215796,0.274321,-0.937113
1762624811.763991,-0.139361,0.110137,-0.003119,0.984093,-0.034755,-0.011529,-0.000560,-0.001235,0.000476,-0.000351,0.215900,0.274976,-0.936897
1762624811.764272,-0.139709,0.110186,-0.003047,0.984038,-0.035322,-0.013149,-0.001390,-0.003217,0.000669,0.002292,0.216004,0.275630,-0.936680
1762624811.764609,-0.140043,0.110118,-0.003005,0.983998,-0.035444,-0.014709,-0.004140,-0.000082,0.002002,0.000637,0.215871,0.276267,-0.936524
1762624811.794610,-0.140384,0.110046,-0.002989,0.983958,-0.035121,-0.003466,-0.005811,0.001044,0.000463,0.000445,0.215721,0.276921,-0.936365
1762624811.824932,-0.140664,0.109986,-0.003021,0.983924,-0.021295,-0.003406,-0.009121,-0.000660,-0.002456,0.001386,0.215587,0.277471,-0.936233
1762624811.825914,-0.140786,0.109876,-0.003110,0.983919,-0.003971,-0.014148,-0.013116,-0.003355,-0.000836,0.000912,0.215343,0.277727,-0.936213
1762624811.855908,-0.140797,0.109677,-0.003196,0.983939,-0.001881,-0.018612,-0.007235,-0.001892,0.005871,-0.002503,0.214932,0.277773,-0.936294
1762624811.886574,-0.140847,0.109516,-0.003144,0.983950,-0.008005,-0.020713,0.006555,-0.002118,0.007588,-0.001070,0.214631,0.277862,-0.936336
1762624811.888642,-0.140943,0.109332,-0.002988,0.983958,-0.012173,-0.025338,0.014600,-0.003859,0.004947,-0.000988,0.214314,0.278017,-0.936363
1762624811.917135,-0.141025,0.109115,-0.002777,0.983971,-0.008890,-0.016752,0.016450,-0.001008,0.001392,-0.004862,0.213949,0.278134,-0.936412
1762624811.919177,-0.141088,0.108960,-0.002583,0.983979,-0.002883,-0.012221,0.013697,-0.001224,-0.000898,-0.003684,0.213699,0.278218,-0.936444
1762624811.948551,-0.141121,0.108894,-0.002423,0.983982,0.000363,-0.005451,0.017472,-0.002677,0.000367,-0.001857,0.213615,0.278250,-0.936454
1762624811.961884,-0.141107,0.108806,-0.002264,0.983994,0.005736,-0.013646,0.017656,-0.003582,0.000547,0.000103,0.213490,0.278190,-0.936500
1762624811.990868,-0.141020,0.108707,-0.002095,0.984018,0.007531,-0.011589,0.015731,-0.002407,0.000544,-0.000961,0.213349,0.277988,-0.936592
1762624812.050827,-0.140923,0.108621,-0.002015,0.984042,0.007235,-0.011799,0.014548,-0.001781,0.000207,-0.000885,0.213208,0.277786,-0.936684
1762624812.051137,-0.140826,0.108535,-0.001936,0.984065,0.006940,-0.012009,0.013365,-0.001155,-0.000129,-0.000809,0.213067,0.277583,-0.936776
1762624812.051409,-0.140728,0.108450,-0.001857,0.984089,0.006644,-0.012219,0.012182,-0.000528,-0.000466,-0.000733,0.212925,0.277381,-0.936869
1762624812.083087,-0.140619,0.108348,-0.001766,0.984116,0.011529,-0.009581,0.009813,0.000651,-0.000908,-0.003074,0.212757,0.277153,-0.936974
1762624812.083335,-0.140469,0.108259,-0.001684,0.984147,0.012369,-0.008163,0.008683,0.001395,0.000581,-0.002357,0.212613,0.276849,-0.937097
1762624812.120018,-0.140351,0.108202,-0.001606,0.984170,0.011849,-0.007314,0.006397,0.001451,-0.001390,-0.001982,0.212527,0.276607,-0.937188
1762624812.120305,-0.140201,0.108166,-0.001531,0.984196,0.014616,-0.000916,0.007340,0.001611,-0.001335,-0.001006,0.212483,0.276302,-0.937288
1762624812.148449,-0.140009,0.108149,-0.001448,0.984225,0.021283,-0.005547,0.005531,0.000462,-0.002677,0.000110,0.212480,0.275913,-0.937403
1762624812.179231,-0.139775,0.108155,-0.001421,0.984258,0.025874,-0.003597,0.000680,-0.000015,-0.001428,0.000457,0.212508,0.275457,-0.937531
1762624812.185962,-0.139527,0.108127,-0.001391,0.984296,0.021114,0.001120,0.007789,0.000504,-0.000724,-0.003141,0.212470,0.274972,-0.937682
1762624812.216256,-0.139297,0.108163,-0.001293,0.984325,0.021618,0.003064,0.011787,-0.000569,-0.001357,-0.002569,0.212575,0.274506,-0.937794
1762624812.246328,-0.139018,0.108236,-0.001123,0.984356,0.024237,0.002998,0.027433,-0.000583,0.000038,-0.001511,0.212774,0.273930,-0.937918
1762624812.246639,-0.138751,0.108349,-0.000807,0.984382,0.020383,0.010824,0.040096,-0.000460,0.000540,-0.001932,0.213090,0.273343,-0.938017
1762624812.262674,-0.138540,0.108480,-0.000315,0.984398,0.012002,0.011685,0.058646,0.000733,-0.001432,-0.001812,0.213488,0.272825,-0.938078
1762624812.286213,-0.138291,0.108689,0.000299,0.984410,0.017093,0.021738,0.073506,0.002902,-0.002316,-0.004503,0.214072,0.272204,-0.938125
1762624812.350410,-0.138079,0.109150,0.001295,0.984388,0.016116,0.026496,0.089547,0.001878,-0.000399,-0.004515,0.215249,0.271564,-0.938041
1762624812.350658,-0.137867,0.109610,0.002292,0.984364,0.015139,0.031255,0.105587,0.000854,0.001520,-0.004529,0.216425,0.270921,-0.937956
1762624812.351048,-0.137655,0.110070,0.003289,0.984340,0.014162,0.036013,0.121628,-0.000167,0.003442,-0.004543,0.217599,0.270275,-0.937871
1762624812.381723,-0.137419,0.110620,0.004536,0.984306,0.008993,0.040328,0.138159,0.001260,0.003574,-0.005101,0.219016,0.269520,-0.937759
1762624812.381884,-0.137207,0.111308,0.005839,0.984251,0.001609,0.055482,0.142137,0.000585,0.003130,-0.002885,0.220713,0.268793,-0.937569
1762624812.418945,-0.137072,0.112016,0.007168,0.984181,-0.006541,0.054057,0.138009,-0.002041,0.001947,-0.001485,0.222453,0.268202,-0.937327
1762624812.433849,-0.136968,0.112651,0.008402,0.984113,0.000196,0.047541,0.120032,-0.003078,0.000152,0.000413,0.224025,0.267691,-0.937099
1762624812.464088,-0.136848,0.113110,0.009406,0.984068,0.005091,0.023526,0.087694,-0.004654,-0.002396,0.000612,0.225189,0.267208,-0.936958
1762624812.466211,-0.136733,0.113382,0.010173,0.984045,0.005287,0.019492,0.072295,-0.001865,-0.004033,-0.005284,0.225928,0.266795,-0.936897
1762624812.494559,-0.136577,0.113644,0.010749,0.984031,0.018553,0.019014,0.059721,-0.004471,-0.008423,-0.004841,0.226594,0.266349,-0.936864
1762624812.502183,-0.136214,0.113829,0.011249,0.984054,0.041012,0.015740,0.053441,-0.001773,-0.009032,-0.008961,0.227093,0.265523,-0.936977
1762624812.542777,-0.135665,0.114128,0.011649,0.984091,0.053833,0.039441,0.051375,-0.000580,-0.007045,-0.011034,0.227785,0.264354,-0.937140
1762624812.544921,-0.135003,0.114482,0.012068,0.984135,0.068424,0.022275,0.064787,-0.000691,-0.007486,-0.007021,0.228589,0.262960,-0.937336
1762624812.573243,-0.134207,0.114877,0.012682,0.984190,0.079012,0.035126,0.077531,0.000368,-0.011662,-0.012167,0.229526,0.261256,-0.937584
1762624812.581002,-0.133126,0.115325,0.013297,0.984277,0.108279,0.044287,0.080687,0.001928,-0.002188,-0.006991,0.230564,0.258998,-0.937955
1762624812.611306,-0.132008,0.115895,0.014114,0.984349,0.091722,0.044887,0.129722,0.002597,0.013210,0.002281,0.231889,0.256613,-0.938284
1762624812.654246,-0.131225,0.116582,0.015647,0.984349,0.085075,0.036428,0.121943,-0.005973,-0.004599,0.001957,0.233622,0.254694,-0.938377
1762624812.654555,-0.130441,0.117269,0.017180,0.984346,0.078428,0.027969,0.114164,-0.014537,-0.022401,0.001628,0.235349,0.252768,-0.938466
1762624812.661098,-0.129414,0.117510,0.017947,0.984440,0.113403,-0.015165,0.037643,-0.012118,-0.018411,0.004934,0.236008,0.250582,-0.938887
1762624812.716575,-0.128310,0.117153,0.017685,0.984631,0.124716,-0.037875,-0.006149,-0.008313,-0.014637,0.001695,0.235244,0.248533,-0.939623
1762624812.716858,-0.127207,0.116796,0.017423,0.984821,0.136030,-0.060584,-0.049941,-0.004509,-0.010861,-0.001549,0.234480,0.246482,-0.940354
1762624812.718648,-0.125803,0.116039,0.016860,0.985101,0.159290,-0.086393,-0.056828,0.000682,-0.004735,-0.000166,0.232861,0.243945,-0.941417
1762624812.747156,-0.124231,0.115142,0.016230,0.985416,0.152950,-0.079754,-0.049950,0.002559,0.006311,0.002124,0.230958,0.241102,-0.942618
1762624812.777103,-0.122954,0.114413,0.015737,0.985669,0.109508,-0.069195,-0.039894,-0.000757,0.013056,0.004437,0.229417,0.238782,-0.943584
1762624812.778261,-0.122127,0.113756,0.015394,0.985854,0.073765,-0.062427,-0.030522,0.001979,0.002570,-0.000178,0.228053,0.237296,-0.944289
1762624812.809155,-0.121358,0.113136,0.014755,0.986030,0.109307,-0.058344,-0.104822,-0.001838,-0.011732,-0.002061,0.226693,0.235987,-0.944945
1762624812.838760,-0.120392,0.112386,0.013504,0.986252,0.119357,-0.078335,-0.141735,-0.003030,-0.000163,0.005422,0.224934,0.234438,-0.945750
1762624812.852145,-0.119560,0.111411,0.012074,0.986482,0.096169,-0.093431,-0.138963,-0.000256,0.005270,0.003600,0.222696,0.233197,-0.946586
1762624812.880973,-0.118962,0.110483,0.010803,0.986674,0.070447,-0.077137,-0.119229,0.002361,-0.001742,-0.004457,0.220591,0.232366,-0.947283
1762624812.881323,-0.118229,0.109682,0.009521,0.986864,0.102237,-0.069924,-0.152828,0.000173,-0.011648,-0.007446,0.218734,0.231263,-0.947984
1762624812.911624,-0.117174,0.108793,0.007696,0.987104,0.147551,-0.085233,-0.193904,-0.004228,-0.003175,0.000719,0.216584,0.229652,-0.948868
1762624812.952730,-0.116132,0.107822,0.006013,0.987346,0.126744,-0.079534,-0.159525,-0.001124,-0.004702,-0.001398,0.214313,0.228029,-0.949775
1762624812.952979,-0.115089,0.106851,0.004330,0.987582,0.105936,-0.073835,-0.125147,0.001977,-0.006218,-0.003523,0.212045,0.226395,-0.950674
1762624812.988079,-0.113851,0.106175,0.002898,0.987804,0.129640,-0.071096,-0.130617,-0.000132,-0.005339,0.000223,0.210420,0.224309,-0.951530
1762624812.988408,-0.112612,0.105498,0.001466,0.988022,0.153343,-0.068357,-0.136086,-0.002246,-0.004454,0.003963,0.208799,0.222216,-0.952378
1762624813.017145,-0.111374,0.104761,0.000022,0.988241,0.135520,-0.071959,-0.129038,-0.000935,0.003709,0.000643,0.207063,0.220123,-0.953242
1762624813.021098,-0.110350,0.104054,-0.001205,0.988430,0.108346,-0.067211,-0.103630,0.001177,0.002216,-0.002784,0.205434,0.218398,-0.953991
1762624813.051268,-0.109455,0.103579,-0.002178,0.988578,0.076924,-0.026848,-0.090026,0.003329,0.005031,-0.005755,0.204314,0.216861,-0.954582
1762624813.082383,-0.108903,0.103267,-0.003013,0.988669,0.043235,-0.023350,-0.076372,-0.001808,0.007964,-0.000464,0.203537,0.215960,-0.954952
1762624813.082635,-0.108728,0.102997,-0.003672,0.988714,0.015197,-0.027182,-0.065654,-0.005272,0.009061,0.003397,0.202871,0.215759,-0.955139
1762624813.111779,-0.108818,0.102653,-0.004285,0.988738,-0.008152,-0.038291,-0.057137,-0.004943,0.011323,0.003491,0.202061,0.216065,-0.955242
1762624813.140939,-0.109076,0.102281,-0.004713,0.988746,-0.024251,-0.038479,-0.039982,-0.004426,0.008616,0.002379,0.201231,0.216661,-0.955282
1762624813.142820,-0.109456,0.101862,-0.004995,0.988746,-0.026829,-0.038573,-0.027196,-0.002022,0.000711,-0.000540,0.200338,0.217465,-0.955287
1762624813.172088,-0.109824,0.101484,-0.005118,0.988743,-0.029246,-0.031384,-0.007724,-0.000309,-0.001325,-0.001432,0.199560,0.218213,-0.955279
1762624813.179881,-0.110209,0.101153,-0.005009,0.988735,-0.036108,-0.033697,0.025048,0.000751,0.001194,-0.002286,0.198923,0.218948,-0.955244
1762624813.210429,-0.110705,0.101016,-0.004402,0.988697,-0.066209,-0.008884,0.087162,0.003984,0.006396,-0.002815,0.198774,0.219796,-0.955080
1762624813.250676,-0.111595,0.101481,-0.002315,0.988556,-0.099207,0.025956,0.179105,0.004386,0.008410,-0.004404,0.200123,0.221106,-0.954496
1762624813.251116,-0.112485,0.101945,-0.000228,0.988410,-0.132206,0.060797,0.271049,0.004782,0.010430,-0.005997,0.201476,0.222409,-0.953908
1762624813.279803,-0.113491,0.102908,0.002429,0.988192,-0.130105,0.090435,0.276014,-0.001734,0.013321,-0.003935,0.203938,0.223802,-0.953059
1762624813.281769,-0.114514,0.104071,0.005167,0.987942,-0.126541,0.080932,0.280017,-0.011395,0.009979,-0.000445,0.206815,0.225190,-0.952112
1762624813.326972,-0.114845,0.104692,0.007442,0.987823,-0.048528,0.053913,0.214825,-0.007924,-0.005632,-0.001819,0.208544,0.225334,-0.951701
1762624813.327249,-0.115175,0.105313,0.009717,0.987699,0.029485,0.026895,0.149633,-0.004452,-0.021234,-0.003195,0.210274,0.225469,-0.951288
1762624813.355819,-0.114693,0.105479,0.011075,0.987723,0.070468,-0.004652,0.101484,-0.003159,-0.015217,0.000977,0.210908,0.224234,-0.951439
1762624813.357065,-0.114016,0.105352,0.011921,0.987805,0.065448,-0.018659,0.088585,0.002779,-0.007239,-0.001802,0.210853,0.222738,-0.951803
1762624813.388258,-0.113342,0.105266,0.012619,0.987883,0.059388,0.003735,0.055950,0.006701,-0.017518,-0.010716,0.210841,0.221280,-0.952146
1762624813.418094,-0.112502,0.105327,0.012878,0.987970,0.076801,0.012501,0.008531,0.002571,-0.013686,-0.004915,0.211017,0.219584,-0.952499
1762624813.436802,-0.111647,0.105340,0.012726,0.988067,0.079194,-0.005179,-0.019640,-0.000532,-0.003000,0.000963,0.211008,0.217948,-0.952877
1762624813.437042,-0.110976,0.105291,0.012466,0.988151,0.051875,0.001392,-0.013822,0.000557,0.007169,-0.000456,0.210854,0.216696,-0.953196
1762624813.464884,-0.110544,0.105361,0.012393,0.988193,0.018130,0.004892,0.004095,-0.002372,0.010069,0.000972,0.210973,0.215866,-0.953358
1762624813.494778,-0.110366,0.105408,0.012562,0.988206,0.002424,-0.003265,0.020048,-0.001536,0.002497,-0.000722,0.211102,0.215480,-0.953417
1762624813.495804,-0.110298,0.105414,0.012838,0.988209,0.002024,-0.003469,0.027666,-0.000800,-0.001080,-0.002089,0.211174,0.215288,-0.953444
1762624813.563126,-0.110287,0.105401,0.013094,0.988208,0.000540,-0.003627,0.027201,-0.001264,-0.000673,-0.001645,0.211204,0.215213,-0.953455
1762624813.563446,-0.110277,0.105387,0.013350,0.988208,-0.000943,-0.003785,0.026737,-0.001728,-0.000267,-0.001200,0.211233,0.215138,-0.953465
1762624813.564068,-0.110286,0.105349,0.013657,0.988206,-0.006130,-0.007251,0.030825,-0.001704,-0.002187,-0.001888,0.211226,0.215093,-0.953477
1762624813.621871,-0.110219,0.105347,0.014054,0.988209,0.007084,-0.000179,0.028257,-0.000711,-0.007912,-0.005871,0.211308,0.214878,-0.953507
1762624813.622156,-0.110152,0.105345,0.014452,0.988211,0.020299,0.006893,0.025690,0.000282,-0.013637,-0.009853,0.211390,0.214663,-0.953538
1762624813.622979,-0.109899,0.105450,0.014678,0.988224,0.026642,0.011394,0.016442,-0.001363,-0.010276,-0.006363,0.211643,0.214115,-0.953605
1762624813.655304,-0.109632,0.105535,0.014789,0.988243,0.020563,0.005449,0.012684,-0.001196,-0.006944,-0.004800,0.211830,0.213564,-0.953687
1762624813.657401,-0.109403,0.105631,0.014879,0.988257,0.013715,0.015323,0.004370,-0.001035,-0.011473,-0.007403,0.212037,0.213093,-0.953746
1762624813.686197,-0.109081,0.105777,0.014822,0.988278,0.024198,0.015200,-0.010636,-0.000433,-0.009536,-0.004901,0.212307,0.212468,-0.953825
1762624813.716450,-0.108809,0.105964,0.014615,0.988291,0.018675,0.030203,-0.019299,0.000145,-0.004021,-0.005285,0.212626,0.211973,-0.953864
1762624813.729640,-0.108689,0.106259,0.014404,0.988275,0.000629,0.031146,-0.009708,-0.003530,0.001481,-0.000840,0.213157,0.211768,-0.953792
1762624813.766764,-0.108736,0.106438,0.014283,0.988253,-0.006036,0.024681,-0.011042,-0.003105,0.000019,-0.001184,0.213481,0.211877,-0.953695
1762624813.767021,-0.108783,0.106617,0.014163,0.988230,-0.012701,0.018216,-0.012377,-0.002679,-0.001443,-0.001529,0.213806,0.211986,-0.953598
1762624813.795860,-0.108891,0.106767,0.014045,0.988204,-0.012166,0.015403,-0.012346,-0.000741,-0.000964,-0.001890,0.214075,0.212214,-0.953487
1762624813.797847,-0.109025,0.106882,0.013917,0.988178,-0.009897,0.012830,-0.010948,-0.001795,0.000233,0.001124,0.214271,0.212497,-0.953380
