timestamp,quat_x,quat_y,quat_z,quat_w,rot_x,rot_y,rot_z,acc_x,acc_y,acc_z,grav_x,grav_y,grav_z
1762621607.551927,0.071366,0.613250,-0.000000,0.786658,-0.019016,-0.049808,0.057930,-0.844808,0.306881,-0.736208,0.964837,-0.112281,-0.237662
1762621607.552277,0.017306,0.441698,-0.104478,0.890892,-0.019904,-0.050799,0.045375,-0.672199,0.131511,-0.366968,0.790626,0.061460,-0.609208
1762621607.552493,-0.037690,0.246234,-0.203301,0.946899,-0.020792,-0.051790,0.032820,-0.334169,0.019845,-0.102585,0.450993,0.171497,-0.875896
1762621607.582393,-0.056007,0.176935,-0.234174,0.954316,-0.026285,-0.047221,0.020886,-0.196724,0.002280,-0.047157,0.311473,0.189763,-0.931115
1762621607.582551,-0.073979,0.106548,-0.263608,0.955869,-0.031778,-0.042651,0.008952,-0.052014,-0.004857,-0.011712,0.164688,0.197602,-0.966349
1762621607.611278,-0.077163,0.083604,-0.272011,0.955545,-0.056319,-0.052263,0.009062,-0.009966,0.010222,0.002176,0.117796,0.192948,-0.974112
1762621607.643234,-0.076200,0.082800,-0.271815,0.955748,-0.058238,-0.051765,0.020778,-0.008737,0.012142,0.002563,0.116848,0.190668,-0.974675
1762621607.643475,-0.075236,0.081996,-0.271620,0.955949,-0.060157,-0.051268,0.032493,-0.007506,0.014062,0.002943,0.115898,0.188388,-0.975232
1762621607.673085,-0.077045,0.080808,-0.270987,0.956086,-0.042760,-0.051244,0.038563,-0.003157,0.006674,-0.006828,0.112763,0.191120,-0.975068
1762621607.677863,-0.079471,0.080342,-0.270378,0.956099,-0.041078,-0.027910,0.053738,-0.004344,-0.002724,-0.005521,0.110655,0.195409,-0.974459
1762621607.705923,-0.080293,0.080282,-0.270098,0.956114,-0.030645,-0.034743,0.035154,-0.008498,-0.000982,-0.001502,0.110144,0.196906,-0.974216
1762621607.736849,-0.080721,0.080154,-0.269947,0.956132,-0.032051,-0.024357,0.023259,-0.005029,0.000814,-0.006088,0.109695,0.197635,-0.974119
1762621607.737562,-0.081149,0.080026,-0.269797,0.956149,-0.033457,-0.013972,0.011364,-0.001561,0.002609,-0.010675,0.109247,0.198363,-0.974021
1762621607.767358,-0.081587,0.080280,-0.269758,0.956101,-0.069937,0.041464,-0.004237,-0.004427,0.004327,-0.007784,0.109495,0.199324,-0.973797
1762621607.798789,-0.081818,0.080370,-0.269836,0.956052,-0.070722,0.040058,-0.010947,-0.007147,0.005943,-0.000441,0.109521,0.199818,-0.973693
1762621607.799212,-0.082048,0.080460,-0.269914,0.956002,-0.071507,0.038652,-0.017656,-0.009867,0.007559,0.006902,0.109547,0.200311,-0.973589
1762621607.847540,-0.082917,0.080786,-0.270409,0.955760,-0.068088,0.026716,-0.030095,-0.008475,0.016316,0.004248,0.109582,0.202188,-0.973197
1762621607.847792,-0.083442,0.081009,-0.270650,0.955627,-0.072258,0.031142,-0.017466,-0.006746,0.021534,0.006892,0.109662,0.203330,-0.972950
1762621607.878112,-0.083997,0.081096,-0.270736,0.955547,-0.066841,0.023906,-0.010648,-0.005064,0.020451,0.007248,0.109501,0.204438,-0.972736
1762621607.878413,-0.084551,0.081183,-0.270822,0.955466,-0.061424,0.016670,-0.003830,-0.003381,0.019369,0.007603,0.109339,0.205545,-0.972521
1762621607.908371,-0.085794,0.081332,-0.270696,0.955378,-0.029553,0.007745,0.013877,-0.003452,0.011296,0.011805,0.108958,0.207965,-0.972049
1762621607.939244,-0.086287,0.081327,-0.270658,0.955345,-0.011077,-0.003504,0.004031,-0.001193,0.008203,0.006656,0.108682,0.208891,-0.971881
1762621607.939567,-0.086780,0.081322,-0.270621,0.955312,0.007399,-0.014754,-0.005816,0.001066,0.005111,0.001506,0.108406,0.209818,-0.971712
1762621607.974546,-0.087368,0.081425,-0.270834,0.955189,0.010198,0.017878,-0.013598,0.001747,0.007984,-0.004160,0.108228,0.211010,-0.971474
1762621607.977719,-0.087625,0.081779,-0.271127,0.955052,0.007100,0.027489,-0.020730,0.000467,0.007227,-0.000611,0.108691,0.211717,-0.971268
1762621608.006187,-0.087651,0.081944,-0.271356,0.954971,0.003680,0.028164,-0.026294,0.001812,0.006229,-0.002465,0.108939,0.211879,-0.971205
1762621608.037089,-0.087682,0.082172,-0.271557,0.954891,0.000442,0.034119,-0.026270,0.002489,0.005866,-0.002179,0.109308,0.212083,-0.971119
1762621608.037386,-0.087714,0.082400,-0.271758,0.954811,-0.002795,0.040074,-0.026245,0.003167,0.005503,-0.001894,0.109678,0.212286,-0.971033
1762621608.086239,-0.087754,0.082895,-0.272129,0.954659,0.009712,0.037952,-0.021638,0.004124,0.001535,0.001065,0.110513,0.212667,-0.970855
1762621608.086642,-0.087726,0.083032,-0.272252,0.954614,0.013801,0.035342,-0.024483,0.003641,0.001695,0.001583,0.110761,0.212701,-0.970819
1762621608.152982,-0.087595,0.083442,-0.272601,0.954491,0.010352,0.023865,-0.013811,0.002878,0.004337,0.002127,0.111532,0.212709,-0.970729
1762621608.153317,-0.087550,0.083641,-0.272724,0.954443,0.003965,0.018927,-0.011998,0.002520,0.004899,0.001620,0.111907,0.212744,-0.970679
1762621608.153590,-0.087505,0.083839,-0.272847,0.954394,-0.002421,0.013988,-0.010186,0.002161,0.005461,0.001112,0.112281,0.212779,-0.970628
1762621608.156631,-0.087624,0.084115,-0.272971,0.954324,-0.009091,-0.003644,-0.002839,0.004573,0.002187,0.001303,0.112709,0.213165,-0.970493
1762621608.200937,-0.087706,0.084140,-0.272966,0.954315,-0.006780,-0.006636,-0.000360,0.004453,0.001220,0.000391,0.112710,0.213333,-0.970456
1762621608.201230,-0.087789,0.084164,-0.272961,0.954307,-0.004469,-0.009627,0.002119,0.004333,0.000253,-0.000520,0.112711,0.213501,-0.970419
1762621608.230730,-0.087937,0.084121,-0.272884,0.954319,-0.002567,-0.004899,0.005470,0.004626,0.000630,-0.001432,0.112563,0.213750,-0.970381
1762621608.237623,-0.087990,0.084236,-0.272767,0.954338,0.002033,-0.001116,0.008556,0.002638,-0.002746,0.003624,0.112778,0.213897,-0.970324
1762621608.267844,-0.087940,0.084254,-0.272730,0.954351,0.005951,-0.005823,0.000683,0.002500,-0.001982,0.002059,0.112849,0.213808,-0.970336
1762621608.298283,-0.087899,0.084254,-0.272757,0.954347,0.004036,-0.001264,-0.001593,0.002643,-0.000438,0.000250,0.112865,0.213735,-0.970350
1762621608.298542,-0.087859,0.084255,-0.272785,0.954343,0.002120,0.003295,-0.003870,0.002785,0.001107,-0.001560,0.112882,0.213663,-0.970364
1762621608.338254,-0.087818,0.084266,-0.272860,0.954324,0.002692,-0.010926,-0.011489,-0.000800,-0.000610,0.000750,0.112910,0.213598,-0.970375
1762621608.338554,-0.087811,0.084223,-0.272917,0.954312,0.000638,-0.011693,-0.013164,-0.000611,0.000783,-0.000688,0.112820,0.213569,-0.970392
1762621608.371600,-0.087834,0.084138,-0.273034,0.954284,-0.007814,0.003798,0.002471,0.003815,0.006039,-0.007410,0.112620,0.213581,-0.970412
1762621608.436935,-0.087943,0.084216,-0.272927,0.954298,-0.007723,-0.003018,0.001176,0.002892,0.005796,-0.004767,0.112731,0.213818,-0.970347
1762621608.437264,-0.088053,0.084295,-0.272821,0.954311,-0.007633,-0.009835,-0.000120,0.001970,0.005554,-0.002124,0.112842,0.214054,-0.970282
1762621608.437693,-0.088162,0.084373,-0.272714,0.954325,-0.007542,-0.016651,-0.001415,0.001048,0.005312,0.000519,0.112953,0.214290,-0.970217
1762621608.438082,-0.088271,0.084452,-0.272608,0.954338,-0.007452,-0.023467,-0.002710,0.000126,0.005070,0.003162,0.113064,0.214526,-0.970152
1762621608.471859,-0.088721,0.084364,-0.272550,0.954321,-0.025898,-0.008152,0.001373,-0.000669,0.004058,0.001695,0.112658,0.215323,-0.970023
1762621608.476699,-0.089148,0.084192,-0.272553,0.954295,-0.018413,-0.026767,-0.008082,-0.004866,0.005967,0.004429,0.112093,0.216040,-0.969929
1762621608.508103,-0.089335,0.084108,-0.272539,0.954289,-0.017416,-0.028370,-0.000249,-0.004626,0.006354,0.003214,0.111832,0.216348,-0.969890
1762621608.537676,-0.089533,0.083999,-0.272479,0.954297,-0.017018,-0.022550,0.007821,-0.003682,0.007235,-0.000762,0.111529,0.216658,-0.969856
1762621608.537995,-0.089731,0.083890,-0.272418,0.954306,-0.016621,-0.016730,0.015891,-0.002739,0.008117,-0.004739,0.111225,0.216968,-0.969822
1762621608.568653,-0.090089,0.083823,-0.272124,0.954362,-0.019490,-0.000201,0.016197,0.002328,0.005579,-0.006230,0.110965,0.217576,-0.969715
1762621608.599844,-0.090262,0.083912,-0.272042,0.954361,-0.022147,0.007071,0.012415,0.001828,0.004841,-0.005944,0.111056,0.217940,-0.969623
1762621608.600153,-0.090434,0.084002,-0.271959,0.954360,-0.024804,0.014344,0.008632,0.001328,0.004102,-0.005658,0.111147,0.218304,-0.969531
1762621608.641667,-0.090782,0.084209,-0.272010,0.954294,-0.012237,0.008365,-0.012383,-0.001535,0.000353,0.001395,0.111333,0.219077,-0.969335
1762621608.642002,-0.090850,0.084255,-0.272080,0.954264,-0.007366,0.004557,-0.017757,-0.001498,0.002165,0.001661,0.111367,0.219239,-0.969294
1762621608.672232,-0.090914,0.084404,-0.272305,0.954180,-0.000121,0.012946,-0.010660,0.001317,0.008296,-0.000212,0.111560,0.219464,-0.969221
1762621608.678719,-0.090910,0.084557,-0.272403,0.954140,-0.002534,0.010085,-0.002098,0.001393,0.008907,0.002845,0.111830,0.219549,-0.969171
1762621608.708736,-0.090943,0.084647,-0.272408,0.954127,-0.004947,0.012357,0.001572,0.002760,0.007619,-0.000040,0.111982,0.219660,-0.969128
1762621608.753181,-0.091018,0.084750,-0.272424,0.954106,-0.003442,0.010148,-0.002061,0.003381,0.005440,0.000193,0.112129,0.219858,-0.969066
1762621608.753497,-0.091093,0.084852,-0.272439,0.954085,-0.001938,0.007939,-0.005694,0.004002,0.003260,0.000427,0.112276,0.220055,-0.969004
1762621608.786915,-0.091283,0.085009,-0.272574,0.954015,-0.007698,0.001130,-0.013829,0.005178,0.002641,-0.000736,0.112436,0.220513,-0.968882
1762621608.816168,-0.091383,0.085037,-0.272672,0.953975,-0.008239,0.000832,-0.015283,0.004681,0.003048,-0.001063,0.112412,0.220728,-0.968836
1762621608.816487,-0.091483,0.085066,-0.272770,0.953935,-0.008780,0.000533,-0.016737,0.004184,0.003455,-0.001391,0.112387,0.220944,-0.968789
1762621608.816870,-0.091582,0.085094,-0.272868,0.953895,-0.009321,0.000235,-0.018192,0.003686,0.003861,-0.001719,0.112363,0.221159,-0.968743
1762621608.848163,-0.091728,0.085149,-0.273002,0.953837,-0.003561,-0.004459,-0.002956,0.003018,0.000746,0.002113,0.112352,0.221479,-0.968671
1762621608.877359,-0.091745,0.085138,-0.272977,0.953844,0.002076,-0.009905,0.001443,0.001950,0.000260,0.004508,0.112328,0.221503,-0.968669
1762621608.877655,-0.091762,0.085127,-0.272953,0.953850,0.007713,-0.015351,0.005842,0.000882,-0.000225,0.006904,0.112304,0.221527,-0.968666
1762621608.908640,-0.091799,0.084876,-0.272912,0.953881,-0.002104,-0.021278,-0.003037,0.001533,0.004147,0.000658,0.111817,0.221457,-0.968738
1762621608.939471,-0.091935,0.084740,-0.272884,0.953888,-0.011102,-0.031497,0.001004,0.000989,0.003199,0.001292,0.111490,0.221640,-0.968734
1762621608.939871,-0.092072,0.084605,-0.272855,0.953895,-0.020100,-0.041716,0.005046,0.000446,0.002250,0.001926,0.111164,0.221823,-0.968730
1762621608.975903,-0.092560,0.084200,-0.272683,0.953932,-0.021319,-0.034978,0.007633,0.001851,0.002081,-0.004189,0.110163,0.222512,-0.968686
1762621608.976154,-0.092741,0.084059,-0.272594,0.953953,-0.019054,-0.025819,0.012290,0.003461,0.003202,-0.007970,0.109816,0.222769,-0.968666
1762621609.007715,-0.093101,0.084038,-0.272234,0.954022,-0.024445,-0.008638,0.024453,-0.000152,0.006732,-0.003839,0.109657,0.223397,-0.968540
1762621609.048730,-0.093442,0.083987,-0.271960,0.954071,-0.032449,-0.016522,0.021091,0.000415,0.005139,-0.001336,0.109434,0.223983,-0.968430
1762621609.048732,-0.093783,0.083936,-0.271686,0.954121,-0.040453,-0.024406,0.017728,0.000981,0.003546,0.001167,0.109211,0.224568,-0.968319
1762621609.091136,-0.094256,0.083825,-0.271486,0.954141,-0.036944,-0.029773,0.013354,0.000083,0.001390,0.002223,0.108784,0.225382,-0.968178
1762621609.091380,-0.094730,0.083715,-0.271286,0.954160,-0.033435,-0.035140,0.008981,-0.000814,-0.000766,0.003279,0.108357,0.226196,-0.968036
1762621609.122503,-0.095480,0.083210,-0.271099,0.954183,-0.015111,-0.041661,-0.002258,-0.000461,0.002455,-0.000558,0.107026,0.227327,-0.967919
1762621609.122790,-0.095660,0.083033,-0.271047,0.954195,-0.012660,-0.043483,0.004904,-0.003092,0.004325,0.001814,0.106603,0.227569,-0.967909
1762621609.152995,-0.095828,0.082832,-0.270957,0.954221,-0.014238,-0.040823,0.010976,-0.004582,0.005782,0.000552,0.106150,0.227771,-0.967911
1762621609.201714,-0.096167,0.082322,-0.270694,0.954306,-0.010416,-0.025657,0.010873,0.003423,0.004696,-0.010900,0.105058,0.228114,-0.967950
1762621609.202057,-0.096315,0.082297,-0.270594,0.954321,-0.013109,-0.015996,0.008775,0.000282,0.002610,-0.007070,0.104951,0.228369,-0.967901
1762621609.202324,-0.096463,0.082272,-0.270494,0.954337,-0.015801,-0.006334,0.006676,-0.002860,0.000524,-0.003239,0.104845,0.228624,-0.967853
1762621609.229819,-0.096607,0.082271,-0.270477,0.954327,-0.010913,-0.007980,-0.003991,-0.003537,-0.000680,-0.000076,0.104766,0.228893,-0.967797
1762621609.265116,-0.096836,0.082208,-0.270605,0.954273,-0.012230,-0.000269,-0.014455,-0.000536,0.003095,-0.003035,0.104489,0.229308,-0.967729
1762621609.275586,-0.096928,0.082261,-0.270756,0.954217,-0.011050,0.002926,-0.015122,-0.000404,0.002332,-0.002287,0.104502,0.229525,-0.967676
1762621609.276686,-0.097019,0.082314,-0.270906,0.954160,-0.009870,0.006120,-0.015790,-0.000272,0.001570,-0.001539,0.104515,0.229742,-0.967623
1762621609.309566,-0.097061,0.082349,-0.271024,0.954119,-0.007899,0.003017,-0.019366,-0.002012,0.003389,0.001734,0.104530,0.229853,-0.967595
1762621609.349296,-0.097236,0.082393,-0.271345,0.954007,-0.015814,0.002397,-0.024931,0.000015,0.005094,-0.002350,0.104437,0.230241,-0.967513
1762621609.354024,-0.097420,0.082468,-0.271717,0.953875,-0.015247,0.007333,-0.037012,-0.000451,0.002693,-0.001250,0.104387,0.230670,-0.967417
1762621609.385030,-0.097552,0.082516,-0.272059,0.953760,-0.011543,0.008692,-0.043969,-0.000273,0.001628,-0.000756,0.104320,0.230981,-0.967350
1762621609.385534,-0.097683,0.082563,-0.272402,0.953645,-0.007839,0.010052,-0.050927,-0.000094,0.000563,-0.000261,0.104253,0.231291,-0.967283
1762621609.437085,-0.097746,0.082603,-0.272805,0.953520,-0.005344,0.012444,-0.051027,0.000780,0.001497,-0.000997,0.104196,0.231475,-0.967245
1762621609.437474,-0.097809,0.082643,-0.273207,0.953395,-0.002849,0.014836,-0.051127,0.001654,0.002431,-0.001732,0.104139,0.231658,-0.967207
1762621609.438040,-0.097871,0.082683,-0.273610,0.953269,-0.000353,0.017227,-0.051228,0.002528,0.003365,-0.002468,0.104082,0.231841,-0.967169
1762621609.467416,-0.097844,0.082951,-0.274446,0.953008,0.006330,0.021452,-0.048964,0.000232,0.000647,0.002752,0.104401,0.232023,-0.967092
1762621609.475389,-0.097750,0.082942,-0.275073,0.952838,0.012656,-0.004521,-0.038768,0.001611,0.001582,-0.000378,0.104284,0.231911,-0.967131
1762621609.505200,-0.097722,0.082968,-0.275326,0.952766,0.003254,0.008267,-0.027005,0.001836,0.003910,-0.001013,0.104287,0.231899,-0.967133
1762621609.535771,-0.097744,0.082976,-0.275453,0.952726,0.001151,-0.003292,-0.019738,-0.000784,0.002594,0.001889,0.104258,0.231959,-0.967122
1762621609.536134,-0.097767,0.082984,-0.275581,0.952686,-0.000952,-0.014852,-0.012470,-0.003403,0.001277,0.004790,0.104229,0.232019,-0.967111
1762621609.566095,-0.097849,0.082632,-0.275655,0.952687,-0.000252,-0.019468,0.005012,0.001647,0.002225,-0.001659,0.103500,0.231994,-0.967195
1762621609.601270,-0.097913,0.082501,-0.275460,0.952748,0.001045,0.003672,0.012758,0.003598,0.000961,-0.008112,0.103263,0.232024,-0.967213
1762621609.601552,-0.097916,0.082546,-0.275366,0.952771,-0.002248,-0.000397,0.015433,-0.000266,0.001725,-0.001301,0.103370,0.232043,-0.967197
1762621609.648502,-0.098059,0.082495,-0.275226,0.952801,-0.010609,-0.008999,0.014958,-0.000352,0.003296,0.000072,0.103226,0.232271,-0.967158
1762621609.648849,-0.098202,0.082444,-0.275085,0.952831,-0.018970,-0.017600,0.014483,-0.000438,0.004867,0.001444,0.103083,0.232498,-0.967119
1762621609.703006,-0.098595,0.082409,-0.274730,0.952896,-0.029519,-0.007934,0.028347,-0.000072,0.001457,0.002620,0.102880,0.233181,-0.966976
1762621609.703347,-0.098731,0.082319,-0.274622,0.952921,-0.016664,-0.016264,0.014577,-0.001407,0.001615,0.001014,0.102660,0.233379,-0.966951
1762621609.703710,-0.098868,0.082230,-0.274515,0.952946,-0.003809,-0.024594,0.000808,-0.002743,0.001772,-0.000592,0.102439,0.233577,-0.966927
1762621609.732051,-0.098949,0.082104,-0.274476,0.952959,-0.002859,-0.020491,0.002136,-0.001340,0.003921,-0.000440,0.102166,0.233659,-0.966936
1762621609.763304,-0.099160,0.081863,-0.274337,0.952998,-0.013508,-0.017343,0.008584,-0.002729,0.006010,-0.002817,0.101624,0.233915,-0.966932
1762621609.795016,-0.099257,0.081799,-0.274329,0.952995,-0.013276,-0.010216,0.005036,-0.000831,0.004180,-0.005432,0.101450,0.234064,-0.966914
1762621609.795332,-0.099355,0.081736,-0.274322,0.952993,-0.013043,-0.003090,0.001487,0.001066,0.002351,-0.008048,0.101277,0.234213,-0.966896
1762621609.795751,-0.099452,0.081672,-0.274315,0.952990,-0.012810,0.004037,-0.002061,0.002963,0.000521,-0.010663,0.101103,0.234362,-0.966878
1762621609.826362,-0.099626,0.081900,-0.274346,0.952943,-0.003673,0.004705,-0.008122,-0.000585,-0.001123,0.001232,0.101429,0.234813,-0.966734
1762621609.866114,-0.099547,0.081947,-0.274444,0.952920,0.004278,0.008577,-0.008587,0.000252,-0.002015,-0.000703,0.101538,0.234701,-0.966750
1762621609.866449,-0.099469,0.081995,-0.274541,0.952896,0.012229,0.012450,-0.009052,0.001088,-0.002907,-0.002637,0.101648,0.234588,-0.966766
1762621609.901052,-0.099102,0.082203,-0.274726,0.952863,0.027720,0.023624,-0.007115,-0.000125,0.000196,0.001121,0.102205,0.234027,-0.966843
1762621609.901479,-0.098880,0.082228,-0.274834,0.952852,0.025224,0.018428,-0.011104,0.000689,0.001436,-0.001232,0.102351,0.233633,-0.966923
1762621609.948414,-0.098738,0.082300,-0.274905,0.952840,0.015764,0.017598,-0.007854,0.001642,0.000774,-0.001359,0.102551,0.233413,-0.966955
1762621609.948735,-0.098596,0.082373,-0.274976,0.952828,0.006304,0.016769,-0.004605,0.002594,0.000111,-0.001486,0.102752,0.233192,-0.966987
1762621609.980898,-0.098477,0.082527,-0.275140,0.952780,0.000395,0.000720,-0.013163,0.000267,-0.003319,0.003306,0.103071,0.233067,-0.966983
1762621609.981189,-0.098495,0.082508,-0.275223,0.952756,-0.000043,-0.001929,-0.015787,0.000509,-0.001531,0.001461,0.103003,0.233100,-0.966982
1762621610.011072,-0.098542,0.082440,-0.275307,0.952732,-0.001378,-0.009103,-0.015369,-0.000078,0.000585,0.001695,0.102828,0.233162,-0.966986
1762621610.042384,-0.098668,0.082275,-0.275405,0.952705,-0.004226,-0.009884,0.005440,0.001159,0.002893,-0.000753,0.102421,0.233320,-0.966991
1762621610.042624,-0.098696,0.082234,-0.275365,0.952718,-0.003058,-0.006384,0.005445,0.000742,-0.000855,-0.001564,0.102336,0.233348,-0.966993
1762621610.071838,-0.098670,0.082242,-0.275319,0.952733,0.001832,-0.004894,0.005386,0.000012,-0.001059,-0.000027,0.102377,0.233298,-0.967001
1762621610.103962,-0.098571,0.082160,-0.275265,0.952766,0.012803,-0.004274,0.002179,-0.000323,-0.000621,0.000681,0.102293,0.233062,-0.967067
1762621610.133621,-0.098539,0.082144,-0.275255,0.952773,0.007699,-0.004504,0.003263,-0.001536,-0.000216,0.000474,0.102282,0.232992,-0.967085
1762621610.134107,-0.098507,0.082127,-0.275245,0.952781,0.002595,-0.004734,0.004347,-0.002750,0.000189,0.000268,0.102271,0.232922,-0.967103
1762621610.134458,-0.098476,0.082110,-0.275235,0.952789,-0.002508,-0.004965,0.005430,-0.003963,0.000594,0.000061,0.102260,0.232852,-0.967121
1762621610.166224,-0.098542,0.081870,-0.275208,0.952810,-0.003816,-0.011406,0.005089,0.002066,0.001373,-0.005842,0.101773,0.232846,-0.967174
1762621610.199769,-0.098518,0.081941,-0.275052,0.952852,0.005833,0.026560,0.018817,0.001986,-0.000708,-0.009892,0.101960,0.232822,-0.967160
1762621610.200057,-0.098419,0.082127,-0.274968,0.952870,0.006021,0.021439,0.016183,-0.003219,0.000512,-0.002483,0.102389,0.232726,-0.967138
1762621610.249504,-0.098372,0.082221,-0.274894,0.952888,0.004028,0.013762,0.009455,-0.001572,0.000161,-0.000519,0.102612,0.232680,-0.967125
1762621610.249821,-0.098325,0.082316,-0.274820,0.952906,0.002034,0.006085,0.002726,0.000075,-0.000190,0.001446,0.102835,0.232634,-0.967112
1762621610.254223,-0.098319,0.082452,-0.274814,0.952897,-0.008958,0.013014,-0.003219,0.000112,0.000645,0.000721,0.103098,0.232695,-0.967070
1762621610.282998,-0.098348,0.082574,-0.274875,0.952866,-0.005359,0.016862,-0.011511,-0.000838,-0.001471,0.002075,0.103297,0.232820,-0.967018
1762621610.315516,-0.098353,0.082588,-0.274979,0.952834,0.001188,0.007526,-0.014668,-0.002667,-0.000374,0.000395,0.103295,0.232847,-0.967012
1762621610.315765,-0.098357,0.082601,-0.275082,0.952802,0.007734,-0.001810,-0.017824,-0.004495,0.000723,-0.001285,0.103293,0.232874,-0.967006
1762621610.355370,-0.098223,0.082664,-0.275216,0.952772,0.004850,0.014796,0.000527,-0.000957,0.004547,-0.002157,0.103454,0.232670,-0.967038
1762621610.355669,-0.098161,0.082740,-0.275221,0.952771,0.004448,0.015884,0.005024,-0.001369,0.000845,-0.002958,0.103632,0.232594,-0.967037
1762621610.384901,-0.097957,0.082965,-0.275253,0.952763,0.006628,0.031239,-0.007888,0.002372,-0.006035,-0.006080,0.104167,0.232332,-0.967043
1762621610.422162,-0.097912,0.083275,-0.275496,0.952670,0.000350,0.026196,-0.018791,0.000610,-0.004494,-0.000788,0.104719,0.232439,-0.966957
1762621610.422411,-0.097867,0.083585,-0.275740,0.952577,-0.005928,0.021152,-0.029695,-0.001152,-0.002952,0.004505,0.105271,0.232546,-0.966871
1762621610.454626,-0.097972,0.083789,-0.276319,0.952380,-0.016214,0.003274,-0.021204,0.001132,0.003344,-0.000092,0.105455,0.232919,-0.966762
1762621610.482492,-0.098110,0.083847,-0.276401,0.952337,-0.016455,0.001847,-0.005822,0.002512,0.003815,-0.003140,0.105465,0.233218,-0.966688
1762621610.513003,-0.098243,0.083932,-0.276383,0.952321,-0.015610,0.006970,0.004726,0.002782,0.002549,-0.001727,0.105554,0.233512,-0.966608
1762621610.514587,-0.098339,0.084062,-0.276297,0.952325,-0.013321,0.005008,0.005800,0.002356,0.000830,-0.000808,0.105767,0.233754,-0.966526
1762621610.550804,-0.098458,0.084194,-0.276262,0.952311,-0.013179,0.007543,-0.000743,0.005137,0.000289,-0.001012,0.105957,0.234045,-0.966435
1762621610.552874,-0.098590,0.084331,-0.276320,0.952269,-0.012953,0.008313,-0.012325,0.005374,-0.001152,0.000310,0.106126,0.234374,-0.966336
1762621610.583147,-0.098710,0.084452,-0.276486,0.952197,-0.009747,0.010495,-0.022325,0.006073,-0.001822,0.000840,0.106246,0.234683,-0.966248
1762621610.612429,-0.098767,0.084540,-0.276743,0.952109,-0.000485,0.003491,-0.030552,0.005466,-0.001266,0.003228,0.106316,0.234865,-0.966196
1762621610.613583,-0.098765,0.084553,-0.277071,0.952013,0.005047,-0.001596,-0.028817,0.002903,0.002683,0.004393,0.106260,0.234905,-0.966193
1762621610.646909,-0.098710,0.084476,-0.277295,0.951960,0.007543,-0.012435,-0.017167,0.001096,0.006263,0.002581,0.106092,0.234785,-0.966240
1762621610.649262,-0.098684,0.084346,-0.277367,0.951953,0.003376,-0.015229,0.000105,0.001883,0.005447,0.002792,0.105844,0.234674,-0.966294
1762621610.680592,-0.098662,0.084172,-0.277274,0.951998,0.006175,-0.026482,0.011502,0.000565,0.001213,0.004257,0.105550,0.234528,-0.966362
1762621610.709739,-0.098676,0.083922,-0.277127,0.952061,0.005272,-0.028419,0.011845,0.002388,0.001147,-0.001734,0.105106,0.234406,-0.966440
1762621610.711713,-0.098755,0.083687,-0.276933,0.952130,-0.001803,-0.028773,0.018604,-0.000895,-0.000599,-0.001226,0.104664,0.234406,-0.966488
1762621610.741063,-0.098904,0.083426,-0.276747,0.952192,-0.003874,-0.037955,0.010570,-0.001512,-0.001783,-0.000490,0.104132,0.234527,-0.966516
1762621610.771893,-0.099073,0.083089,-0.276615,0.952242,-0.006887,-0.039012,0.008588,0.000967,-0.000521,-0.004283,0.103431,0.234651,-0.966561
1762621610.774358,-0.099221,0.082839,-0.276488,0.952285,-0.009208,-0.017711,0.007650,0.002024,-0.000224,-0.007344,0.102905,0.234781,-0.966586
1762621610.804776,-0.099364,0.082764,-0.276364,0.952313,-0.018301,-0.003308,0.012474,0.000394,0.002030,-0.005301,0.102713,0.234997,-0.966554
1762621610.811202,-0.099553,0.082857,-0.276183,0.952338,-0.023421,-0.001143,0.014682,-0.004880,0.000261,0.001518,0.102826,0.235383,-0.966448
1762621610.851923,-0.099766,0.082816,-0.276064,0.952353,-0.017791,-0.020087,0.002840,-0.004134,-0.000053,0.002982,0.102656,0.235750,-0.966377
1762621610.852100,-0.099963,0.082700,-0.276031,0.952352,-0.017622,-0.018238,-0.002362,-0.001214,0.001495,-0.000629,0.102333,0.236055,-0.966336
1762621610.881268,-0.100178,0.082618,-0.275996,0.952347,-0.019545,-0.008889,-0.000774,-0.001192,0.001745,-0.001358,0.102064,0.236413,-0.966277
1762621610.910413,-0.100390,0.082521,-0.276014,0.952328,-0.009116,-0.014822,-0.005017,-0.004756,0.002501,-0.000693,0.101755,0.236763,-0.966224
1762621610.911947,-0.100518,0.082342,-0.276067,0.952315,-0.005204,-0.013807,-0.005335,-0.003482,0.005007,-0.001226,0.101331,0.236914,-0.966232
1762621610.941354,-0.100593,0.082226,-0.276080,0.952313,-0.003469,-0.012677,0.001489,-0.002685,0.005108,-0.000799,0.101067,0.236994,-0.966240
1762621610.983245,-0.100634,0.082157,-0.276003,0.952337,0.001866,-0.002724,0.002394,-0.001323,0.002315,-0.003287,0.100932,0.237025,-0.966246
1762621610.983407,-0.100674,0.082087,-0.275925,0.952361,0.007200,0.007229,0.003298,0.000038,-0.000478,-0.005775,0.100797,0.237056,-0.966253
1762621610.990886,-0.100582,0.082152,-0.275897,0.952373,0.013212,0.014861,0.004013,-0.000310,-0.002086,-0.003626,0.100978,0.236915,-0.966268
1762621611.021674,-0.100420,0.082266,-0.275952,0.952365,0.019424,0.018737,-0.010010,-0.001314,-0.003293,0.000861,0.101272,0.236676,-0.966296
1762621611.051331,-0.100189,0.082302,-0.276129,0.952335,0.023115,0.012035,-0.014440,-0.000573,0.000135,-0.000823,0.101428,0.236278,-0.966377
1762621611.051596,-0.099983,0.082362,-0.276338,0.952291,0.020244,0.015526,-0.016614,0.001209,0.002683,-0.003137,0.101607,0.235944,-0.966440
1762621611.089396,-0.099817,0.082514,-0.276473,0.952255,0.010738,0.026676,-0.016101,0.000324,-0.001279,-0.004786,0.101955,0.235729,-0.966456
1762621611.091449,-0.099632,0.082642,-0.276644,0.952214,0.009703,0.015851,-0.010006,-0.000137,-0.000811,-0.000894,0.102261,0.235466,-0.966488
1762621611.149552,-0.099535,0.082753,-0.276693,0.952200,0.006562,0.011372,-0.006970,0.000460,-0.000958,0.000461,0.102514,0.235348,-0.966489
1762621611.149897,-0.099438,0.082865,-0.276742,0.952187,0.003422,0.006894,-0.003933,0.001058,-0.001105,0.001815,0.102768,0.235231,-0.966491
1762621611.151745,-0.099387,0.082932,-0.276772,0.952177,-0.005494,0.007249,-0.005379,0.002496,-0.000525,0.000363,0.102917,0.235175,-0.966489
1762621611.181878,-0.099457,0.083019,-0.276827,0.952146,-0.009344,0.007788,-0.006014,0.003411,-0.000530,0.001038,0.103028,0.235359,-0.966432
1762621611.211925,-0.099529,0.083097,-0.276920,0.952105,-0.008103,-0.001198,-0.011409,0.002631,-0.000709,0.002587,0.103110,0.235546,-0.966378
1762621611.213906,-0.099608,0.083092,-0.277050,0.952059,-0.006273,-0.003181,-0.011725,0.001628,0.000028,0.000347,0.103025,0.235707,-0.966348
1762621611.242341,-0.099675,0.083068,-0.277138,0.952029,-0.003562,-0.003428,-0.006449,0.001167,0.002394,0.000591,0.102920,0.235829,-0.966329
1762621611.250480,-0.099709,0.083069,-0.277147,0.952023,-0.001371,-0.003986,0.003354,0.000640,0.001611,0.000166,0.102900,0.235895,-0.966315
1762621611.280138,-0.099666,0.083076,-0.277086,0.952044,0.007917,0.000335,0.008203,0.000097,-0.002693,0.003227,0.102953,0.235812,-0.966330
1762621611.312018,-0.099524,0.082997,-0.276997,0.952092,0.018945,-0.006562,0.006177,0.001451,-0.003853,-0.000259,0.102907,0.235492,-0.966413
1762621611.313255,-0.099376,0.082908,-0.276967,0.952124,0.012793,-0.000109,0.004807,0.001683,-0.000424,-0.001937,0.102829,0.235162,-0.966502
1762621611.351827,-0.099336,0.082858,-0.276918,0.952147,0.002134,-0.006997,0.004503,-0.000565,-0.002424,0.000957,0.102770,0.235055,-0.966534
1762621611.353881,-0.099354,0.082729,-0.276916,0.952156,-0.003769,-0.018477,-0.005757,-0.001888,-0.001669,-0.000466,0.102516,0.235019,-0.966569
1762621611.384314,-0.099474,0.082561,-0.276921,0.952157,-0.012693,-0.012783,-0.001935,0.003189,-0.000610,-0.008744,0.102130,0.235155,-0.966577
1762621611.389168,-0.099616,0.082620,-0.276900,0.952143,-0.022144,0.011333,0.004054,0.002804,0.001859,-0.009825,0.102165,0.235453,-0.966501
1762621611.450959,-0.099803,0.082883,-0.276732,0.952150,-0.021041,0.006204,0.008784,-0.000614,-0.001270,-0.002337,0.102597,0.235927,-0.966340
1762621611.451197,-0.099989,0.083146,-0.276565,0.952156,-0.019937,0.001075,0.013513,-0.004033,-0.004399,0.005151,0.103028,0.236401,-0.966178
1762621611.452744,-0.100133,0.083191,-0.276485,0.952160,-0.013895,-0.009683,-0.001369,0.000476,-0.002751,0.002707,0.103051,0.236687,-0.966105
1762621611.481158,-0.100287,0.083155,-0.276525,0.952135,-0.018032,0.001186,-0.007909,0.002932,-0.000583,-0.001957,0.102886,0.236962,-0.966056
1762621611.488809,-0.100453,0.083273,-0.276609,0.952083,-0.016172,0.007368,-0.011410,0.000220,-0.000511,0.002004,0.102993,0.237347,-0.965950
1762621611.519015,-0.100548,0.083224,-0.276752,0.952036,-0.002166,-0.011678,-0.014398,-0.002044,0.001105,0.001689,0.102811,0.237515,-0.965928
1762621611.547854,-0.100561,0.083086,-0.276861,0.952015,0.001983,-0.004947,-0.004274,-0.000193,0.005034,-0.001304,0.102516,0.237479,-0.965968
1762621611.548048,-0.100519,0.083013,-0.276822,0.952037,0.001901,-0.004996,0.010730,0.000796,0.004801,-0.002978,0.102411,0.237354,-0.966010
1762621611.580309,-0.100447,0.082996,-0.276663,0.952092,0.015152,-0.011604,0.014882,0.001395,-0.000252,-0.001546,0.102459,0.237194,-0.966044
1762621611.608770,-0.100287,0.082916,-0.276577,0.952141,0.019074,0.002820,0.007921,0.001379,-0.002574,-0.002197,0.102422,0.236839,-0.966135
1762621611.612635,-0.100118,0.082855,-0.276537,0.952176,0.017945,-0.000405,0.005119,0.001230,0.000689,-0.003100,0.102412,0.236486,-0.966223
1762621611.645494,-0.099957,0.082851,-0.276493,0.952206,0.020083,-0.002034,0.006916,-0.000501,-0.001737,0.000238,0.102507,0.236176,-0.966288
1762621611.646721,-0.099765,0.082784,-0.276466,0.952240,0.021795,-0.006105,0.002486,-0.000368,-0.000900,0.000570,0.102497,0.235774,-0.966388
1762621611.676050,-0.099573,0.082717,-0.276456,0.952268,0.015636,0.001634,0.002029,0.000982,-0.001124,-0.003327,0.102483,0.235375,-0.966486
1762621611.706796,-0.099429,0.082700,-0.276447,0.952288,0.009313,0.002970,0.001210,0.000315,-0.000848,-0.002363,0.102535,0.235094,-0.966549
1762621611.708919,-0.099370,0.082708,-0.276418,0.952302,0.000108,0.000357,0.003146,-0.000008,-0.000728,-0.001096,0.102591,0.234984,-0.966570
1762621611.756739,-0.099420,0.082705,-0.276377,0.952308,-0.006793,0.000158,0.003946,0.000445,-0.000878,0.000364,0.102567,0.235073,-0.966551
1762621611.757956,-0.099537,0.082696,-0.276345,0.952306,-0.011159,-0.010013,0.000001,0.000759,-0.002086,0.001870,0.102490,0.235285,-0.966507
1762621611.767988,-0.099694,0.082673,-0.276342,0.952293,-0.016126,-0.006766,-0.003967,0.002423,-0.001250,-0.000228,0.102358,0.235568,-0.966452
1762621611.796748,-0.099894,0.082689,-0.276357,0.952266,-0.018228,-0.004573,-0.006198,0.000004,-0.001768,0.000461,0.102271,0.235954,-0.966368
1762621611.826757,-0.100101,0.082639,-0.276435,0.952226,-0.018381,-0.010805,-0.012734,-0.000158,-0.000370,0.001148,0.102040,0.236327,-0.966301
1762621611.828930,-0.100278,0.082532,-0.276515,0.952193,-0.014698,-0.012434,-0.008384,0.000702,0.001333,-0.001285,0.101716,0.236611,-0.966266
1762621611.872926,-0.100441,0.082469,-0.276525,0.952179,-0.011380,-0.006968,-0.000852,0.001720,0.002583,-0.004988,0.101501,0.236885,-0.966221
1762621611.874290,-0.100529,0.082441,-0.276510,0.952176,-0.006952,-0.003551,0.002451,0.001103,0.000372,-0.001050,0.101402,0.237034,-0.966195
1762621611.903457,-0.100558,0.082425,-0.276476,0.952184,0.002416,-0.003289,0.000240,-0.000033,-0.002053,0.001964,0.101364,0.237077,-0.966188
1762621611.904607,-0.100507,0.082380,-0.276502,0.952186,0.007323,-0.001893,-0.004226,0.001107,-0.003088,0.002907,0.101301,0.236958,-0.966224
1762621611.935615,-0.100451,0.082260,-0.276584,0.952179,0.009025,-0.014080,-0.014247,0.001660,0.001629,-0.003004,0.101087,0.236798,-0.966286
1762621611.964815,-0.100445,0.082212,-0.276646,0.952165,-0.007404,-0.002305,-0.002593,-0.002018,0.002857,-0.000638,0.100984,0.236768,-0.966304
1762621611.968072,-0.100541,0.082137,-0.276653,0.952160,-0.006791,-0.019070,-0.006937,-0.002210,0.000107,-0.000387,0.100786,0.236910,-0.966290
1762621612.009284,-0.100660,0.081954,-0.276661,0.952161,-0.005354,-0.019941,-0.000286,-0.000512,-0.001096,-0.002201,0.100370,0.237035,-0.966302
1762621612.010696,-0.100728,0.081856,-0.276587,0.952183,-0.004836,-0.002130,0.006861,0.003018,-0.000713,-0.010303,0.100163,0.237104,-0.966307
1762621612.051082,-0.100772,0.081974,-0.276481,0.952199,-0.004816,0.013215,0.012235,0.001028,-0.002539,-0.004293,0.100387,0.237239,-0.966251
1762621612.052995,-0.100835,0.082101,-0.276350,0.952220,-0.013151,0.013749,0.009026,0.000050,-0.001635,-0.002012,0.100625,0.237412,-0.966183
1762621612.090920,-0.100975,0.082193,-0.276297,0.952212,-0.016561,-0.002643,-0.005299,-0.001503,-0.003268,0.002748,0.100732,0.237719,-0.966097
1762621612.091968,-0.101163,0.082244,-0.276332,0.952178,-0.024854,0.000828,-0.007769,-0.000876,-0.003379,0.003383,0.100713,0.238104,-0.966004
1762621612.121219,-0.101388,0.082285,-0.276340,0.952148,-0.023347,0.000469,-0.001164,-0.001781,-0.007618,0.001379,0.100661,0.238550,-0.965899
1762621612.128988,-0.101522,0.082336,-0.276261,0.952152,-0.007192,-0.002612,0.007241,-0.003749,-0.019384,0.004510,0.100699,0.238821,-0.965828
1762621612.158962,-0.101451,0.082255,-0.276178,0.952191,0.015195,-0.000419,0.009609,-0.003210,-0.027382,-0.001551,0.100608,0.238635,-0.965884
1762621612.167940,-0.101212,0.082262,-0.276044,0.952254,0.023310,-0.001074,0.017300,-0.003480,-0.034708,0.002891,0.100790,0.238175,-0.965978
1762621612.203170,-0.100972,0.082239,-0.275852,0.952338,0.011725,0.005522,0.023183,-0.003978,-0.049343,0.004970,0.100932,0.237690,-0.966083
1762621612.207174,-0.100746,0.082206,-0.275706,0.952407,0.009886,0.007889,0.003423,0.000522,-0.062590,-0.002791,0.101034,0.237232,-0.966185
1762621612.236948,-0.100512,0.082223,-0.275764,0.952413,0.005424,0.005141,-0.012264,-0.001816,-0.066000,-0.000999,0.101184,0.236807,-0.966273
1762621612.266305,-0.100349,0.082173,-0.275979,0.952372,-0.013697,0.003714,-0.027161,-0.004136,-0.062039,-0.005034,0.101129,0.236495,-0.966355
1762621612.266614,-0.100352,0.082123,-0.276261,0.952295,-0.035341,-0.002258,-0.034888,-0.002250,-0.057951,-0.008449,0.100963,0.236505,-0.966371
1762621612.297683,-0.100561,0.082041,-0.276482,0.952216,-0.075616,-0.010130,-0.014847,0.001382,-0.050647,-0.010645,0.100634,0.236876,-0.966314
1762621612.356521,-0.100874,0.082146,-0.276309,0.952224,-0.051660,-0.008575,-0.009662,0.001775,-0.054605,-0.007125,0.100698,0.237504,-0.966153
1762621612.356831,-0.101187,0.082251,-0.276135,0.952232,-0.027704,-0.007020,-0.004478,0.002168,-0.058562,-0.003605,0.100763,0.238131,-0.965992
1762621612.357101,-0.101500,0.082357,-0.275962,0.952240,-0.003747,-0.005465,0.000707,0.002561,-0.062519,-0.000086,0.100827,0.238759,-0.965830
1762621612.367253,-0.101157,0.082184,-0.275943,0.952296,0.020751,-0.004729,0.004745,0.004678,-0.044657,0.000555,0.100699,0.238019,-0.966026
1762621612.397028,-0.100670,0.081970,-0.275820,0.952402,0.004741,-0.010566,0.017298,0.005495,-0.026618,-0.002802,0.100603,0.236975,-0.966293
1762621612.426120,-0.100447,0.082038,-0.275457,0.952525,-0.050714,0.005729,0.044729,0.003605,-0.017728,-0.000648,0.100949,0.236553,-0.966360
1762621612.428114,-0.100719,0.082291,-0.274860,0.952647,-0.107922,0.014941,0.067477,0.008807,-0.019052,0.000773,0.101421,0.237137,-0.966168
1762621612.457387,-0.101532,0.082803,-0.274093,0.952737,-0.131237,0.010219,0.062304,0.010537,-0.031360,0.002894,0.102120,0.238859,-0.965670
1762621612.487916,-0.102574,0.083326,-0.273482,0.952755,-0.142165,0.019806,0.040475,0.015061,-0.035684,0.004608,0.102675,0.241033,-0.965070
1762621612.490047,-0.103726,0.083916,-0.273080,0.952694,-0.144217,0.018072,0.019466,0.010407,-0.037053,0.021200,0.103242,0.243471,-0.964398
1762621612.518453,-0.104849,0.084284,-0.272890,0.952593,-0.126200,-0.026372,-0.009096,0.005232,-0.031121,0.026742,0.103352,0.245757,-0.963806
1762621612.549555,-0.105976,0.084338,-0.272939,0.952450,-0.136594,-0.020452,-0.026324,0.009515,-0.018662,0.014274,0.102806,0.247911,-0.963312
1762621612.550757,-0.107177,0.084572,-0.273012,0.952274,-0.153388,-0.007259,-0.018609,0.010174,-0.017542,0.015474,0.102550,0.250301,-0.962722
1762621612.583186,-0.108474,0.085007,-0.272944,0.952108,-0.156959,0.003646,-0.007401,0.008610,-0.020959,0.018480,0.102657,0.252961,-0.962015
1762621612.586627,-0.109675,0.085477,-0.272951,0.951926,-0.137742,0.010969,-0.020980,0.001082,-0.016775,0.025715,0.102863,0.255466,-0.961331
1762621612.615471,-0.110852,0.085683,-0.273113,0.951725,-0.130417,-0.030936,-0.040231,-0.007910,-0.002692,0.027473,0.102543,0.257803,-0.960741
1762621612.650464,-0.112319,0.085584,-0.273327,0.951500,-0.166788,-0.078633,-0.042803,-0.016507,0.015354,0.023626,0.101467,0.260528,-0.960120
1762621612.651900,-0.114404,0.085256,-0.273354,0.951273,-0.236312,-0.098463,-0.018849,-0.011994,0.024353,0.009133,0.099659,0.264269,-0.959286
1762621612.681919,-0.117108,0.085060,-0.273155,0.951019,-0.302462,-0.074241,-0.008144,-0.003512,0.022761,-0.004211,0.097809,0.269212,-0.958101
1762621612.688785,-0.120399,0.085310,-0.272821,0.950681,-0.351962,-0.046490,-0.000558,0.001795,0.016966,0.000743,0.096511,0.275470,-0.956453
1762621612.718941,-0.123911,0.085888,-0.272503,0.950269,-0.351104,-0.021850,-0.004647,-0.004739,0.012995,0.013973,0.095700,0.282306,-0.954539
1762621612.748865,-0.127173,0.086458,-0.272399,0.949816,-0.304327,-0.030777,-0.039490,-0.011960,0.021042,0.013083,0.094955,0.288683,-0.952704
1762621612.761357,-0.130037,0.086912,-0.272655,0.949313,-0.280025,-0.008566,-0.064990,-0.008741,0.037325,0.011114,0.094103,0.294286,-0.951073
1762621612.768020,-0.132662,0.087611,-0.272938,0.948804,-0.264219,0.006976,-0.043406,-0.008946,0.047560,0.019663,0.093833,0.299566,-0.949450
1762621612.796373,-0.134984,0.088363,-0.273025,0.948382,-0.230273,0.018563,-0.021435,-0.006519,0.049017,0.026729,0.093896,0.304284,-0.947942
1762621612.826352,-0.137003,0.088905,-0.273050,0.948035,-0.190198,0.004007,-0.016452,-0.005049,0.060535,0.012781,0.093752,0.308319,-0.946652
1762621612.827118,-0.138877,0.089414,-0.272946,0.947744,-0.182917,0.007482,0.011281,-0.006622,0.075873,-0.003949,0.093672,0.312051,-0.945436
1762621612.858388,-0.140723,0.089922,-0.272648,0.947509,-0.167912,0.010773,0.022384,0.002137,0.084529,-0.021461,0.093667,0.315707,-0.944222
1762621612.873859,-0.142463,0.090760,-0.272263,0.947280,-0.163240,0.049890,0.034380,0.004219,0.082570,-0.024520,0.094375,0.319326,-0.942934
1762621612.903845,-0.143962,0.091778,-0.271865,0.947070,-0.138724,0.049239,0.039040,0.002317,0.082375,-0.011710,0.095564,0.322586,-0.941704
1762621612.907579,-0.145265,0.092613,-0.271476,0.946901,-0.103745,0.027605,0.032556,-0.001040,0.074703,-0.001524,0.096518,0.325388,-0.940642
1762621612.951097,-0.146265,0.092982,-0.271202,0.946789,-0.068758,0.007021,0.010813,0.009311,0.068703,-0.015930,0.096733,0.327398,-0.939922
1762621612.951347,-0.147034,0.093381,-0.271120,0.946655,-0.055323,0.018599,-0.001451,0.009333,0.067683,-0.009365,0.097072,0.329016,-0.939322
1762621612.982093,-0.147648,0.093830,-0.271138,0.946510,-0.045375,0.032582,-0.005042,0.007635,0.059379,0.001313,0.097555,0.330382,-0.938792
1762621612.987549,-0.148125,0.094197,-0.271308,0.946350,-0.015993,0.015360,-0.029066,0.003089,0.052726,0.017456,0.097912,0.331469,-0.938372
1762621613.017644,-0.148398,0.094240,-0.271673,0.946198,0.001948,-0.006668,-0.046252,0.000795,0.055451,0.010341,0.097709,0.332033,-0.938194
1762621613.048145,-0.148703,0.094184,-0.272176,0.946011,-0.003764,-0.003271,-0.061117,0.000829,0.053855,-0.001945,0.097252,0.332618,-0.938034
1762621613.048390,-0.149095,0.094180,-0.272774,0.945778,-0.010142,-0.007211,-0.060222,-0.002284,0.054032,0.004874,0.096808,0.333401,-0.937802
1762621613.076148,-0.149484,0.094129,-0.273224,0.945591,-0.001802,-0.019659,-0.042382,-0.002071,0.051325,0.007262,0.096330,0.334138,-0.937589
1762621613.107003,-0.149751,0.093988,-0.273613,0.945451,0.018613,-0.006371,-0.038943,-0.001876,0.049645,0.004047,0.095775,0.334597,-0.937482
1762621613.108226,-0.149863,0.093857,-0.273954,0.945347,0.025499,-0.008498,-0.027942,-0.003599,0.046215,0.002291,0.095344,0.334770,-0.937464
1762621613.137551,-0.150005,0.093816,-0.274154,0.945271,0.010817,-0.001075,-0.004939,-0.004141,0.042705,-0.002094,0.095114,0.335030,-0.937394
1762621613.144983,-0.150127,0.093856,-0.274189,0.945237,0.026418,-0.005953,0.001058,-0.007175,0.032456,-0.004462,0.095107,0.335279,-0.937306
1762621613.175537,-0.150046,0.093721,-0.274217,0.945255,0.046760,-0.010159,0.004825,-0.006454,0.032038,-0.009528,0.094890,0.335063,-0.937405
1762621613.203553,-0.149876,0.093646,-0.274182,0.945300,0.038707,0.004312,0.011490,-0.002677,0.027576,-0.013671,0.094861,0.334707,-0.937535
1762621613.204780,-0.149782,0.093702,-0.274100,0.945333,0.020632,0.006707,0.017035,-0.003720,0.025593,-0.002699,0.095048,0.334555,-0.937571
1762621613.249316,-0.149765,0.093715,-0.273908,0.945390,0.015424,0.005418,0.032093,-0.002468,0.012741,-0.007264,0.095151,0.334511,-0.937576
1762621613.251462,-0.149666,0.093823,-0.273610,0.945481,0.038575,0.003741,0.031492,-0.004719,-0.002774,0.000516,0.095515,0.334355,-0.937595
1762621613.280102,-0.149313,0.093682,-0.273464,0.945593,0.060779,-0.005482,0.007692,-0.002567,-0.005439,0.001859,0.095506,0.333616,-0.937859
1762621613.284676,-0.148926,0.093455,-0.273454,0.945680,0.058241,-0.010002,0.006746,-0.003240,-0.007371,-0.001138,0.095308,0.332784,-0.938174
1762621613.316499,-0.148459,0.093228,-0.273498,0.945763,0.062732,-0.000496,-0.001810,0.006221,-0.009472,-0.012327,0.095137,0.331809,-0.938537
1762621613.329953,-0.147878,0.093231,-0.273689,0.945798,0.053776,0.032216,-0.015759,0.002153,-0.007351,-0.011402,0.095410,0.330757,-0.938881
1762621613.360184,-0.147333,0.093368,-0.273894,0.945811,0.040675,0.025643,-0.009947,-0.001288,-0.004829,-0.005643,0.095910,0.329844,-0.939151
1762621613.370039,-0.146925,0.093406,-0.274108,0.945808,0.037610,0.015083,-0.019053,-0.002954,-0.008027,0.001207,0.096142,0.329132,-0.939377
1762621613.399927,-0.146452,0.093327,-0.274379,0.945811,0.045089,0.000929,-0.025694,0.000581,-0.009616,0.005081,0.096172,0.328245,-0.939684
1762621613.404769,-0.145982,0.093223,-0.274621,0.945823,0.040694,-0.001458,-0.019627,0.001347,-0.008610,0.005493,0.096166,0.327349,-0.939997
1762621613.435192,-0.145560,0.093036,-0.274858,0.945838,0.039003,0.001318,-0.016823,0.001595,-0.006589,-0.002702,0.095978,0.326496,-0.940313
1762621613.465545,-0.145251,0.092932,-0.275069,0.945834,0.022954,0.001648,-0.011421,-0.000112,-0.005152,-0.001976,0.095889,0.325892,-0.940531
1762621613.465882,-0.145084,0.092919,-0.275100,0.945852,0.008876,0.000567,0.004932,-0.001675,-0.004549,0.001647,0.095951,0.325581,-0.940633
1762621613.493548,-0.144942,0.092831,-0.275060,0.945894,0.023387,-0.011415,0.000709,-0.000944,-0.011364,-0.000050,0.095881,0.325267,-0.940749
1762621613.560958,-0.144756,0.092937,-0.275162,0.945883,0.012437,0.002806,-0.002374,-0.000459,-0.010106,0.000114,0.096153,0.324991,-0.940817
1762621613.561417,-0.144571,0.093044,-0.275265,0.945871,0.001487,0.017027,-0.005457,0.000026,-0.008848,0.000278,0.096424,0.324714,-0.940884
1762621613.561759,-0.144386,0.093150,-0.275367,0.945859,-0.009463,0.031247,-0.008540,0.000510,-0.007590,0.000442,0.096696,0.324438,-0.940952
1762621613.576435,-0.144327,0.093339,-0.275636,0.945771,-0.004145,0.015841,-0.033825,-0.000401,-0.007167,0.006678,0.096992,0.324456,-0.940915
1762621613.606642,-0.144347,0.093418,-0.275934,0.945673,-0.011123,-0.000341,-0.032606,0.000076,-0.006654,0.010485,0.097026,0.324565,-0.940874
1762621613.606885,-0.144420,0.093361,-0.276265,0.945571,-0.007909,-0.008334,-0.034152,0.001531,-0.007077,0.007204,0.096763,0.324703,-0.940853
1762621613.634925,-0.144506,0.093237,-0.276598,0.945473,-0.004105,-0.011515,-0.037468,0.000195,-0.000605,0.005739,0.096366,0.324832,-0.940849
1762621613.667297,-0.144574,0.093068,-0.276897,0.945391,-0.005050,-0.015378,-0.026195,0.001270,0.005547,-0.001541,0.095907,0.324899,-0.940873
1762621613.667569,-0.144734,0.092963,-0.277050,0.945333,-0.020761,-0.003804,-0.011532,0.001197,0.010136,-0.010090,0.095565,0.325153,-0.940820
1762621613.696809,-0.145006,0.093070,-0.277044,0.945282,-0.044363,0.005904,0.002545,-0.000177,0.009611,-0.004494,0.095609,0.325712,-0.940623
1762621613.703747,-0.145397,0.093213,-0.276984,0.945225,-0.042261,-0.002729,0.007307,-0.000689,0.008360,-0.004058,0.095670,0.326503,-0.940342
1762621613.733503,-0.145779,0.093364,-0.276851,0.945191,-0.031204,0.001065,0.009121,0.000878,0.008400,-0.001841,0.095775,0.327274,-0.940063
1762621613.763869,-0.145990,0.093440,-0.276759,0.945178,-0.014270,0.008133,0.007496,0.001420,0.005562,-0.004066,0.095826,0.327693,-0.939912
1762621613.769984,-0.146098,0.093576,-0.276711,0.945161,-0.003627,0.012274,0.004741,-0.000153,0.007239,0.003239,0.096035,0.327958,-0.939798
1762621613.878476,-0.146108,0.093675,-0.276637,0.945172,0.000816,0.007255,0.006684,0.001034,0.005566,0.004039,0.096240,0.328022,-0.939755
1762621613.878754,-0.145992,0.093778,-0.276552,0.945204,0.025495,0.011022,0.009047,0.000034,-0.000309,0.004868,0.096531,0.327853,-0.939784
1762621613.879169,-0.145592,0.093807,-0.276573,0.945257,0.055726,0.011279,0.001804,0.000202,-0.003499,0.003789,0.096810,0.327133,-0.940006
1762621613.879219,-0.145048,0.093733,-0.276751,0.945296,0.059217,0.017632,-0.018429,0.002942,0.001544,-0.002031,0.096925,0.326108,-0.940350
1762621613.882826,-0.144601,0.093849,-0.276879,0.945315,0.039614,0.024601,0.005907,-0.004700,0.003080,0.005562,0.097359,0.325356,-0.940566
1762621613.884021,-0.144209,0.093829,-0.276894,0.945373,0.043893,-0.001507,0.004236,-0.002263,0.002893,0.005812,0.097545,0.324625,-0.940799
1762621613.911539,-0.143821,0.093692,-0.276831,0.945464,0.035752,-0.002975,0.018717,0.000181,0.000746,-0.000324,0.097537,0.323830,-0.941074
1762621613.945636,-0.143528,0.093651,-0.276668,0.945560,0.025306,0.000286,0.015163,0.005909,-0.003292,-0.012196,0.097685,0.323250,-0.941258
1762621613.945897,-0.143415,0.093755,-0.276559,0.945599,-0.003656,0.026526,0.011968,0.004999,-0.001028,-0.012470,0.097984,0.323084,-0.941284
1762621613.982362,-0.143599,0.094028,-0.276469,0.945570,-0.039114,0.014263,0.009928,0.001815,0.003592,-0.008532,0.098419,0.323557,-0.941076
1762621613.984056,-0.144053,0.094208,-0.276345,0.945520,-0.055058,-0.013518,0.004999,-0.000063,0.002299,-0.001191,0.098534,0.324477,-0.940747
1762621614.012811,-0.144637,0.094160,-0.276318,0.945443,-0.060747,-0.021480,-0.014379,0.005804,0.000952,-0.003215,0.098114,0.325529,-0.940428
1762621614.043571,-0.145248,0.094174,-0.276385,0.945328,-0.064179,-0.015186,-0.018735,0.003712,-0.001822,0.005183,0.097762,0.326670,-0.940069
1762621614.044606,-0.145878,0.094107,-0.276509,0.945202,-0.047231,-0.026211,-0.023792,0.001357,-0.001883,0.007199,0.097227,0.327810,-0.939727
1762621614.074860,-0.146339,0.093821,-0.276665,0.945113,-0.026011,-0.043314,-0.024046,0.002395,0.003354,-0.000889,0.096370,0.328528,-0.939565
1762621614.081517,-0.146662,0.093638,-0.276777,0.945048,-0.019539,-0.016361,-0.015112,0.000524,0.002777,0.002603,0.095800,0.329039,-0.939444
1762621614.111592,-0.146866,0.093454,-0.276841,0.945016,-0.015802,-0.026445,-0.009649,-0.001531,0.002015,0.001105,0.095313,0.329326,-0.939393
1762621614.150126,-0.147014,0.093230,-0.276924,0.944991,0.004408,-0.027816,-0.022607,0.003738,-0.000488,-0.005461,0.094780,0.329488,-0.939390
1762621614.150355,-0.146981,0.093118,-0.277149,0.944941,0.007219,0.011016,-0.019171,0.003785,0.002310,-0.011260,0.094511,0.329391,-0.939452
1762621614.178660,-0.146945,0.093215,-0.277378,0.944870,0.003329,0.013441,-0.017024,-0.002427,0.002327,-0.004882,0.094633,0.329400,-0.939436
1762621614.181219,-0.146973,0.093298,-0.277584,0.944797,0.000553,0.008718,-0.022602,-0.004575,-0.000571,0.001270,0.094700,0.329515,-0.939389
1762621614.212196,-0.146948,0.093261,-0.277793,0.944743,0.000759,-0.005740,-0.016501,-0.002502,0.000785,0.003725,0.094574,0.329471,-0.939417
1762621614.242251,-0.146922,0.093189,-0.277947,0.944709,0.007861,-0.002707,-0.015448,-0.002382,-0.001347,-0.000905,0.094400,0.329401,-0.939459
1762621614.244069,-0.146875,0.093107,-0.278119,0.944674,0.009159,-0.004471,-0.013783,-0.002737,0.000878,-0.000474,0.094214,0.329287,-0.939518
1762621614.273686,-0.146849,0.093001,-0.278217,0.944660,-0.000092,-0.001423,-0.001544,-0.000941,0.000313,-0.000160,0.093997,0.329194,-0.939572
1762621614.304819,-0.146861,0.093068,-0.278199,0.944656,-0.003390,0.002551,0.000715,-0.002722,0.000909,-0.000463,0.094122,0.329249,-0.939540
1762621614.317243,-0.146914,0.093061,-0.278214,0.944644,-0.007918,0.001213,0.000122,-0.000157,-0.002106,-0.003383,0.094072,0.329344,-0.939512
1762621614.328405,-0.147021,0.093093,-0.278207,0.944627,-0.007583,-0.001806,-0.008007,0.000681,-0.001686,-0.001225,0.094071,0.329559,-0.939437
1762621614.357466,-0.147137,0.093083,-0.278349,0.944568,-0.010051,0.004803,-0.017130,0.003998,0.003743,-0.010020,0.093935,0.329780,-0.939373
1762621614.360756,-0.147285,0.093184,-0.278508,0.944488,-0.018312,0.010494,-0.018724,0.001300,0.002487,-0.002742,0.093983,0.330124,-0.939247
1762621614.393611,-0.147422,0.093250,-0.278744,0.944390,-0.009227,0.004564,-0.022628,0.002971,0.000463,0.001832,0.093943,0.330433,-0.939142
1762621614.449667,-0.147395,0.093301,-0.279048,0.944300,-0.000104,0.008092,-0.026312,0.001615,0.002371,0.004333,0.093948,0.330441,-0.939139
1762621614.450746,-0.147341,0.093303,-0.279344,0.944220,0.006524,0.001125,-0.026696,0.001472,0.003879,0.003530,0.093881,0.330372,-0.939170
1762621614.480442,-0.147274,0.093289,-0.279589,0.944160,0.004220,0.002432,-0.015336,0.001437,0.006447,0.003397,0.093807,0.330265,-0.939215
1762621614.482782,-0.147240,0.093265,-0.279683,0.944139,0.002142,-0.005404,-0.002359,0.000083,0.003410,0.005803,0.093748,0.330200,-0.939244
1762621614.549544,-0.147310,0.093149,-0.279557,0.944177,-0.000039,-0.008975,0.008792,0.002923,-0.000396,0.002321,0.093534,0.330254,-0.939246
1762621614.550128,-0.147380,0.093032,-0.279431,0.944215,-0.002219,-0.012545,0.019944,0.005764,-0.004202,-0.001161,0.093321,0.330309,-0.939248
1762621614.550467,-0.147428,0.093019,-0.279244,0.944264,-0.000453,0.006791,0.019213,0.008529,-0.005807,-0.004108,0.093333,0.330373,-0.939225
1762621614.579909,-0.147417,0.093127,-0.279106,0.944296,0.001929,0.007788,0.011732,0.003891,-0.003500,-0.001343,0.093589,0.330395,-0.939191
1762621614.583953,-0.147428,0.093196,-0.279037,0.944308,-0.001047,-0.002852,0.004406,0.000223,0.001416,-0.000019,0.093735,0.330445,-0.939159
1762621614.614295,-0.147480,0.093103,-0.279009,0.944317,-0.005251,-0.019743,0.000235,-0.000560,0.005352,-0.002471,0.093541,0.330490,-0.939163
1762621614.621354,-0.147561,0.092957,-0.278915,0.944347,-0.008781,-0.020966,0.008242,0.000494,0.006446,-0.004483,0.093254,0.330551,-0.939170
1762621614.651108,-0.147640,0.092818,-0.278751,0.944397,-0.004198,-0.017028,0.015068,0.000513,0.003453,-0.003244,0.093005,0.330607,-0.939175
1762621614.681611,-0.147658,0.092714,-0.278585,0.944453,0.007455,-0.015252,0.012767,-0.001722,-0.000238,-0.000022,0.092857,0.330569,-0.939203
1762621614.681922,-0.147595,0.092555,-0.278442,0.944521,0.012819,-0.012032,0.012174,-0.001369,-0.000312,-0.000438,0.092647,0.330356,-0.939298
1762621614.711722,-0.147522,0.092456,-0.278287,0.944587,0.012487,-0.016160,0.018146,-0.002421,-0.000689,0.002762,0.092559,0.330154,-0.939378
1762621614.760606,-0.147397,0.092311,-0.278135,0.944666,0.016465,-0.009968,0.010851,0.000371,-0.004808,-0.001683,0.092413,0.329831,-0.939506
1762621614.761010,-0.147271,0.092165,-0.277984,0.944744,0.020442,-0.003775,0.003557,0.003162,-0.008928,-0.006129,0.092267,0.329509,-0.939633
1762621614.761868,-0.147083,0.092122,-0.277986,0.944777,0.020985,0.011675,-0.005146,0.002188,-0.009413,-0.007298,0.092296,0.329138,-0.939761
1762621614.795251,-0.146890,0.092226,-0.278119,0.944758,0.014535,0.019208,-0.014014,-0.000892,-0.007663,-0.004412,0.092555,0.328851,-0.939835
1762621614.825385,-0.146728,0.092315,-0.278364,0.944702,0.011886,0.018979,-0.028857,-0.001616,-0.007445,-0.002498,0.092734,0.328623,-0.939898
1762621614.825666,-0.146573,0.092422,-0.278711,0.944614,0.006614,0.020196,-0.035310,-0.001037,-0.005401,-0.000079,0.092903,0.328428,-0.939949
1762621614.853552,-0.146434,0.092541,-0.279097,0.944509,0.005548,0.021043,-0.040390,-0.000894,-0.003611,0.000312,0.093073,0.328273,-0.939986
1762621614.861264,-0.146324,0.092668,-0.279531,0.944386,0.002159,0.021653,-0.038246,-0.001142,-0.000007,0.001400,0.093225,0.328180,-0.940004
1762621614.889660,-0.146273,0.092760,-0.279906,0.944273,-0.002096,0.015279,-0.028593,-0.001923,0.003088,0.002120,0.093295,0.328172,-0.940000
1762621614.918735,-0.146270,0.092840,-0.280174,0.944187,-0.004643,0.010093,-0.018826,-0.001275,0.004999,0.000431,0.093354,0.328235,-0.939972
1762621614.919612,-0.146313,0.092907,-0.280339,0.944124,-0.008539,0.007720,-0.010900,0.000203,0.005534,-0.001636,0.093398,0.328366,-0.939922
1762621614.949738,-0.146406,0.092990,-0.280443,0.944071,-0.011012,0.009039,-0.005114,0.001105,0.004595,-0.002908,0.093461,0.328592,-0.939836
1762621614.982220,-0.146502,0.093094,-0.280519,0.944023,-0.006341,0.009237,-0.005771,0.001657,0.004860,-0.002810,0.093573,0.328831,-0.939741
1762621614.984696,-0.146553,0.093216,-0.280605,0.943978,-0.001300,0.009919,-0.008600,0.001595,0.005093,-0.000634,0.093740,0.329000,-0.939666
1762621615.015869,-0.146572,0.093314,-0.280725,0.943930,0.002073,0.009928,-0.009795,0.001924,0.004328,-0.000220,0.093872,0.329098,-0.939618
1762621615.052171,-0.146498,0.093379,-0.280910,0.943879,0.008799,0.007548,-0.014466,0.001387,0.004048,0.001495,0.093972,0.329015,-0.939637
1762621615.052477,-0.146424,0.093444,-0.281096,0.943829,0.015525,0.005167,-0.019136,0.000850,0.003769,0.003210,0.094072,0.328932,-0.939657
1762621615.081015,-0.146301,0.093438,-0.281328,0.943780,0.018840,0.003237,-0.023510,0.001570,0.003694,0.001614,0.094053,0.328725,-0.939731
1762621615.083052,-0.146161,0.093435,-0.281573,0.943728,0.018163,0.008402,-0.019651,0.000917,0.002084,0.000412,0.094045,0.328490,-0.939814
1762621615.101410,-0.145985,0.093421,-0.281786,0.943693,0.022484,0.001676,-0.018108,-0.001832,0.001359,0.004600,0.094048,0.328180,-0.939922
1762621615.131389,-0.145814,0.093300,-0.281963,0.943679,0.024610,-0.013026,-0.014584,-0.003092,0.002533,0.002850,0.093862,0.327817,-0.940067
1762621615.162427,-0.145651,0.093104,-0.282072,0.943691,0.021563,-0.007175,-0.009022,0.003411,0.003414,-0.006842,0.093555,0.327422,-0.940235
1762621615.162682,-0.145518,0.093105,-0.282127,0.943695,0.008123,0.017229,0.003225,0.005826,0.003285,-0.008570,0.093617,0.327184,-0.940312
1762621615.191393,-0.145439,0.093404,-0.282066,0.943696,-0.002066,0.033133,0.014128,0.001529,0.000040,-0.003055,0.094243,0.327193,-0.940246
1762621615.221733,-0.145392,0.093635,-0.282018,0.943695,0.005023,0.012098,0.003330,-0.002827,-0.003034,0.003708,0.094719,0.327225,-0.940187
1762621615.223074,-0.145333,0.093634,-0.282057,0.943692,0.005998,-0.003203,-0.004828,-0.000244,-0.001023,0.002633,0.094739,0.327120,-0.940222
1762621615.255739,-0.145293,0.093603,-0.282106,0.943687,0.002639,-0.000670,-0.006045,0.002266,-0.001272,-0.001320,0.094688,0.327034,-0.940257
1762621615.257740,-0.145267,0.093612,-0.282180,0.943668,0.003012,0.005278,-0.008781,0.001399,-0.002640,-0.000096,0.094695,0.326999,-0.940268
1762621615.287599,-0.145219,0.093593,-0.282297,0.943642,0.006268,-0.001450,-0.014319,-0.001345,-0.002893,0.001959,0.094647,0.326912,-0.940303
1762621615.354537,-0.145153,0.093532,-0.282410,0.943624,0.007748,-0.002482,-0.012606,-0.000761,-0.003726,0.000125,0.094533,0.326769,-0.940365
1762621615.354844,-0.145087,0.093471,-0.282523,0.943607,0.009227,-0.003514,-0.010892,-0.000177,-0.004560,-0.001709,0.094419,0.326626,-0.940426
1762621615.355183,-0.145021,0.093410,-0.282636,0.943589,0.010706,-0.004546,-0.009179,0.000407,-0.005393,-0.003543,0.094305,0.326483,-0.940487
1762621615.359401,-0.144919,0.093369,-0.282784,0.943564,0.009598,0.007236,-0.013000,0.000923,-0.004312,-0.002943,0.094237,0.326288,-0.940561
1762621615.393727,-0.144820,0.093422,-0.282938,0.943528,0.005779,0.017725,-0.011801,0.000359,-0.003148,-0.003193,0.094343,0.326149,-0.940599
1762621615.427904,-0.144762,0.093547,-0.283071,0.943485,0.003720,0.014137,-0.013108,-0.000270,-0.003657,0.000056,0.094564,0.326123,-0.940586
1762621615.430059,-0.144706,0.093636,-0.283235,0.943435,0.000210,0.010978,-0.014783,-0.000247,-0.002436,-0.000706,0.094708,0.326083,-0.940585
1762621615.458614,-0.144684,0.093742,-0.283413,0.943375,-0.002914,0.011573,-0.015894,0.000315,-0.001662,-0.000610,0.094857,0.326118,-0.940558
1762621615.460604,-0.144684,0.093823,-0.283596,0.943312,-0.005181,0.009773,-0.015680,0.000319,-0.000435,-0.000648,0.094945,0.326180,-0.940527
1762621615.489875,-0.144718,0.093903,-0.283759,0.943250,-0.008998,0.009074,-0.012248,0.001132,-0.000530,-0.000132,0.095018,0.326302,-0.940478
1762621615.520421,-0.144757,0.093986,-0.283874,0.943201,-0.006017,0.004026,-0.008188,0.001507,-0.000573,0.000107,0.095109,0.326430,-0.940424
1762621615.522593,-0.144785,0.094021,-0.283967,0.943165,-0.004336,0.005523,-0.007213,0.001855,-0.000258,-0.000150,0.095125,0.326511,-0.940395
1762621615.551302,-0.144828,0.094076,-0.284028,0.943134,-0.003454,0.001453,-0.003485,0.001470,0.000461,0.000753,0.095182,0.326625,-0.940349
1762621615.581940,-0.144888,0.094102,-0.284054,0.943115,-0.007522,0.002649,-0.002610,0.001807,0.001018,-0.001413,0.095187,0.326753,-0.940304
1762621615.584304,-0.144969,0.094165,-0.284062,0.943094,-0.010093,0.001853,-0.000732,0.002314,-0.000030,-0.000394,0.095252,0.326936,-0.940234
1762621615.650705,-0.145045,0.094184,-0.284099,0.943069,-0.008366,0.001294,-0.001770,0.002247,0.000178,0.000145,0.095229,0.327090,-0.940183
1762621615.651038,-0.145121,0.094203,-0.284136,0.943044,-0.006640,0.000735,-0.002807,0.002180,0.000386,0.000685,0.095207,0.327244,-0.940131
1762621615.651366,-0.145197,0.094222,-0.284173,0.943020,-0.004914,0.000175,-0.003845,0.002113,0.000593,0.001224,0.095184,0.327398,-0.940080
1762621615.679794,-0.145266,0.094238,-0.284208,0.942997,-0.002609,-0.002172,-0.003981,0.000620,0.000381,0.002786,0.095160,0.327538,-0.940034
1762621615.681859,-0.145273,0.094164,-0.284257,0.942988,0.004556,-0.010837,-0.008068,0.001808,0.000857,0.000322,0.095001,0.327514,-0.940058
1762621615.712095,-0.145263,0.094080,-0.284280,0.942991,0.001903,-0.006459,0.000976,0.000237,0.001777,-0.000395,0.094843,0.327454,-0.940095
1762621615.717473,-0.145271,0.094030,-0.284248,0.943005,0.001890,-0.012033,0.003350,-0.003935,0.001351,0.004530,0.094755,0.327438,-0.940110
1762621615.747390,-0.145320,0.093822,-0.284168,0.943042,-0.000511,-0.025768,0.009998,-0.003730,0.000864,0.000577,0.094366,0.327408,-0.940159
1762621615.778695,-0.145402,0.093647,-0.284024,0.943090,-0.004374,-0.015024,0.008651,0.002384,-0.001353,-0.010184,0.094040,0.327450,-0.940177
1762621615.779243,-0.145482,0.093667,-0.283925,0.943105,-0.011754,0.011740,0.009935,0.003324,0.000255,-0.012747,0.094064,0.327599,-0.940123
1762621615.809322,-0.145589,0.093947,-0.283835,0.943088,-0.019319,0.026800,0.014340,-0.001209,0.000613,-0.005771,0.094555,0.327937,-0.939956
1762621615.854573,-0.145716,0.094037,-0.283789,0.943074,-0.017836,0.013356,0.007105,0.000333,0.001062,-0.004575,0.094662,0.328214,-0.939848
1762621615.854868,-0.145843,0.094126,-0.283742,0.943059,-0.016352,-0.000087,-0.000130,0.001875,0.001511,-0.003379,0.094769,0.328491,-0.939740
1762621615.859054,-0.145971,0.094189,-0.283706,0.943044,-0.015102,0.000952,0.000244,0.002684,-0.000346,-0.000786,0.094822,0.328759,-0.939642
1762621615.887291,-0.146077,0.094229,-0.283698,0.943026,-0.008755,0.001101,-0.000237,0.000268,-0.003079,0.002757,0.094838,0.328973,-0.939565
1762621615.918016,-0.146153,0.094198,-0.283692,0.943019,-0.001134,-0.009324,-0.001523,-0.001043,-0.002196,0.003031,0.094736,0.329095,-0.939532
1762621615.920694,-0.146191,0.094105,-0.283678,0.943027,0.000453,-0.006889,0.001943,-0.000347,-0.001013,0.000587,0.094544,0.329115,-0.939545
1762621615.948825,-0.146214,0.094012,-0.283640,0.943044,-0.001367,-0.006587,0.003134,0.000706,-0.000732,-0.001932,0.094370,0.329104,-0.939566
1762621615.986040,-0.146225,0.093952,-0.283592,0.943063,0.001993,-0.010273,-0.000970,0.001844,-0.004080,-0.003553,0.094269,0.329086,-0.939583
1762621615.987262,-0.146222,0.093923,-0.283644,0.943050,-0.000913,0.001763,-0.004925,0.002187,-0.002256,-0.003679,0.094199,0.329071,-0.939595
1762621616.016430,-0.146233,0.093980,-0.283699,0.943026,-0.005736,0.008260,-0.004145,0.001261,-0.000685,-0.002765,0.094279,0.329127,-0.939567
1762621616.018128,-0.146287,0.094063,-0.283740,0.942997,-0.007131,0.001912,-0.005580,-0.000106,-0.001307,0.000693,0.094387,0.329275,-0.939505
1762621616.047566,-0.146345,0.094052,-0.283820,0.942965,-0.008001,-0.002430,-0.007743,0.000712,-0.000010,0.000392,0.094305,0.329384,-0.939475
1762621616.078884,-0.146400,0.094043,-0.283863,0.942945,-0.007464,-0.003831,-0.006220,0.000611,0.000306,-0.000977,0.094240,0.329485,-0.939446
1762621616.081314,-0.146448,0.094041,-0.283913,0.942923,-0.006116,-0.000721,-0.004780,0.000631,0.000833,-0.001193,0.094190,0.329577,-0.939419
1762621616.114740,-0.146505,0.094047,-0.283953,0.942901,-0.003957,-0.001524,-0.003800,0.000458,0.000713,-0.000905,0.094153,0.329689,-0.939383
1762621616.116149,-0.146548,0.094067,-0.283969,0.942887,-0.006217,0.000014,-0.001590,0.000510,0.001439,-0.000008,0.094159,0.329781,-0.939350
1762621616.155987,-0.146622,0.094082,-0.283962,0.942876,-0.005265,-0.000785,-0.001045,0.000587,0.001328,-0.000773,0.094145,0.329925,-0.939301
1762621616.158469,-0.146685,0.094084,-0.283967,0.942865,-0.004376,-0.001287,-0.003895,0.001169,0.002334,-0.002262,0.094109,0.330041,-0.939264
1762621616.193927,-0.146748,0.094110,-0.284021,0.942836,-0.004706,0.002862,-0.006254,0.001056,0.002067,-0.002138,0.094102,0.330176,-0.939217
1762621616.224235,-0.146823,0.094153,-0.284084,0.942801,-0.008393,0.002535,-0.004539,0.000488,0.002124,-0.002172,0.094115,0.330345,-0.939156
1762621616.224521,-0.146899,0.094191,-0.284140,0.942769,-0.006762,0.000491,-0.005592,0.000211,0.000917,-0.000937,0.094121,0.330510,-0.939098
1762621616.252456,-0.146943,0.094204,-0.284206,0.942741,-0.001829,0.000686,-0.007841,0.000155,0.000787,-0.000015,0.094095,0.330604,-0.939067
1762621616.259764,-0.146942,0.094183,-0.284290,0.942718,0.000780,-0.003545,-0.006129,-0.000325,0.001298,0.000683,0.094027,0.330600,-0.939075
1762621616.290237,-0.146953,0.094151,-0.284336,0.942705,0.000465,-0.000734,-0.001850,-0.000628,-0.000113,0.001849,0.093946,0.330608,-0.939081
1762621616.320469,-0.146946,0.094114,-0.284335,0.942710,0.003883,-0.003209,-0.000082,0.000038,-0.001818,0.002527,0.093880,0.330574,-0.939099
1762621616.330087,-0.146917,0.094040,-0.284347,0.942719,0.004019,-0.007156,-0.004191,0.002166,-0.001910,0.000265,0.093756,0.330482,-0.939144
1762621616.360289,-0.146929,0.093992,-0.284351,0.942721,-0.005060,-0.000794,0.000270,0.000858,-0.001210,-0.000279,0.093657,0.330479,-0.939155
1762621616.360603,-0.147039,0.093990,-0.284345,0.942705,-0.011466,-0.013948,-0.007064,-0.003605,-0.000870,0.004915,0.093590,0.330680,-0.939091
1762621616.390380,-0.147305,0.093808,-0.284349,0.942680,-0.025828,-0.022382,-0.003788,-0.001049,-0.000526,-0.001050,0.093090,0.331072,-0.939002
1762621616.454321,-0.147582,0.093919,-0.284355,0.942624,-0.027060,-0.007417,-0.002972,-0.001188,0.000342,-0.001806,0.093130,0.331641,-0.938798
1762621616.454662,-0.147858,0.094030,-0.284361,0.942568,-0.028291,0.007548,-0.002156,-0.001326,0.001209,-0.002563,0.093169,0.332210,-0.938592
1762621616.454937,-0.148135,0.094141,-0.284367,0.942512,-0.029523,0.022512,-0.001340,-0.001464,0.002077,-0.003320,0.093209,0.332779,-0.938387
1762621616.456305,-0.148353,0.094336,-0.284385,0.942453,-0.020110,0.010362,-0.003406,-0.003560,0.002275,0.000913,0.093435,0.333288,-0.938184
1762621616.484798,-0.148462,0.094399,-0.284468,0.942404,-0.012231,0.003938,-0.008477,-0.000648,0.001938,0.000871,0.093458,0.333530,-0.938096
1762621616.514678,-0.148464,0.094443,-0.284538,0.942378,-0.001311,0.007144,-0.008116,0.000856,0.000859,0.000942,0.093515,0.333565,-0.938078
1762621616.515900,-0.148365,0.094475,-0.284619,0.942366,0.014840,0.003786,-0.006768,-0.000393,-0.001085,0.001978,0.093605,0.333406,-0.938125
1762621616.543093,-0.148171,0.094412,-0.284706,0.942377,0.024366,-0.001936,-0.002306,-0.001661,-0.000380,0.002629,0.093572,0.333024,-0.938264
1762621616.571481,-0.147976,0.094306,-0.284729,0.942411,0.020532,-0.000877,0.002266,-0.000127,0.000928,-0.000095,0.093485,0.332611,-0.938419
1762621616.580099,-0.147826,0.094241,-0.284677,0.942457,0.012574,-0.005972,0.009194,0.000481,0.000208,0.000051,0.093470,0.332296,-0.938532
1762621616.610056,-0.147728,0.094215,-0.284580,0.942504,0.012823,-0.010131,0.008639,0.001061,-0.004459,0.000380,0.093516,0.332091,-0.938600
1762621616.639633,-0.147635,0.094135,-0.284577,0.942528,0.007718,0.000975,-0.000407,0.004589,-0.001948,-0.002887,0.093423,0.331876,-0.938685
1762621616.639932,-0.147609,0.094174,-0.284608,0.942519,-0.000636,0.006805,-0.001075,0.002599,0.001096,-0.001591,0.093500,0.331854,-0.938686
1762621616.669278,-0.147635,0.094188,-0.284696,0.942487,0.000104,-0.011834,-0.016916,-0.002669,0.005550,-0.001074,0.093480,0.331918,-0.938665
1762621616.698456,-0.147682,0.093957,-0.284962,0.942422,-0.001068,-0.024162,-0.038273,-0.002215,0.024089,-0.012403,0.092926,0.331905,-0.938724
1762621616.700419,-0.147815,0.093676,-0.285264,0.942337,-0.011741,-0.030144,-0.039528,-0.002173,0.044224,-0.020603,0.092217,0.332027,-0.938751
1762621616.763068,-0.148138,0.093422,-0.285519,0.942235,-0.017110,-0.026512,-0.028039,-0.003736,0.063214,-0.022876,0.091458,0.332509,-0.938655
1762621616.763354,-0.148461,0.093168,-0.285773,0.942132,-0.022479,-0.022880,-0.016549,-0.005300,0.082204,-0.025149,0.090700,0.332990,-0.938558
1762621616.765156,-0.148733,0.092962,-0.285823,0.942094,-0.000341,-0.025225,0.004507,-0.008951,0.092698,-0.017568,0.090135,0.333382,-0.938473
1762621616.798111,-0.148702,0.092632,-0.285730,0.942160,0.046491,-0.032758,0.010120,-0.010316,0.096938,-0.015283,0.089571,0.333138,-0.938614
1762621616.798430,-0.148239,0.092144,-0.285700,0.942290,0.097351,-0.030015,0.004559,-0.008929,0.107084,-0.016542,0.088949,0.332018,-0.939070
1762621616.826104,-0.147414,0.091652,-0.285686,0.942471,0.121437,-0.011881,0.016067,-0.006904,0.112028,-0.013135,0.088530,0.330235,-0.939738
1762621616.856029,-0.146382,0.091254,-0.285594,0.942699,0.140690,-0.011981,0.023407,-0.008613,0.110121,-0.008199,0.088439,0.328112,-0.940490
1762621616.857277,-0.145205,0.090780,-0.285518,0.942950,0.152438,-0.017658,0.021444,-0.009385,0.108075,-0.008224,0.088285,0.325681,-0.941349
1762621616.887153,-0.144028,0.090262,-0.285401,0.943215,0.150982,-0.023969,0.027400,-0.008446,0.103785,-0.004116,0.088061,0.323220,-0.942218
1762621616.917998,-0.142948,0.089679,-0.285169,0.943505,0.144038,-0.040072,0.047885,-0.007359,0.098766,0.001576,0.087696,0.320891,-0.943047
1762621616.919307,-0.141970,0.089025,-0.284573,0.943895,0.140621,-0.040311,0.086696,-0.002948,0.083670,-0.001138,0.087259,0.318678,-0.943838
1762621616.948354,-0.140922,0.088376,-0.283723,0.944369,0.156726,-0.049722,0.098770,-0.001975,0.069136,0.000581,0.086953,0.316312,-0.944662
1762621616.957495,-0.139810,0.087662,-0.282865,0.944858,0.162394,-0.052352,0.095888,-0.000622,0.059917,0.003686,0.086562,0.313793,-0.945537
1762621616.987083,-0.138755,0.086951,-0.282054,0.945321,0.149400,-0.049181,0.089657,-0.002065,0.050320,0.008701,0.086120,0.311387,-0.946373
1762621617.016059,-0.137874,0.086297,-0.281253,0.945749,0.131879,-0.053439,0.089757,-0.004812,0.038874,0.019590,0.085676,0.309331,-0.947087
1762621617.016991,-0.137120,0.085624,-0.280428,0.946164,0.126016,-0.060774,0.086880,-0.004509,0.021559,0.023943,0.085123,0.307499,-0.947733
1762621617.054554,-0.136350,0.084831,-0.279667,0.946572,0.142165,-0.069838,0.068619,0.000123,0.004822,0.020528,0.084333,0.305579,-0.948425
1762621617.056804,-0.135406,0.083988,-0.279205,0.946919,0.160601,-0.054537,0.035213,0.004604,-0.009739,0.014055,0.083447,0.303336,-0.949223
1762621617.096958,-0.134264,0.083128,-0.279157,0.947172,0.175740,-0.047523,-0.007352,0.000429,-0.012643,0.011280,0.082511,0.300753,-0.950126
1762621617.098147,-0.132942,0.082256,-0.279508,0.947331,0.177646,-0.028372,-0.034951,0.003429,-0.008719,0.007676,0.081531,0.297863,-0.951121
1762621617.128172,-0.131496,0.081599,-0.279907,0.947472,0.175352,0.004916,-0.022106,0.008835,-0.012105,-0.002193,0.081013,0.294858,-0.952101
1762621617.135004,-0.129793,0.081670,-0.280109,0.947640,0.164188,0.090429,0.028797,0.004012,-0.026175,-0.001404,0.082075,0.291747,-0.952968
1762621617.165286,-0.127804,0.082278,-0.279905,0.947919,0.186511,0.123040,0.069115,-0.007124,-0.047694,0.010641,0.084439,0.288355,-0.953793
1762621617.193593,-0.125482,0.083005,-0.279488,0.948289,0.222967,0.110583,0.081884,-0.020355,-0.062062,0.029654,0.087283,0.284383,-0.954729
1762621617.195525,-0.122909,0.083237,-0.279089,0.948722,0.249479,0.060735,0.068781,-0.017895,-0.061771,0.037531,0.089332,0.279674,-0.955930
1762621617.224765,-0.120300,0.082919,-0.278729,0.949190,0.254611,0.014538,0.064212,-0.007805,-0.057127,0.037070,0.090349,0.274599,-0.957305
1762621617.255456,-0.117745,0.082370,-0.278253,0.949698,0.243224,0.011705,0.095632,0.005727,-0.062089,0.030988,0.090928,0.269483,-0.958703
1762621617.257630,-0.115165,0.081849,-0.277516,0.950275,0.250796,0.018226,0.104984,0.011276,-0.077955,0.022074,0.091638,0.264307,-0.960075
1762621617.286137,-0.112469,0.081396,-0.276896,0.950818,0.264624,0.029684,0.077152,0.007357,-0.081626,0.021441,0.092501,0.258952,-0.961451
1762621617.353469,-0.109806,0.080832,-0.276702,0.951233,0.252255,0.025754,0.056058,0.008884,-0.076964,0.013709,0.093013,0.253636,-0.962817
1762621617.353919,-0.107143,0.080267,-0.276507,0.951642,0.239885,0.021824,0.034965,0.010415,-0.072294,0.005948,0.093520,0.248312,-0.964155
1762621617.354304,-0.104478,0.079702,-0.276309,0.952043,0.227516,0.017895,0.013871,0.011951,-0.067616,-0.001842,0.094023,0.242980,-0.965464
1762621617.354625,-0.102058,0.079328,-0.276422,0.952304,0.201767,0.035100,-0.007841,0.012593,-0.060457,-0.005942,0.094667,0.238237,-0.966582
1762621617.389026,-0.099915,0.079083,-0.276779,0.952447,0.170798,0.040662,-0.030595,0.009925,-0.046389,-0.009826,0.095336,0.234104,-0.967526
1762621617.394984,-0.098104,0.078979,-0.277132,0.952542,0.134654,0.031046,-0.018208,0.005886,-0.038206,-0.003260,0.096086,0.230672,-0.968276
1762621617.430772,-0.096542,0.078812,-0.277299,0.952667,0.111304,0.018799,0.010626,0.006430,-0.033515,-0.006148,0.096621,0.227654,-0.968936
1762621617.431943,-0.095076,0.078704,-0.277103,0.952880,0.109460,0.015370,0.043469,0.009033,-0.041567,-0.006389,0.097299,0.224811,-0.969532
1762621617.461877,-0.093582,0.078550,-0.276704,0.953156,0.122470,0.019442,0.062131,0.010959,-0.049008,-0.009162,0.097952,0.221867,-0.970145
1762621617.494244,-0.091980,0.078446,-0.276154,0.953480,0.147797,0.021428,0.072310,0.011044,-0.059781,-0.002946,0.098792,0.218730,-0.970772
1762621617.496235,-0.090109,0.078200,-0.275694,0.953812,0.183596,0.019813,0.055000,0.010327,-0.063599,-0.003340,0.099491,0.215012,-0.971530
1762621617.524761,-0.087888,0.077829,-0.275382,0.954140,0.217010,0.010744,0.044965,0.008770,-0.061883,-0.001221,0.100114,0.210580,-0.972437
1762621617.555647,-0.085344,0.077405,-0.275107,0.954485,0.241598,0.020617,0.050254,0.003917,-0.059817,0.000602,0.100806,0.205508,-0.973450
1762621617.557718,-0.082499,0.076826,-0.274814,0.954866,0.273003,0.010536,0.048441,0.003110,-0.057096,-0.000845,0.101372,0.199776,-0.974584
1762621617.594283,-0.079435,0.076133,-0.274560,0.955254,0.286567,0.002499,0.051768,0.005372,-0.047793,-0.004039,0.101833,0.193568,-0.975788
1762621617.594495,-0.076385,0.075409,-0.274254,0.955648,0.275747,0.003881,0.054749,0.004306,-0.037734,-0.008051,0.102231,0.187357,-0.976958
1762621617.657016,-0.073741,0.074757,-0.273902,0.956008,0.244391,-0.001934,0.056712,0.003435,-0.028759,-0.006405,0.102542,0.181947,-0.977947
1762621617.657577,-0.068948,0.073531,-0.273122,0.956684,0.174315,-0.007293,0.061292,0.000398,-0.014920,-0.001903,0.103029,0.172089,-0.979679
1762621617.657341,-0.071097,0.074105,-0.273548,0.956360,0.213034,-0.007749,0.058674,0.002571,-0.019778,-0.004788,0.102846,0.176531,-0.978907
1762621617.685591,-0.067239,0.073031,-0.272649,0.956979,0.140898,-0.012707,0.055174,0.000210,-0.011949,-0.002133,0.103113,0.168515,-0.980291
1762621617.715575,-0.065937,0.072551,-0.272210,0.957231,0.103959,-0.014776,0.050029,0.000827,-0.009238,-0.003081,0.102998,0.165732,-0.980777
1762621617.716763,-0.065002,0.072242,-0.271800,0.957434,0.074951,-0.010369,0.040183,0.000138,-0.010716,0.000993,0.102999,0.163741,-0.981112
1762621617.746393,-0.064287,0.072006,-0.271479,0.957591,0.061447,0.002388,0.036470,0.000708,-0.009677,0.000751,0.102999,0.162218,-0.981365
1762621617.776788,-0.063642,0.071882,-0.271131,0.957743,0.054901,0.001076,0.048526,0.000187,-0.007659,-0.003539,0.103179,0.160884,-0.981565
1762621617.779586,-0.063008,0.071921,-0.270558,0.957944,0.053841,0.025195,0.077762,0.000718,-0.013199,-0.006014,0.103698,0.159633,-0.981715
1762621617.808914,-0.062233,0.072058,-0.269795,0.958199,0.068034,0.030940,0.090757,-0.001630,-0.017156,-0.003631,0.104512,0.158145,-0.981869
1762621617.813610,-0.061325,0.072163,-0.269006,0.958471,0.078536,0.024718,0.086851,-0.000229,-0.014679,-0.004408,0.105339,0.156380,-0.982064
1762621617.843025,-0.060443,0.072276,-0.268178,0.958751,0.066838,0.036958,0.094893,0.005253,-0.008909,-0.008650,0.106170,0.154665,-0.982246
1762621617.875527,-0.059692,0.072636,-0.267217,0.959039,0.034180,0.068575,0.121689,0.012683,-0.000246,-0.009667,0.107419,0.153313,-0.982322
1762621617.904859,-0.059425,0.073682,-0.265734,0.959388,-0.000072,0.080532,0.133543,0.006874,-0.003867,-0.005821,0.109797,0.153182,-0.982079
1762621617.905113,-0.059157,0.074728,-0.264251,0.959733,-0.034325,0.092489,0.145397,0.001066,-0.007481,-0.001979,0.112174,0.153044,-0.981832
1762621617.953042,-0.059208,0.075590,-0.263160,0.959962,-0.030934,0.072061,0.135407,0.004420,-0.010663,-0.001688,0.113966,0.153459,-0.981561
1762621617.953446,-0.059258,0.076453,-0.262069,0.960189,-0.027543,0.051634,0.125417,0.007774,-0.013841,-0.001401,0.115758,0.153870,-0.981287
1762621617.954335,-0.059053,0.077127,-0.260936,0.960457,0.010123,0.061449,0.107613,0.002472,-0.021748,-0.004220,0.117336,0.153687,-0.981128
1762621617.988781,-0.058442,0.077484,-0.260313,0.960634,0.070421,0.020074,0.039141,-0.002335,-0.013200,0.006461,0.118440,0.152623,-0.981162
1762621617.992659,-0.057660,0.077311,-0.260202,0.960725,0.076894,-0.009418,0.008942,-0.000156,0.001764,0.002958,0.118542,0.151024,-0.981397
1762621618.021329,-0.056911,0.077073,-0.260155,0.960802,0.074154,-0.001091,0.016642,0.001875,0.003289,-0.001076,0.118493,0.149462,-0.981642
1762621618.051124,-0.056005,0.076905,-0.260071,0.960891,0.092274,-0.000729,0.005994,-0.000932,-0.001170,0.000409,0.118665,0.147631,-0.981898
1762621618.052200,-0.054975,0.076604,-0.260212,0.960937,0.107769,-0.001729,-0.021816,-0.001117,-0.003465,-0.001195,0.118614,0.145521,-0.982219
1762621618.083067,-0.053975,0.076236,-0.260488,0.960948,0.108364,-0.004302,-0.015668,-0.002504,-0.000492,-0.002602,0.118399,0.143452,-0.982549
1762621618.112611,-0.053054,0.075920,-0.260878,0.960918,0.098570,-0.005652,-0.027867,-0.008797,0.005334,0.000357,0.118224,0.141573,-0.982843
1762621618.114250,-0.052265,0.075570,-0.261263,0.960885,0.077155,-0.013473,-0.028985,-0.011351,0.008905,0.002621,0.117918,0.139929,-0.983115
1762621618.143499,-0.051667,0.075172,-0.261621,0.960851,0.061115,-0.019017,-0.032395,-0.007239,0.007041,0.000188,0.117424,0.138621,-0.983359
1762621618.174280,-0.051220,0.074803,-0.261889,0.960831,0.050212,-0.015330,-0.007066,-0.002027,0.003701,-0.004072,0.116919,0.137607,-0.983562
1762621618.176677,-0.050765,0.074637,-0.262093,0.960812,0.058759,0.002003,-0.014815,-0.000817,0.002260,0.001308,0.116814,0.136676,-0.983704
1762621618.209297,-0.050287,0.074462,-0.262264,0.960804,0.054087,0.007571,-0.013993,0.000083,0.004495,-0.002456,0.116709,0.135690,-0.983853
1762621618.211215,-0.049859,0.074425,-0.262395,0.960793,0.045596,0.012712,0.000788,0.000264,0.006258,-0.001032,0.116849,0.134866,-0.983950
1762621618.254882,-0.049458,0.074469,-0.262399,0.960810,0.042330,0.022297,0.007208,-0.000366,0.003228,0.000453,0.117146,0.134120,-0.984017
1762621618.255179,-0.048996,0.074566,-0.262378,0.960831,0.039280,0.023292,0.008266,0.000683,0.004196,0.001513,0.117579,0.133283,-0.984079
1762621618.285791,-0.048579,0.074704,-0.262269,0.960872,0.045446,0.019274,0.022958,0.000058,-0.006277,0.002724,0.118080,0.132541,-0.984119
1762621618.292621,-0.047946,0.074727,-0.262050,0.960961,0.087776,0.019036,0.021917,0.003368,-0.022587,-0.005932,0.118490,0.131313,-0.984234
1762621618.322938,-0.046760,0.074600,-0.261973,0.961051,0.151886,0.015895,0.016330,0.004352,-0.013457,-0.003982,0.118890,0.128963,-0.984497
1762621618.360518,-0.045129,0.074309,-0.261867,0.961180,0.187388,0.013033,0.034470,0.006561,-0.008606,-0.002664,0.119213,0.125672,-0.984883
1762621618.361788,-0.043092,0.073854,-0.261611,0.961379,0.230033,0.012508,0.040540,0.012600,-0.015074,-0.016447,0.119456,0.121498,-0.985377
1762621618.392505,-0.040539,0.073474,-0.261464,0.961559,0.264700,0.040616,0.034919,0.009043,-0.006589,-0.016775,0.120101,0.116384,-0.985916
1762621618.393664,-0.037771,0.073407,-0.261294,0.961723,0.259134,0.079026,0.042140,0.000256,0.005581,-0.007251,0.121456,0.111013,-0.986369
1762621618.431905,-0.035132,0.073500,-0.261074,0.961875,0.245803,0.054407,0.038969,-0.005720,0.006198,0.007339,0.123051,0.105964,-0.986727
1762621618.461279,-0.033142,0.073276,-0.260951,0.961996,0.205343,0.028782,0.027375,-0.005130,0.007783,0.010127,0.123686,0.102007,-0.987064
1762621618.461569,-0.031151,0.073052,-0.260827,0.962113,0.164882,0.003157,0.015780,-0.004539,0.009370,0.012898,0.124318,0.098049,-0.987386
1762621618.473567,-0.029804,0.072689,-0.260875,0.962171,0.114213,-0.007427,-0.004042,-0.001285,0.013297,0.010791,0.124328,0.095278,-0.987656
1762621618.503737,-0.029111,0.072333,-0.261066,0.962167,0.065422,-0.013866,-0.017188,-0.001178,0.008487,0.007895,0.123992,0.093787,-0.987841
1762621618.555932,-0.029018,0.071915,-0.261564,0.962066,0.036409,-0.025038,-0.038083,0.000931,0.005687,0.003789,0.123194,0.093455,-0.987972
1762621618.556275,-0.028924,0.071497,-0.262061,0.961965,0.007396,-0.036209,-0.058979,0.003040,0.002889,-0.000317,0.122396,0.093121,-0.988103
1762621618.556740,-0.029235,0.071201,-0.262471,0.961865,-0.032276,-0.030712,-0.027971,0.008048,-0.001432,-0.004608,0.121624,0.093617,-0.988151
1762621618.593389,-0.029680,0.071019,-0.262738,0.961792,-0.022443,-0.029502,-0.034581,0.007739,-0.015072,-0.010432,0.121014,0.094411,-0.988151
1762621618.593705,-0.029928,0.070905,-0.263147,0.961681,-0.019161,-0.015250,-0.035449,0.002372,0.001211,-0.003621,0.120626,0.094880,-0.988153
1762621618.625532,-0.030254,0.070799,-0.263397,0.961610,-0.040534,-0.025186,-0.007827,-0.000885,0.009886,0.001958,0.120225,0.095481,-0.988144
1762621618.630310,-0.030767,0.070623,-0.263337,0.961623,-0.040794,-0.039478,-0.000401,0.000959,-0.012258,-0.003219,0.119622,0.096369,-0.988131
1762621618.662051,-0.031063,0.070342,-0.263333,0.961636,-0.020852,-0.044647,-0.016075,0.003131,-0.013281,-0.002504,0.118927,0.096790,-0.988174
1762621618.692857,-0.031309,0.069975,-0.263461,0.961619,-0.015420,-0.052002,-0.018918,0.001632,-0.002371,0.003076,0.118081,0.097085,-0.988247
1762621618.694940,-0.031735,0.069523,-0.263484,0.961632,-0.033782,-0.056673,0.009024,0.004418,-0.003043,-0.001217,0.116987,0.097672,-0.988319
1762621618.723291,-0.032114,0.069055,-0.263380,0.961681,-0.026353,-0.049426,-0.008667,0.008436,-0.015847,-0.007717,0.115901,0.098141,-0.988400
1762621618.730965,-0.032412,0.068719,-0.263566,0.961645,-0.029862,-0.054249,-0.044674,0.001692,-0.013653,0.002747,0.115081,0.098562,-0.988454
1762621618.764568,-0.032930,0.068290,-0.264185,0.961488,-0.052419,-0.058616,-0.088025,-0.000087,-0.001987,0.004516,0.113922,0.099406,-0.988504
1762621618.769430,-0.033787,0.067914,-0.264874,0.961295,-0.085717,-0.045144,-0.079004,0.004287,0.003516,-0.007376,0.112671,0.100936,-0.988492
1762621618.799514,-0.034662,0.067885,-0.265410,0.961118,-0.096404,-0.017619,-0.053175,-0.001088,0.001874,-0.003630,0.112092,0.102664,-0.988380
1762621618.853966,-0.035399,0.067959,-0.265663,0.961016,-0.085400,-0.017590,-0.028466,-0.002061,0.005466,-0.002861,0.111811,0.104145,-0.988257
1762621618.854787,-0.036135,0.068032,-0.265917,0.960913,-0.074397,-0.017561,-0.003758,-0.003034,0.009058,-0.002093,0.111529,0.105626,-0.988132
1762621618.854879,-0.036839,0.068212,-0.265820,0.960900,-0.077917,0.013187,0.018738,-0.001289,0.004893,-0.002750,0.111504,0.107062,-0.987980
1762621618.885045,-0.037471,0.068569,-0.265569,0.960920,-0.070527,0.014570,0.020375,-0.001988,0.004039,0.000758,0.111876,0.108433,-0.987788
1762621618.889661,-0.038167,0.068917,-0.265330,0.960934,-0.077432,0.011902,0.025503,-0.003521,0.005246,-0.000424,0.112196,0.109924,-0.987587
1762621618.921583,-0.038974,0.069382,-0.264955,0.960971,-0.093776,0.039319,0.045994,-0.001359,-0.000872,-0.007407,0.112695,0.111672,-0.987334
1762621618.951880,-0.039683,0.069883,-0.264550,0.961018,-0.071600,0.008883,0.023829,-0.004408,-0.011712,0.003156,0.113322,0.113248,-0.987083
1762621618.952153,-0.040332,0.070178,-0.264404,0.961009,-0.069874,0.009659,-0.003707,0.000305,-0.008622,0.002917,0.113556,0.114630,-0.986897
1762621618.989552,-0.041076,0.070430,-0.264550,0.960919,-0.083271,0.009429,-0.034703,0.000362,-0.007251,-0.001327,0.113622,0.116207,-0.986705
1762621618.991026,-0.041860,0.070708,-0.264981,0.960746,-0.080892,0.012403,-0.057862,0.000715,-0.007986,-0.002473,0.113681,0.117906,-0.986496
1762621619.021807,-0.042424,0.070878,-0.265503,0.960565,-0.060523,0.012889,-0.059666,0.002271,-0.005079,-0.005217,0.113639,0.119138,-0.986353
1762621619.051321,-0.042799,0.071140,-0.265996,0.960392,-0.035149,0.020981,-0.045719,-0.000340,0.002977,0.000085,0.113876,0.120054,-0.986215
1762621619.053077,-0.043011,0.071391,-0.266304,0.960279,-0.037519,0.019343,-0.018127,-0.002069,0.015464,0.005447,0.114203,0.120628,-0.986107
1762621619.082248,-0.043293,0.071591,-0.266267,0.960262,-0.045295,0.013943,0.021877,-0.000386,0.010612,-0.000689,0.114436,0.121270,-0.986001
1762621619.113088,-0.043554,0.071804,-0.266013,0.960304,-0.027902,0.007914,0.022749,0.000135,0.000382,-0.002518,0.114735,0.121852,-0.985894
1762621619.114143,-0.043737,0.071925,-0.265837,0.960336,-0.014194,0.006412,0.007355,0.000204,-0.003058,-0.003532,0.114891,0.122246,-0.985828
1762621619.154846,-0.043942,0.072061,-0.265746,0.960341,-0.016465,0.004919,0.011037,0.000465,0.001590,0.001432,0.115051,0.122698,-0.985753
1762621619.156803,-0.044191,0.072234,-0.265663,0.960340,-0.026391,0.007600,0.002495,-0.000710,-0.003446,0.006482,0.115259,0.123257,-0.985659
1762621619.193505,-0.044458,0.072305,-0.265636,0.960330,-0.027946,-0.009804,-0.007864,0.000898,-0.007610,0.004339,0.115254,0.123802,-0.985591
1762621619.193837,-0.044748,0.072256,-0.265771,0.960282,-0.033210,-0.008921,-0.023893,0.004744,-0.006251,-0.002408,0.114987,0.124349,-0.985553
1762621619.223029,-0.045204,0.072282,-0.265993,0.960198,-0.048897,-0.011269,-0.029455,0.000218,-0.001384,0.002158,0.114762,0.125263,-0.985464
1762621619.230100,-0.045745,0.072215,-0.266156,0.960132,-0.052521,-0.021653,-0.019313,0.003305,-0.005659,-0.006708,0.114322,0.126284,-0.985385
1762621619.260026,-0.046191,0.072170,-0.266271,0.960082,-0.032236,-0.016939,-0.011569,0.004141,-0.007374,-0.005625,0.113980,0.127127,-0.985316
1762621619.290776,-0.046381,0.072128,-0.266379,0.960046,-0.015443,-0.002472,-0.022535,0.002840,-0.003125,-0.004783,0.113783,0.127482,-0.985293
1762621619.291076,-0.046483,0.072104,-0.266540,0.959998,-0.014514,-0.008866,-0.006349,0.003841,0.007617,0.001775,0.113659,0.127685,-0.985281
1762621619.322561,-0.046698,0.072129,-0.266460,0.960008,-0.034934,0.000477,0.016737,0.003025,0.007244,-0.000993,0.113603,0.128100,-0.985233
1762621619.328867,-0.047039,0.072256,-0.266194,0.960056,-0.045565,-0.008007,0.030987,0.002433,0.000903,0.001557,0.113698,0.128788,-0.985133
1762621619.359138,-0.047465,0.072311,-0.265956,0.960096,-0.048498,-0.010276,0.008350,0.005578,-0.004047,-0.001158,0.113605,0.129606,-0.985036
1762621619.393102,-0.048004,0.072394,-0.265883,0.960084,-0.060479,-0.010343,-0.002605,0.004090,0.001762,0.003518,0.113482,0.130672,-0.984910
1762621619.393140,-0.048724,0.072381,-0.265910,0.960041,-0.069418,-0.026559,-0.012797,0.003089,0.003001,0.003171,0.113064,0.132048,-0.984774
1762621619.453372,-0.049385,0.072268,-0.265979,0.959997,-0.057174,-0.031779,-0.011559,0.001079,0.001654,0.003207,0.112484,0.133263,-0.984677
1762621619.453515,-0.050046,0.072156,-0.266048,0.959952,-0.044931,-0.036999,-0.010321,-0.000930,0.000307,0.003240,0.111903,0.134477,-0.984578
1762621619.454312,-0.050552,0.071929,-0.266066,0.959937,-0.037971,-0.038570,0.003965,-0.001483,0.005849,0.001408,0.111194,0.135330,-0.984541
1762621619.483467,-0.051000,0.071711,-0.265837,0.959993,-0.037281,-0.032190,0.027854,0.001278,0.004742,-0.003142,0.110569,0.136046,-0.984513
1762621619.489954,-0.051388,0.071615,-0.265477,0.960080,-0.031567,-0.019452,0.032379,-0.001437,-0.000853,-0.003572,0.110227,0.136698,-0.984461
1762621619.519884,-0.051666,0.071561,-0.265187,0.960149,-0.022636,-0.012108,0.015877,-0.002316,-0.003339,-0.004694,0.110016,0.137167,-0.984419
1762621619.549934,-0.051893,0.071514,-0.265112,0.960161,-0.014918,-0.008740,0.000925,-0.001631,0.000559,-0.001445,0.109815,0.137570,-0.984386
1762621619.579386,-0.052084,0.071470,-0.265138,0.960147,-0.008194,-0.007281,-0.002256,-0.001383,0.001008,-0.002121,0.109625,0.137915,-0.984359
1762621619.580276,-0.052110,0.071469,-0.265118,0.960151,0.001950,0.003277,0.003950,-0.003094,0.007132,-0.002868,0.109612,0.137962,-0.984353
1762621619.610368,-0.052033,0.071527,-0.265022,0.960177,-0.002240,0.019088,0.016356,-0.003779,0.015295,-0.002384,0.109778,0.137835,-0.984353
1762621619.622268,-0.052077,0.071842,-0.264767,0.960221,-0.025526,0.032681,0.040703,-0.004237,0.015295,-0.000111,0.110392,0.138055,-0.984253
1762621619.656728,-0.052321,0.072354,-0.264372,0.960278,-0.043958,0.051209,0.040022,-0.004100,0.001599,-0.000381,0.111295,0.138743,-0.984055
1762621619.658127,-0.052597,0.072860,-0.264057,0.960312,-0.032466,0.029804,0.013227,-0.004229,-0.012719,0.002165,0.112159,0.139497,-0.983850
1762621619.687835,-0.052854,0.073141,-0.264130,0.960256,-0.019059,0.020961,-0.025323,-0.002132,-0.013201,0.005601,0.112548,0.140144,-0.983714
1762621619.689858,-0.053131,0.073279,-0.264539,0.960118,-0.022497,0.006807,-0.055387,-0.002402,-0.007577,0.003946,0.112602,0.140794,-0.983615
1762621619.718432,-0.053434,0.073296,-0.265116,0.959941,-0.027707,-0.006222,-0.065152,0.000703,-0.007231,-0.003306,0.112388,0.141451,-0.983545
1762621619.754102,-0.053648,0.073214,-0.265714,0.959769,-0.015937,-0.005007,-0.061554,0.001769,-0.003947,-0.005209,0.112028,0.141888,-0.983523
1762621619.756225,-0.053660,0.073098,-0.266206,0.959641,0.000042,-0.011307,-0.039282,-0.000064,0.005260,-0.000067,0.111726,0.141906,-0.983555
1762621619.769386,-0.053667,0.072912,-0.266411,0.959598,-0.010862,-0.015676,0.001130,0.000881,0.018078,-0.000187,0.111337,0.141846,-0.983608
1762621619.801615,-0.053868,0.072893,-0.266145,0.959662,-0.033932,-0.005539,0.041230,0.003620,0.010404,-0.003542,0.111232,0.142190,-0.983570
1762621619.831774,-0.054184,0.073025,-0.265643,0.959773,-0.038192,-0.001309,0.046752,0.002073,-0.002899,0.000139,0.111388,0.142806,-0.983463
1762621619.831960,-0.054500,0.073145,-0.265231,0.959860,-0.028038,0.000439,0.030561,0.003491,-0.010014,0.001492,0.111509,0.143426,-0.983359
1762621619.859822,-0.054844,0.073249,-0.265024,0.959890,-0.027981,0.003890,0.009096,0.002561,-0.009061,0.000419,0.111552,0.144114,-0.983253
1762621619.889613,-0.055216,0.073392,-0.264978,0.959870,-0.028866,-0.002778,-0.005384,0.003231,-0.011359,-0.000642,0.111632,0.144896,-0.983129
1762621619.890875,-0.055517,0.073405,-0.265151,0.959804,-0.027909,-0.004714,-0.025753,0.002117,-0.009242,-0.002293,0.111468,0.145498,-0.983059
1762621619.943129,-0.055660,0.073481,-0.265492,0.959696,-0.022189,0.002032,-0.031591,0.001329,-0.005581,-0.002778,0.111484,0.145851,-0.983005
1762621619.943451,-0.055803,0.073557,-0.265832,0.959588,-0.016469,0.008778,-0.037429,0.000541,-0.001921,-0.003264,0.111500,0.146204,-0.982951
1762621619.947797,-0.055905,0.073689,-0.266136,0.959488,-0.014356,0.012305,-0.030125,-0.000434,-0.001372,-0.004022,0.111650,0.146504,-0.982889
1762621619.978247,-0.055975,0.073909,-0.266419,0.959388,-0.021383,0.024616,-0.028015,0.000928,0.002165,-0.006825,0.111988,0.146784,-0.982809
1762621619.992119,-0.056086,0.074139,-0.266679,0.959292,-0.025290,0.016889,-0.025186,-0.001496,0.002747,-0.001355,0.112327,0.147149,-0.982716
1762621620.054475,-0.056360,0.074312,-0.266912,0.959197,-0.031237,0.011998,-0.027311,-0.000440,0.001410,-0.000693,0.112473,0.147791,-0.982603
1762621620.054787,-0.056634,0.074485,-0.267144,0.959103,-0.037184,0.007107,-0.029435,0.000616,0.000072,-0.000031,0.112619,0.148432,-0.982489
1762621620.056239,-0.056994,0.074629,-0.267434,0.958990,-0.036677,0.000873,-0.031553,-0.000342,0.001305,0.005321,0.112653,0.149231,-0.982364
1762621620.084661,-0.057356,0.074626,-0.267723,0.958888,-0.029280,-0.012045,-0.030322,0.000446,0.002388,0.002225,0.112404,0.149955,-0.982282
1762621620.086742,-0.057661,0.074555,-0.267974,0.958805,-0.021903,-0.014502,-0.024797,0.002021,0.004439,0.001677,0.112065,0.150529,-0.982233
1762621620.116168,-0.057938,0.074472,-0.268158,0.958743,-0.020726,-0.018334,-0.018004,-0.000050,0.005114,0.001726,0.111726,0.151036,-0.982194
1762621620.146608,-0.058202,0.074273,-0.268255,0.958715,-0.015342,-0.018587,-0.006973,0.003255,0.005737,-0.004874,0.111188,0.151446,-0.982192
1762621620.147875,-0.058423,0.074196,-0.268276,0.958702,-0.011077,-0.008194,-0.002461,0.003104,0.003855,-0.005204,0.110916,0.151831,-0.982163
1762621620.179009,-0.058571,0.074223,-0.268258,0.958696,-0.008945,-0.000657,0.001734,0.001250,0.002334,-0.001626,0.110891,0.152126,-0.982121
1762621620.211577,-0.058669,0.074188,-0.268248,0.958695,0.001565,-0.015121,-0.000584,0.001074,0.000788,0.000327,0.110773,0.152292,-0.982108
1762621620.213697,-0.058679,0.074057,-0.268247,0.958705,0.005717,-0.017628,-0.001900,0.001854,0.000772,0.001398,0.110517,0.152243,-0.982145
1762621620.245387,-0.058661,0.073876,-0.268309,0.958703,0.008117,-0.015181,-0.005422,0.003243,0.000363,-0.001511,0.110171,0.152120,-0.982202
1762621620.248980,-0.058614,0.073734,-0.268326,0.958712,0.013680,-0.014051,-0.005396,0.001129,-0.000665,0.000361,0.109925,0.151958,-0.982255
1762621620.277310,-0.058543,0.073553,-0.268380,0.958715,0.014111,-0.015915,-0.005393,-0.000031,-0.000630,0.000617,0.109609,0.151733,-0.982325
1762621620.307470,-0.058483,0.073333,-0.268455,0.958715,0.005295,-0.019145,-0.007737,0.000253,0.000372,-0.000422,0.109211,0.151511,-0.982404
1762621620.308346,-0.058544,0.073188,-0.268539,0.958698,-0.003832,-0.019662,-0.013832,-0.000410,0.001977,0.001434,0.108887,0.151560,-0.982432
1762621620.354412,-0.058706,0.073035,-0.268635,0.958674,-0.016452,-0.017327,-0.015697,0.000179,0.000887,-0.000266,0.108492,0.151799,-0.982439
1762621620.355617,-0.058978,0.072855,-0.268800,0.958624,-0.021074,-0.025530,-0.020468,-0.001791,-0.000391,-0.000304,0.107974,0.152243,-0.982427
1762621620.388108,-0.059299,0.072698,-0.268977,0.958567,-0.023635,-0.027748,-0.022751,-0.003081,-0.000339,0.000664,0.107472,0.152792,-0.982397
1762621620.388402,-0.059611,0.072468,-0.269158,0.958514,-0.015254,-0.031140,-0.021681,-0.003548,0.000923,-0.000377,0.106834,0.153286,-0.982390
1762621620.417188,-0.059828,0.072209,-0.269302,0.958480,-0.008987,-0.029812,-0.015190,-0.003021,0.002730,-0.001126,0.106198,0.153580,-0.982413
1762621620.448289,-0.059977,0.071967,-0.269382,0.958466,-0.006502,-0.021725,-0.006195,-0.003911,0.003991,0.001374,0.105643,0.153745,-0.982447
1762621620.449199,-0.060055,0.071801,-0.269393,0.958470,0.001002,-0.017815,-0.001264,-0.004031,0.003024,0.004189,0.105282,0.153808,-0.982476
1762621620.479262,-0.060024,0.071555,-0.269415,0.958485,0.012813,-0.022931,-0.003019,-0.001863,0.003304,0.002745,0.104826,0.153620,-0.982554
1762621620.508450,-0.059963,0.071303,-0.269470,0.958492,0.011688,-0.014440,-0.005465,0.000761,0.004406,-0.003521,0.104370,0.153377,-0.982641
1762621620.510671,-0.059959,0.071167,-0.269511,0.958491,0.002433,-0.011069,0.000628,-0.000521,0.004599,-0.004365,0.104106,0.153301,-0.982680
1762621620.545742,-0.060035,0.071049,-0.269512,0.958494,-0.007003,-0.004280,-0.000915,0.002047,0.001314,-0.007367,0.103840,0.153384,-0.982696
1762621620.547819,-0.060153,0.071103,-0.269534,0.958476,-0.008076,0.001527,-0.005928,0.000913,-0.002341,-0.004547,0.103874,0.153640,-0.982652
1762621620.579339,-0.060268,0.071156,-0.269623,0.958440,-0.008866,0.006359,-0.005948,-0.000372,-0.003224,-0.008235,0.103898,0.153898,-0.982609
1762621620.608357,-0.060350,0.071312,-0.269664,0.958412,-0.013385,0.017083,-0.001340,0.001949,-0.002428,-0.006808,0.104144,0.154142,-0.982545
1762621620.610442,-0.060464,0.071546,-0.269631,0.958397,-0.014143,0.021348,0.003981,-0.001175,-0.004729,-0.005822,0.104534,0.154479,-0.982450
1762621620.658082,-0.060514,0.071758,-0.269650,0.958372,-0.011774,0.016980,-0.002524,0.000137,-0.003172,-0.003347,0.104907,0.154690,-0.982377
1762621620.658376,-0.060565,0.071970,-0.269668,0.958348,-0.009405,0.012613,-0.009029,0.001449,-0.001616,-0.000873,0.105280,0.154901,-0.982304
1762621620.687171,-0.060617,0.072173,-0.269761,0.958303,-0.010338,0.013531,-0.009251,0.000401,0.000277,0.005096,0.105624,0.155118,-0.982233
1762621620.689259,-0.060677,0.072283,-0.269898,0.958253,-0.010715,0.010120,-0.014983,0.001339,0.000225,0.003948,0.105778,0.155305,-0.982187
1762621620.718313,-0.060755,0.072345,-0.270056,0.958199,-0.012462,0.001598,-0.021645,0.000950,0.002229,0.000648,0.105828,0.155504,-0.982150
1762621620.749064,-0.060905,0.072386,-0.270259,0.958129,-0.021344,0.009165,-0.016293,0.001878,0.001004,0.001510,0.105789,0.155835,-0.982102
1762621620.770300,-0.061068,0.072464,-0.270438,0.958062,-0.016155,0.004522,-0.024695,-0.002051,-0.000892,0.001696,0.105819,0.156209,-0.982039
1762621620.771660,-0.061204,0.072394,-0.270711,0.957982,-0.000042,-0.017247,-0.033246,-0.000132,0.001020,0.001417,0.105567,0.156459,-0.982027
1762621620.799952,-0.061289,0.072261,-0.271019,0.957899,-0.005213,-0.008299,-0.026960,0.002000,0.005629,-0.000922,0.105217,0.156585,-0.982044
1762621620.807598,-0.061370,0.072214,-0.271188,0.957850,-0.004507,-0.006190,-0.012766,0.001514,0.004775,0.000439,0.105054,0.156734,-0.982038
1762621620.837704,-0.061425,0.072120,-0.271291,0.957824,0.006907,-0.012109,-0.006152,-0.000737,-0.000181,-0.001222,0.104829,0.156800,-0.982051
1762621620.890499,-0.061238,0.071959,-0.271351,0.957831,0.021442,-0.010443,-0.002339,0.000196,0.001044,-0.001912,0.104615,0.156363,-0.982144
1762621620.890802,-0.061051,0.071797,-0.271410,0.957839,0.035977,-0.008777,0.001474,0.001130,0.002270,-0.002603,0.104400,0.155926,-0.982236
1762621620.892529,-0.060761,0.071650,-0.271409,0.957868,0.035801,-0.002784,0.006170,0.000392,0.002125,-0.003421,0.104281,0.155296,-0.982349
1762621620.953790,-0.060489,0.071549,-0.271404,0.957894,0.028666,-0.000596,0.000846,0.000001,-0.000127,-0.003102,0.104239,0.154723,-0.982443
1762621620.953977,-0.060218,0.071448,-0.271399,0.957920,0.021531,0.001591,-0.004479,-0.000390,-0.002380,-0.002783,0.104197,0.154149,-0.982538
1762621620.954475,-0.060067,0.071373,-0.271505,0.957905,0.013052,-0.003098,-0.013345,-0.000169,-0.002170,-0.003322,0.104121,0.153834,-0.982596
1762621620.992085,-0.060043,0.071380,-0.271649,0.957865,-0.001821,0.000793,-0.009704,0.000846,-0.001217,-0.002090,0.104124,0.153807,-0.982599
1762621620.993280,-0.060083,0.071439,-0.271779,0.957822,-0.011691,0.007710,-0.014330,0.000018,-0.000762,-0.000876,0.104193,0.153930,-0.982573
1762621621.024532,-0.060214,0.071480,-0.271916,0.957772,-0.013833,-0.002407,-0.010907,-0.000556,-0.001177,0.001058,0.104177,0.154216,-0.982530
1762621621.026295,-0.060357,0.071446,-0.272039,0.957730,-0.008576,-0.010674,-0.014093,-0.001194,-0.002309,0.002501,0.104014,0.154484,-0.982505
1762621621.056794,-0.060482,0.071392,-0.272176,0.957687,-0.012031,-0.006614,-0.011783,0.000580,0.000706,-0.002022,0.103819,0.154709,-0.982490
1762621621.088257,-0.060626,0.071388,-0.272266,0.957653,-0.014682,0.000969,-0.006091,0.000673,-0.001367,-0.001317,0.103717,0.154989,-0.982457
1762621621.088581,-0.060745,0.071403,-0.272318,0.957630,-0.009070,-0.002542,-0.006625,-0.000292,-0.001317,-0.000174,0.103671,0.155230,-0.982424
1762621621.116134,-0.060815,0.071423,-0.272353,0.957614,-0.006217,0.005165,-0.003121,0.001076,-0.002443,-0.000347,0.103664,0.155378,-0.982401
1762621621.146715,-0.060842,0.071466,-0.272389,0.957599,0.000436,0.006611,-0.006612,0.002019,-0.005380,-0.004998,0.103726,0.155457,-0.982382
1762621621.148818,-0.060816,0.071575,-0.272511,0.957557,0.004207,0.016023,-0.016860,0.001955,-0.005694,-0.004397,0.103928,0.155480,-0.982357
1762621621.178390,-0.060727,0.071662,-0.272698,0.957503,0.004518,0.008326,-0.023860,-0.000993,-0.003483,0.001249,0.104113,0.155377,-0.982354
1762621621.184884,-0.060729,0.071645,-0.272951,0.957432,-0.000989,-0.007411,-0.021148,0.000264,0.000729,0.000153,0.104037,0.155399,-0.982358
1762621621.252415,-0.060842,0.071778,-0.272970,0.957410,-0.008564,0.003165,-0.010651,0.000252,0.000937,0.000540,0.104225,0.155687,-0.982293
1762621621.252740,-0.060954,0.071911,-0.272990,0.957387,-0.016139,0.013741,-0.000153,0.000241,0.001144,0.000928,0.104413,0.155975,-0.982227
1762621621.253008,-0.061067,0.072044,-0.273009,0.957364,-0.023714,0.024317,0.010344,0.000229,0.001351,0.001315,0.104601,0.156263,-0.982161
1762621621.286571,-0.061263,0.072291,-0.272845,0.957380,-0.028504,0.021676,0.016111,-0.000684,0.001035,0.000616,0.104990,0.156753,-0.982042
1762621621.286879,-0.061514,0.072462,-0.272740,0.957381,-0.028630,0.003146,0.000336,0.001954,0.002022,0.002771,0.105193,0.157310,-0.981931
1762621621.324978,-0.061833,0.072575,-0.272754,0.957348,-0.041302,0.005307,-0.006072,0.004976,0.005118,-0.001702,0.105229,0.157981,-0.981819
1762621621.325799,-0.062234,0.072741,-0.272842,0.957284,-0.041571,0.005179,-0.014076,0.001656,0.002122,0.001784,0.105307,0.158846,-0.981671
1762621621.355828,-0.062567,0.072795,-0.272996,0.957214,-0.025304,-0.005471,-0.021916,0.002441,-0.000535,0.001825,0.105200,0.159526,-0.981572
1762621621.387107,-0.062767,0.072723,-0.273200,0.957148,-0.005580,-0.015212,-0.024568,0.001428,0.003469,0.000193,0.104917,0.159891,-0.981543
1762621621.388281,-0.062860,0.072642,-0.273385,0.957096,-0.000315,-0.018616,-0.015429,0.000142,0.005580,0.004787,0.104682,0.160044,-0.981543
1762621621.419515,-0.062914,0.072512,-0.273434,0.957088,-0.000018,-0.018900,-0.001940,-0.002751,0.006060,0.005446,0.104394,0.160084,-0.981568
1762621621.448829,-0.062861,0.072208,-0.273394,0.957126,0.009439,-0.026027,0.007519,0.001635,0.006533,-0.004526,0.103853,0.159813,-0.981669
1762621621.450419,-0.062846,0.072050,-0.273306,0.957164,0.009179,-0.011842,0.011314,-0.001828,0.003260,-0.000235,0.103575,0.159692,-0.981718
1762621621.479648,-0.062789,0.071954,-0.273166,0.957215,0.010467,-0.008295,0.019380,-0.002035,-0.000392,-0.001542,0.103446,0.159516,-0.981760
1762621621.481732,-0.062700,0.071831,-0.273024,0.957271,0.023330,-0.014848,0.009720,-0.002312,-0.003957,-0.000907,0.103287,0.159264,-0.981818
1762621621.510974,-0.062527,0.071587,-0.272940,0.957324,0.028219,-0.016683,0.006920,-0.002250,-0.004972,-0.002713,0.102932,0.158796,-0.981931
1762621621.552458,-0.062254,0.071362,-0.272968,0.957351,0.031157,-0.014881,0.000427,-0.001521,-0.003174,-0.003446,0.102649,0.158157,-0.982064
1762621621.552705,-0.061981,0.071136,-0.272995,0.957377,0.034095,-0.013080,-0.006067,-0.000791,-0.001376,-0.004179,0.102367,0.157519,-0.982196
1762621621.585676,-0.061753,0.071047,-0.273050,0.957383,0.019491,-0.003970,-0.002932,-0.000763,-0.001885,0.000277,0.102315,0.157042,-0.982278
1762621621.585976,-0.061596,0.070932,-0.273135,0.957378,0.009034,-0.005475,-0.009122,-0.000690,-0.003953,-0.003743,0.102170,0.156689,-0.982349
1762621621.614647,-0.061521,0.070877,-0.273286,0.957343,0.003830,0.001231,-0.015789,0.000054,-0.005036,-0.004553,0.102081,0.156534,-0.982383
1762621621.645552,-0.061580,0.070931,-0.273483,0.957279,-0.015655,0.010821,-0.022279,-0.000311,-0.002294,-0.002239,0.102120,0.156696,-0.982353
1762621621.646761,-0.061815,0.070998,-0.273705,0.957196,-0.029945,0.006395,-0.025779,0.000259,-0.000934,-0.003322,0.102079,0.157203,-0.982276
1762621621.664937,-0.062123,0.071207,-0.273941,0.957093,-0.044339,0.014559,-0.022020,0.000618,0.001085,-0.001503,0.102268,0.157929,-0.982140
1762621621.695001,-0.062517,0.071393,-0.274083,0.957012,-0.045408,0.005676,-0.017376,-0.000169,-0.001206,-0.001375,0.102379,0.158794,-0.981989
1762621621.725423,-0.062898,0.071534,-0.274186,0.956947,-0.041827,0.007895,-0.010111,0.002440,-0.001578,-0.000294,0.102417,0.159607,-0.981854
1762621621.725729,-0.063228,0.071673,-0.274273,0.956890,-0.037136,0.010640,-0.007756,0.001869,-0.000674,0.000271,0.102484,0.160322,-0.981730
1762621621.753439,-0.063537,0.071848,-0.274342,0.956837,-0.029797,0.007116,-0.010267,0.004349,-0.003503,0.002805,0.102633,0.161011,-0.981602
1762621621.785660,-0.063774,0.072017,-0.274416,0.956787,-0.021035,0.008224,-0.010533,0.003938,-0.007595,0.004387,0.102809,0.161563,-0.981493
1762621621.787649,-0.063874,0.072052,-0.274626,0.956718,-0.005617,-0.002131,-0.026173,0.006581,-0.005988,-0.001781,0.102783,0.161794,-0.981457
1762621621.815967,-0.063974,0.072053,-0.274897,0.956633,-0.010593,-0.006278,-0.022549,0.001559,0.001321,0.001977,0.102684,0.162013,-0.981431
1762621621.823884,-0.064133,0.071959,-0.275131,0.956563,-0.018862,-0.017616,-0.020370,0.001630,0.004375,-0.000531,0.102376,0.162291,-0.981418
1762621621.855926,-0.064388,0.071813,-0.275230,0.956528,-0.029088,-0.027415,-0.004059,-0.000353,0.006587,-0.002401,0.101939,0.162709,-0.981394
1762621621.893715,-0.064703,0.071824,-0.275033,0.956562,-0.029170,-0.010720,0.010575,0.000804,0.002338,-0.003074,0.101817,0.163293,-0.981310
1762621621.893996,-0.065018,0.071835,-0.274836,0.956597,-0.029252,0.005975,0.025209,0.001962,-0.001911,-0.003747,0.101695,0.163877,-0.981225
1762621621.922631,-0.065262,0.071972,-0.274520,0.956661,-0.025870,0.001471,0.030702,-0.002529,0.000787,-0.000616,0.101873,0.164383,-0.981122
1762621621.924236,-0.065522,0.072031,-0.274251,0.956716,-0.024394,-0.013088,0.018487,-0.001438,-0.001618,0.004536,0.101888,0.164880,-0.981037
1762621621.953730,-0.065788,0.071967,-0.274111,0.956742,-0.022541,-0.015693,0.003573,0.001403,0.000139,0.003754,0.101641,0.165337,-0.980986
1762621621.995094,-0.066056,0.071928,-0.274132,0.956721,-0.019554,-0.011005,-0.004762,-0.000052,-0.000389,0.002504,0.101413,0.165830,-0.980926
1762621621.995417,-0.066325,0.071889,-0.274154,0.956699,-0.016566,-0.006317,-0.013097,-0.001506,-0.000917,0.001253,0.101185,0.166323,-0.980866
1762621622.023806,-0.066463,0.071772,-0.274290,0.956659,-0.003644,-0.018852,-0.018907,-0.002389,0.001453,-0.001066,0.100862,0.166537,-0.980863
1762621622.024507,-0.066493,0.071610,-0.274438,0.956627,-0.001439,-0.008604,-0.008530,-0.002092,0.007068,-0.004080,0.100511,0.166523,-0.980901
1762621622.055702,-0.066524,0.071509,-0.274459,0.956626,-0.001846,-0.009548,0.004010,-0.005205,0.006163,0.000151,0.100298,0.166529,-0.980922
1762621622.085148,-0.066536,0.071379,-0.274349,0.956666,0.012235,-0.021363,0.005770,-0.000769,-0.001042,0.001329,0.100064,0.166470,-0.980956
1762621622.086757,-0.066443,0.071240,-0.274300,0.956697,0.006950,0.002932,0.003719,0.001650,0.002265,-0.005284,0.099860,0.166214,-0.981020
1762621622.193605,-0.066359,0.071254,-0.274250,0.956716,0.006855,0.006359,0.009005,-0.001173,-0.000258,0.000396,0.099942,0.166057,-0.981039
1762621622.200771,-0.066329,0.071317,-0.274178,0.956735,0.008077,0.006037,0.001149,-0.001716,-0.003704,0.002663,0.100091,0.166025,-0.981029
1762621622.200834,-0.066202,0.071216,-0.274242,0.956732,0.016604,-0.011013,-0.010563,0.000854,-0.000384,0.000214,0.099959,0.165736,-0.981091
1762621622.200891,-0.066113,0.071120,-0.274361,0.956712,0.008027,0.001492,-0.005976,0.001600,0.003032,-0.003329,0.099805,0.165527,-0.981142
1762621622.207527,-0.066069,0.071095,-0.274404,0.956704,0.002578,0.000647,-0.001141,0.001298,0.002494,-0.002735,0.099775,0.165434,-0.981161
1762621622.207845,-0.066068,0.071095,-0.274405,0.956704,-0.003781,-0.000144,-0.001974,0.001405,0.003162,-0.002052,0.099775,0.165432,-0.981161
1762621622.228179,-0.066181,0.071112,-0.274451,0.956682,-0.014851,-0.003673,-0.004875,0.000769,0.001948,-0.000698,0.099735,0.165662,-0.981126
1762621622.259694,-0.066349,0.071091,-0.274456,0.956670,-0.016696,-0.006043,0.000472,0.004696,0.001338,-0.000737,0.099602,0.165972,-0.981088
1762621622.259830,-0.066570,0.071067,-0.274476,0.956651,-0.011579,-0.014983,-0.010708,0.003686,0.000235,0.003314,0.099430,0.166381,-0.981036
1762621622.288863,-0.066758,0.070960,-0.274536,0.956629,-0.012021,-0.016364,0.001685,0.001386,0.002436,0.002889,0.099109,0.166687,-0.981016
1762621622.325856,-0.066893,0.070771,-0.274563,0.956625,-0.000835,-0.020090,-0.010257,0.001940,0.000089,0.001002,0.098669,0.166846,-0.981034
1762621622.327862,-0.066945,0.070599,-0.274541,0.956641,0.002373,-0.022631,0.002868,0.001257,0.001759,0.002201,0.098316,0.166849,-0.981068
1762621622.361783,-0.066913,0.070360,-0.274450,0.956687,0.009585,-0.029415,0.008535,-0.000095,0.000757,0.002046,0.097897,0.166650,-0.981144
1762621622.395518,-0.066887,0.070099,-0.274312,0.956747,0.006183,-0.023910,0.014750,0.000486,0.000932,-0.001029,0.097438,0.166445,-0.981225
1762621622.453860,-0.066866,0.069955,-0.274180,0.956797,0.006289,-0.022118,0.011515,0.000250,0.000007,-0.001455,0.097199,0.166314,-0.981271
1762621622.453886,-0.066845,0.069811,-0.274048,0.956847,0.006394,-0.020326,0.008281,0.000014,-0.000918,-0.001882,0.096960,0.166183,-0.981316
1762621622.454102,-0.066823,0.069667,-0.273916,0.956897,0.006499,-0.018535,0.005046,-0.000222,-0.001842,-0.002309,0.096721,0.166052,-0.981362
1762621622.460504,-0.066818,0.069565,-0.273850,0.956923,0.001864,-0.010212,0.002346,-0.002200,-0.002051,-0.000353,0.096541,0.165980,-0.981392
1762621622.501810,-0.066857,0.069420,-0.273824,0.956939,-0.001969,-0.015838,-0.002976,-0.003271,-0.001757,-0.001178,0.096248,0.165973,-0.981422
1762621622.503118,-0.066944,0.069295,-0.273834,0.956939,-0.006222,-0.011969,-0.003486,-0.002888,-0.002649,-0.002808,0.095959,0.166073,-0.981433
1762621622.559110,-0.067012,0.069305,-0.273846,0.956930,-0.008566,0.000868,-0.000145,-0.002737,-0.001728,-0.003167,0.095937,0.166209,-0.981413
1762621622.559372,-0.067080,0.069314,-0.273859,0.956921,-0.010911,0.013705,0.003196,-0.002586,-0.000808,-0.003526,0.095915,0.166345,-0.981392
1762621622.560896,-0.067148,0.069447,-0.273833,0.956914,-0.016778,0.017937,0.003522,-0.003922,0.001594,-0.004017,0.096135,0.166543,-0.981337
1762621622.593601,-0.067306,0.069642,-0.273800,0.956898,-0.028158,0.016948,0.003954,-0.003238,0.002700,-0.002985,0.096423,0.166946,-0.981240
1762621622.624050,-0.067563,0.069864,-0.273778,0.956870,-0.040681,0.018033,-0.001946,-0.001207,0.002309,-0.001813,0.096708,0.167552,-0.981108
1762621622.625448,-0.067920,0.070115,-0.273805,0.956818,-0.046152,0.016856,-0.006083,-0.000922,0.000503,-0.000198,0.096980,0.168370,-0.980942
1762621622.659606,-0.068311,0.070336,-0.273877,0.956754,-0.040211,0.014144,-0.013098,-0.001333,-0.001685,0.001289,0.097170,0.169240,-0.980773
1762621622.660827,-0.068625,0.070466,-0.274017,0.956682,-0.027616,0.005875,-0.018280,-0.000712,-0.001177,0.000284,0.097218,0.169921,-0.980651
1762621622.691706,-0.068841,0.070560,-0.274196,0.956608,-0.017002,0.004790,-0.016006,0.000351,0.000675,0.001612,0.097244,0.170402,-0.980564
1762621622.753312,-0.068897,0.070540,-0.274311,0.956572,-0.010408,0.006132,-0.014209,0.001428,0.000300,0.000155,0.097156,0.170510,-0.980555
1762621622.753619,-0.068953,0.070521,-0.274425,0.956537,-0.003814,0.007474,-0.012413,0.002506,-0.000074,-0.001303,0.097067,0.170618,-0.980545
1762621622.753844,-0.069009,0.070502,-0.274540,0.956502,0.002780,0.008816,-0.010616,0.003583,-0.000448,-0.002761,0.096979,0.170725,-0.980535
1762621622.783470,-0.068922,0.070497,-0.274634,0.956481,0.013837,0.007603,-0.009160,0.002380,-0.000056,-0.001614,0.097002,0.170567,-0.980560
1762621622.786468,-0.068760,0.070514,-0.274690,0.956476,0.019583,0.005388,-0.001129,0.000912,0.000802,-0.000864,0.097114,0.170273,-0.980600
1762621622.814771,-0.068518,0.070481,-0.274711,0.956489,0.026518,0.000683,0.002878,0.000277,0.000070,-0.000069,0.097182,0.169798,-0.980675
1762621622.821031,-0.068227,0.070425,-0.274678,0.956524,0.034224,-0.000804,0.006173,0.000155,-0.001472,0.000045,0.097246,0.169211,-0.980771
1762621622.851385,-0.067852,0.070342,-0.274642,0.956567,0.040895,-0.003251,0.006146,0.001069,-0.003299,0.001746,0.097304,0.168448,-0.980896
1762621622.881666,-0.067472,0.070156,-0.274632,0.956610,0.041795,-0.011166,0.000333,0.001874,-0.002425,0.000734,0.097164,0.167624,-0.981051
1762621622.882958,-0.067151,0.069953,-0.274639,0.956645,0.030357,-0.010291,0.000519,0.004203,-0.001138,-0.003117,0.096957,0.166903,-0.981195
1762621622.912322,-0.066945,0.069845,-0.274656,0.956663,0.016598,-0.003354,-0.001702,0.005380,-0.002795,-0.003411,0.096862,0.166455,-0.981280
1762621622.942871,-0.066812,0.069792,-0.274726,0.956656,0.008806,-0.000365,-0.009456,0.004747,-0.005082,-0.002576,0.096824,0.166180,-0.981330
1762621622.945000,-0.066778,0.069762,-0.274874,0.956618,0.000264,-0.000341,-0.019667,0.002048,-0.003875,-0.002656,0.096760,0.166114,-0.981348
1762621622.973328,-0.066819,0.069759,-0.275097,0.956551,-0.008896,-0.002427,-0.024530,0.002102,-0.001857,-0.001468,0.096692,0.166213,-0.981338
1762621622.980644,-0.066924,0.069792,-0.275344,0.956471,-0.013899,-0.000963,-0.024902,0.001484,-0.001050,-0.000624,0.096654,0.166455,-0.981300
1762621623.009747,-0.067043,0.069808,-0.275574,0.956395,-0.010372,-0.002239,-0.025528,0.000266,-0.001115,0.001120,0.096576,0.166714,-0.981264
1762621623.020743,-0.067104,0.069767,-0.275783,0.956333,-0.005478,-0.006961,-0.020756,-0.001066,0.001381,0.001716,0.096430,0.166828,-0.981259
1762621623.054436,-0.067158,0.069695,-0.275930,0.956292,-0.003228,-0.012242,-0.011030,-0.000521,0.002942,0.002165,0.096235,0.166908,-0.981265
1762621623.061181,-0.067212,0.069596,-0.275968,0.956285,-0.002892,-0.008440,-0.002418,-0.000130,0.002125,0.001747,0.096011,0.166961,-0.981278
1762621623.114481,-0.067189,0.069455,-0.275959,0.956299,0.001390,-0.006635,-0.001989,0.000092,0.001087,-0.000495,0.095758,0.166838,-0.981323
1762621623.114793,-0.067165,0.069315,-0.275949,0.956314,0.005673,-0.004829,-0.001560,0.000313,0.000049,-0.002736,0.095505,0.166716,-0.981369
1762621623.118958,-0.067158,0.069189,-0.275963,0.956319,0.003864,-0.014137,-0.005109,-0.002109,0.000013,-0.000913,0.095268,0.166637,-0.981405
1762621623.147154,-0.067202,0.068992,-0.276026,0.956312,-0.001396,-0.023977,-0.010878,-0.001623,0.000979,-0.001312,0.094856,0.166620,-0.981448
1762621623.177231,-0.067321,0.068796,-0.276078,0.956303,-0.009150,-0.020785,-0.005990,-0.000860,0.000880,-0.002496,0.094408,0.166746,-0.981470
1762621623.180357,-0.067461,0.068680,-0.276096,0.956296,-0.011874,-0.009622,-0.003267,0.000254,0.000201,-0.005490,0.094106,0.166951,-0.981464
1762621623.215478,-0.067607,0.068705,-0.276088,0.956287,-0.014420,0.003777,0.001860,-0.000884,-0.001491,-0.003035,0.094072,0.167240,-0.981418
1762621623.217634,-0.067739,0.068804,-0.276049,0.956282,-0.016062,0.004101,0.001557,-0.003347,-0.000881,-0.000762,0.094194,0.167541,-0.981355
1762621623.247484,-0.067907,0.068858,-0.276031,0.956271,-0.016814,-0.000375,-0.001314,-0.002765,-0.000019,0.000920,0.094205,0.167889,-0.981294
1762621623.277992,-0.068097,0.068877,-0.276054,0.956249,-0.019247,-0.004101,-0.006613,-0.001926,0.000973,-0.000454,0.094130,0.168263,-0.981238
1762621623.279976,-0.068315,0.068897,-0.276094,0.956221,-0.023043,-0.001883,-0.005256,-0.002502,0.001764,-0.001266,0.094039,0.168693,-0.981172
1762621623.308722,-0.068535,0.068893,-0.276123,0.956197,-0.018022,-0.003113,-0.003461,-0.001951,-0.000074,-0.001040,0.093903,0.169112,-0.981113
1762621623.353307,-0.068608,0.068815,-0.276158,0.956187,-0.009306,-0.004364,-0.004197,-0.001591,0.000058,-0.000732,0.093707,0.169213,-0.981115
1762621623.353593,-0.068682,0.068737,-0.276193,0.956178,-0.000590,-0.005616,-0.004932,-0.001230,0.000190,-0.000425,0.093511,0.169313,-0.981116
1762621623.359960,-0.068693,0.068643,-0.276221,0.956175,0.000701,-0.002945,-0.002134,-0.001926,0.000541,-0.001175,0.093321,0.169286,-0.981139
1762621623.393828,-0.068680,0.068536,-0.276226,0.956182,0.005459,-0.007747,-0.004372,0.000904,-0.000346,-0.002483,0.093122,0.169205,-0.981172
1762621623.423869,-0.068640,0.068512,-0.276271,0.956174,0.001777,0.006778,-0.003417,0.001990,-0.001461,-0.003094,0.093092,0.169120,-0.981189
1762621623.424182,-0.068599,0.068579,-0.276334,0.956154,0.001856,0.015284,-0.003533,0.001721,-0.002113,-0.002367,0.093231,0.169083,-0.981182
1762621623.452455,-0.068534,0.068702,-0.276407,0.956129,0.005431,0.014160,-0.008042,0.000299,-0.003548,0.000080,0.093489,0.169034,-0.981166
1762621623.481992,-0.068435,0.068812,-0.276527,0.956093,0.007950,0.012570,-0.010702,0.001121,-0.001970,0.000204,0.093733,0.168917,-0.981163
1762621623.483322,-0.068326,0.068910,-0.276649,0.956059,0.003995,0.015103,-0.008371,0.001756,-0.000146,-0.002387,0.093959,0.168775,-0.981166
1762621623.514232,-0.068259,0.069073,-0.276736,0.956026,-0.003682,0.016655,-0.005195,0.001999,0.001106,-0.002484,0.094291,0.168744,-0.981139
1762621623.518869,-0.068280,0.069250,-0.276782,0.955999,-0.014786,0.015183,-0.003270,0.001969,0.000552,-0.000609,0.094608,0.168885,-0.981085
1762621623.549445,-0.068387,0.069450,-0.276815,0.955967,-0.021143,0.013345,-0.004023,0.002387,-0.000241,-0.000028,0.094922,0.169202,-0.981000
1762621623.578408,-0.068574,0.069639,-0.276860,0.955927,-0.027078,0.010361,-0.010776,0.003394,-0.001272,0.000776,0.095168,0.169664,-0.980896
1762621623.580668,-0.068835,0.069765,-0.276998,0.955859,-0.032054,0.006592,-0.018652,0.003278,-0.000370,0.000610,0.095236,0.170243,-0.980789
1762621623.611620,-0.069160,0.069887,-0.277167,0.955778,-0.032743,-0.003565,-0.021603,0.002244,0.001159,0.001844,0.095255,0.170943,-0.980666
1762621623.661628,-0.069459,0.069892,-0.277287,0.955721,-0.026829,-0.009149,-0.015995,0.001647,0.001455,0.001436,0.095076,0.171527,-0.980581
1762621623.661957,-0.069758,0.069898,-0.277406,0.955664,-0.020914,-0.014733,-0.010386,0.001051,0.001751,0.001028,0.094896,0.172110,-0.980496
1762621623.663587,-0.069963,0.069812,-0.277446,0.955644,-0.011327,-0.017213,-0.001440,0.001307,0.002900,-0.000271,0.094609,0.172457,-0.980463
1762621623.692210,-0.070068,0.069668,-0.277401,0.955660,-0.002052,-0.017607,0.008695,0.000625,0.002501,-0.001321,0.094284,0.172574,-0.980474
1762621623.699863,-0.070083,0.069536,-0.277271,0.955706,0.006306,-0.012808,0.012172,0.000368,-0.000084,-0.000145,0.094047,0.172518,-0.980506
1762621623.729798,-0.069998,0.069403,-0.277138,0.955761,0.017145,-0.012171,0.009561,0.000034,-0.003575,0.000473,0.093867,0.172272,-0.980567
1762621623.760595,-0.069855,0.069229,-0.277086,0.955799,0.027987,-0.013850,0.003258,0.000443,-0.002954,-0.001567,0.093627,0.171899,-0.980655
1762621623.760908,-0.069649,0.069090,-0.277095,0.955821,0.023338,-0.005040,0.001520,-0.000864,-0.001379,-0.001253,0.093477,0.171434,-0.980751
1762621623.794605,-0.069463,0.068966,-0.277107,0.955840,0.019170,-0.009145,-0.003018,-0.001696,-0.001384,-0.001112,0.093343,0.171013,-0.980837
1762621623.796561,-0.069319,0.068785,-0.277149,0.955852,0.012121,-0.015677,-0.004091,-0.002481,0.000351,-0.001966,0.093073,0.170644,-0.980927
1762621623.826095,-0.069271,0.068630,-0.277146,0.955867,0.002689,-0.008542,0.004736,-0.000332,0.001505,-0.006218,0.092805,0.170468,-0.980983
1762621623.856795,-0.069287,0.068661,-0.277048,0.955892,-0.008454,0.011400,0.014525,0.000480,0.000072,-0.007675,0.092874,0.170507,-0.980970
1762621623.858693,-0.069368,0.068843,-0.276883,0.955921,-0.016974,0.019934,0.018410,-0.001223,-0.001494,-0.004744,0.093202,0.170744,-0.980897
1762621623.886993,-0.069484,0.069077,-0.276718,0.955943,-0.017429,0.015416,0.011044,-0.002227,-0.004935,-0.000623,0.093612,0.171076,-0.980801
1762621623.917930,-0.069623,0.069223,-0.276679,0.955934,-0.014322,0.006666,-0.004567,-0.000941,-0.004642,0.001399,0.093818,0.171416,-0.980722
1762621623.919166,-0.069736,0.069302,-0.276782,0.955890,-0.014493,0.003275,-0.014919,-0.000420,-0.002071,0.000624,0.093886,0.171683,-0.980668
1762621623.954037,-0.069878,0.069355,-0.276946,0.955828,-0.016578,0.004042,-0.016862,-0.000008,-0.000578,-0.000099,0.093878,0.171997,-0.980614
1762621623.956148,-0.069992,0.069373,-0.277109,0.955772,-0.012026,0.000129,-0.017452,-0.000385,0.000678,0.000628,0.093818,0.172239,-0.980577
1762621623.995686,-0.070088,0.069389,-0.277240,0.955725,-0.012756,0.004155,-0.010646,0.000409,0.003347,-0.000562,0.093772,0.172445,-0.980546
1762621623.995935,-0.070195,0.069406,-0.277325,0.955692,-0.014242,-0.000156,-0.005937,0.000582,0.004188,-0.000712,0.093728,0.172666,-0.980511
1762621624.026822,-0.070355,0.069448,-0.277343,0.955672,-0.014177,-0.004752,0.000298,-0.000463,0.000467,0.001204,0.093714,0.172995,-0.980454
1762621624.056160,-0.070485,0.069463,-0.277367,0.955654,-0.012265,0.004790,-0.005821,0.002869,-0.001221,-0.003222,0.093665,0.173252,-0.980413
1762621624.057199,-0.070571,0.069534,-0.277427,0.955625,-0.006857,0.003413,-0.005200,0.001596,-0.001056,-0.000953,0.093741,0.173461,-0.980369
1762621624.087021,-0.070645,0.069624,-0.277483,0.955597,-0.003918,0.006700,-0.007386,0.000318,0.000478,0.000258,0.093859,0.173655,-0.980324
1762621624.117959,-0.070664,0.069648,-0.277571,0.955568,-0.000202,-0.002454,-0.009017,0.000181,0.002237,0.000411,0.093878,0.173713,-0.980311
1762621624.120029,-0.070654,0.069639,-0.277612,0.955557,0.000039,-0.000302,-0.003188,0.000473,0.002896,-0.001819,0.093860,0.173694,-0.980317
1762621624.148586,-0.070633,0.069644,-0.277610,0.955559,0.002095,0.000807,0.002023,0.000507,0.001578,-0.001945,0.093881,0.173656,-0.980321
1762621624.161249,-0.070601,0.069670,-0.277558,0.955575,0.003533,-0.000525,0.004480,-0.000475,0.000512,-0.000555,0.093957,0.173604,-0.980323
1762621624.194590,-0.070569,0.069642,-0.277505,0.955595,0.001843,-0.001974,0.003665,-0.000336,-0.000554,-0.001012,0.093932,0.173523,-0.980340
1762621624.195757,-0.070568,0.069636,-0.277470,0.955605,0.001835,-0.001204,0.001772,-0.000211,-0.000630,-0.000826,0.093928,0.173514,-0.980342
1762621624.256324,-0.070589,0.069588,-0.277513,0.955595,-0.000414,-0.002870,-0.002553,-0.000348,-0.000067,-0.000830,0.093817,0.173532,-0.980350
1762621624.256575,-0.070610,0.069539,-0.277556,0.955584,-0.002663,-0.004536,-0.006878,-0.000486,0.000497,-0.000834,0.093705,0.173549,-0.980357
1762621624.259957,-0.070690,0.069541,-0.277612,0.955562,-0.010761,-0.000402,-0.006113,-0.000210,0.000214,-0.000360,0.093652,0.173708,-0.980334
1762621624.290136,-0.070803,0.069557,-0.277651,0.955541,-0.015367,-0.000735,-0.003458,0.000093,0.000446,-0.000543,0.093612,0.173935,-0.980298
1762621624.329483,-0.070976,0.069593,-0.277664,0.955522,-0.016346,0.002251,-0.002837,0.000876,0.000013,-0.001223,0.093580,0.174285,-0.980238
1762621624.329782,-0.071149,0.069629,-0.277676,0.955503,-0.017325,0.005237,-0.002215,0.001659,-0.000421,-0.001903,0.093548,0.174636,-0.980179
1762621624.359273,-0.071309,0.069702,-0.277685,0.955483,-0.014501,0.004609,-0.003753,0.002083,-0.001885,-0.001719,0.093595,0.174979,-0.980113
1762621624.366412,-0.071437,0.069797,-0.277749,0.955448,-0.012247,0.008165,-0.010048,0.001383,-0.002222,0.000612,0.093692,0.175281,-0.980050
1762621624.394577,-0.071527,0.069889,-0.277859,0.955402,-0.006824,0.003200,-0.016546,0.001268,-0.002010,0.001220,0.093794,0.175513,-0.979999
1762621624.395863,-0.071551,0.069903,-0.278026,0.955351,-0.000353,0.003033,-0.018784,0.002300,-0.001026,0.000397,0.093779,0.175582,-0.979988
1762621624.426652,-0.071523,0.069929,-0.278198,0.955301,0.002822,0.007001,-0.014249,0.001350,0.000278,-0.000614,0.093812,0.175560,-0.979989
1762621624.456128,-0.071461,0.069914,-0.278319,0.955272,0.008309,-0.007772,-0.012472,0.000080,-0.000558,0.001308,0.093795,0.175446,-0.980011
1762621624.457915,-0.071390,0.069796,-0.278406,0.955260,0.007939,-0.012318,-0.006573,0.000483,0.001710,0.001735,0.093597,0.175256,-0.980064
1762621624.487202,-0.071348,0.069652,-0.278380,0.955281,0.003428,-0.011126,0.006411,0.002952,0.001073,-0.004111,0.093350,0.175094,-0.980116
