timestamp,quat_x,quat_y,quat_z,quat_w,rot_x,rot_y,rot_z,acc_x,acc_y,acc_z,grav_x,grav_y,grav_z
1762618653.983468,-0.090734,0.097125,-0.000000,0.991128,0.000685,0.030451,-0.021960,-0.058252,0.001353,-0.007818,0.192526,0.179858,-0.964668
1762618654.031827,-0.090309,0.084070,-0.005326,0.992345,0.007930,0.027410,-0.023733,-0.030974,0.001140,-0.001334,0.165891,0.180131,-0.969553
1762618654.032092,-0.089866,0.070998,-0.010650,0.993363,0.015175,0.024369,-0.025507,-0.003580,0.001279,0.004478,0.139139,0.180050,-0.973767
1762618654.061532,-0.089644,0.068044,-0.012037,0.993574,0.021052,0.012517,-0.028316,0.002559,0.002547,0.005994,0.133055,0.179774,-0.974668
1762618654.072794,-0.089832,0.068161,-0.012968,0.993537,0.026627,0.004438,-0.026025,0.002694,0.001201,0.004126,0.133111,0.180270,-0.974569
1762618654.100836,-0.090068,0.068533,-0.013317,0.993486,0.029388,-0.001173,-0.020645,0.001289,0.001330,0.003393,0.133774,0.180788,-0.974382
1762618654.102712,-0.090248,0.069185,-0.013763,0.993418,0.025590,-0.022992,-0.011743,-0.000357,0.002301,0.000540,0.134975,0.181213,-0.974137
1762618654.132745,-0.090337,0.069190,-0.013811,0.993409,0.015768,-0.020753,-0.006807,-0.000908,0.002002,-0.000937,0.134972,0.181394,-0.974104
1762618654.170108,-0.090315,0.069162,-0.013814,0.993413,0.008612,-0.023500,-0.002849,-0.001955,0.001020,-0.000164,0.134918,0.181351,-0.974120
1762618654.170412,-0.090293,0.069135,-0.013817,0.993417,0.001455,-0.026248,0.001109,-0.003002,0.000038,0.000609,0.134864,0.181307,-0.974135
1762618654.201742,-0.090617,0.068751,-0.013726,0.993415,-0.011479,-0.041325,0.002626,-0.006152,-0.003780,0.000162,0.134110,0.181929,-0.974123
1762618654.203760,-0.090926,0.068117,-0.013664,0.993431,-0.012624,-0.039546,-0.002470,-0.006093,-0.007904,-0.004446,0.132855,0.182519,-0.974185
1762618654.232992,-0.091028,0.067825,-0.013671,0.993442,-0.014999,-0.035825,-0.005969,-0.006643,-0.005493,-0.004383,0.132272,0.182716,-0.974227
1762618654.263795,-0.091058,0.067502,-0.013653,0.993461,-0.016763,-0.041577,-0.001261,-0.009023,-0.004490,-0.002350,0.131635,0.182768,-0.974304
1762618654.264083,-0.091087,0.067178,-0.013635,0.993481,-0.018527,-0.047329,0.003446,-0.011403,-0.003487,-0.000318,0.130997,0.182819,-0.974380
1762618654.293998,-0.090877,0.066057,-0.013586,0.993576,-0.013094,-0.060880,-0.005718,-0.010184,-0.007818,-0.002333,0.128797,0.182380,-0.974756
1762618654.370488,-0.090816,0.065650,-0.013555,0.993609,-0.013643,-0.048131,-0.002663,-0.010403,-0.006345,-0.004250,0.128000,0.182251,-0.974885
1762618654.370822,-0.090755,0.065243,-0.013524,0.993642,-0.014192,-0.035382,0.000392,-0.010622,-0.004871,-0.006168,0.127202,0.182121,-0.975013
1762618654.371490,-0.090695,0.064836,-0.013493,0.993674,-0.014741,-0.022633,0.003447,-0.010841,-0.003398,-0.008086,0.126405,0.181992,-0.975141
1762618654.371864,-0.090634,0.064429,-0.013462,0.993707,-0.015289,-0.009884,0.006501,-0.011059,-0.001925,-0.010005,0.125607,0.181862,-0.975269
1762618654.404931,-0.090542,0.063831,-0.013455,0.993754,-0.019734,-0.017698,-0.003991,-0.012004,0.000305,-0.004910,0.124428,0.181670,-0.975456
1762618654.405238,-0.090545,0.063607,-0.013482,0.993768,-0.022698,-0.015816,-0.005396,-0.008529,0.001819,-0.003596,0.123980,0.181676,-0.975512
1762618654.433048,-0.090776,0.063139,-0.013467,0.993777,-0.025148,-0.005625,-0.000974,-0.007888,-0.001835,-0.000146,0.123048,0.182122,-0.975546
1762618654.463824,-0.090850,0.062884,-0.013495,0.993786,-0.014439,-0.009457,-0.004485,-0.008088,-0.003138,0.001455,0.122535,0.182267,-0.975584
1762618654.464139,-0.090924,0.062630,-0.013522,0.993794,-0.003731,-0.013289,-0.007996,-0.008289,-0.004440,0.003056,0.122023,0.182413,-0.975621
1762618654.494234,-0.090896,0.062117,-0.013616,0.993828,0.003302,-0.007874,-0.002328,-0.007030,0.000540,-0.000528,0.120992,0.182362,-0.975759
1762618654.530738,-0.090815,0.061792,-0.013613,0.993856,-0.002656,-0.008277,0.000087,-0.007900,0.000966,0.000014,0.120353,0.182197,-0.975869
1762618654.531036,-0.090793,0.061607,-0.013568,0.993870,-0.003035,-0.013034,0.001205,-0.007196,-0.001708,-0.001151,0.119995,0.182145,-0.975922
1762618654.569860,-0.090782,0.061487,-0.013582,0.993878,-0.003041,-0.007709,-0.002448,-0.004470,-0.002108,-0.003612,0.119755,0.182124,-0.975956
1762618654.570241,-0.090772,0.061367,-0.013596,0.993886,-0.003046,-0.002385,-0.006100,-0.001743,-0.002508,-0.006072,0.119516,0.182102,-0.975989
1762618654.632077,-0.090955,0.061242,-0.013699,0.993876,-0.015765,0.008558,-0.001391,-0.003278,0.001355,-0.006594,0.119242,0.182473,-0.975953
1762618654.632347,-0.091121,0.061204,-0.013714,0.993863,-0.021344,0.005523,0.000725,-0.002797,0.001681,-0.004656,0.119157,0.182802,-0.975902
1762618654.632681,-0.091287,0.061166,-0.013730,0.993850,-0.026924,0.002488,0.002842,-0.002317,0.002008,-0.002718,0.119072,0.183130,-0.975851
1762618654.661123,-0.091489,0.061142,-0.013734,0.993832,-0.031586,0.006687,0.000394,-0.001472,0.001079,-0.002089,0.119017,0.183530,-0.975783
1762618654.692200,-0.091974,0.061134,-0.013721,0.993788,-0.030137,0.007149,-0.004984,-0.000342,-0.002067,-0.002048,0.118985,0.184483,-0.975607
1762618654.722046,-0.092163,0.061124,-0.013801,0.993770,-0.028234,0.009430,-0.007604,-0.000018,-0.001446,-0.002729,0.118942,0.184865,-0.975540
1762618654.722552,-0.092353,0.061113,-0.013881,0.993752,-0.026332,0.011711,-0.010224,0.000305,-0.000825,-0.003410,0.118899,0.185248,-0.975472
1762618654.723004,-0.092775,0.061208,-0.014075,0.993704,-0.025869,0.014304,-0.015549,0.000626,0.001121,-0.001482,0.119034,0.186105,-0.975293
1762618654.754339,-0.092938,0.061260,-0.014209,0.993684,-0.025660,0.011632,-0.014720,-0.000117,0.001896,0.000609,0.119106,0.186444,-0.975219
1762618654.794883,-0.093204,0.061308,-0.014458,0.993652,-0.020082,0.005268,-0.018735,0.000000,0.000000,0.000000,0.119143,0.186998,-0.975109
1762618654.825398,-0.093290,0.061313,-0.014539,0.993643,-0.016691,0.002772,-0.016780,-0.000065,0.000021,0.000426,0.119133,0.187176,-0.975076
1762618654.825651,-0.093375,0.061317,-0.014620,0.993633,-0.013301,0.000275,-0.014825,-0.000131,0.000042,0.000851,0.119124,0.187354,-0.975043
1762618654.826069,-0.093460,0.061322,-0.014701,0.993624,-0.009911,-0.002222,-0.012870,-0.000196,0.000064,0.001276,0.119114,0.187531,-0.975010
1762618654.855201,-0.093599,0.061212,-0.014863,0.993615,-0.004803,-0.007811,-0.005120,-0.000362,0.001531,0.001884,0.118861,0.187823,-0.974984
1762618654.930737,-0.093703,0.061050,-0.014933,0.993614,-0.004023,-0.007567,-0.005749,0.001238,-0.000387,-0.002479,0.118522,0.188033,-0.974985
1762618654.931099,-0.093788,0.060993,-0.014964,0.993609,-0.007692,-0.007969,-0.005511,0.000387,0.000099,-0.001658,0.118399,0.188202,-0.974968
1762618654.931392,-0.093872,0.060936,-0.014996,0.993605,-0.011362,-0.008372,-0.005273,-0.000464,0.000585,-0.000836,0.118277,0.188371,-0.974950
1762618654.931898,-0.093956,0.060879,-0.015027,0.993600,-0.015031,-0.008774,-0.005035,-0.001315,0.001071,-0.000015,0.118154,0.188539,-0.974932
1762618654.970476,-0.094187,0.060788,-0.015029,0.993583,-0.021664,-0.004543,-0.003100,-0.001211,0.001798,-0.001613,0.117965,0.188992,-0.974867
1762618654.970769,-0.094338,0.060738,-0.015032,0.993572,-0.019836,-0.007066,-0.002693,-0.001635,0.000983,-0.000719,0.117858,0.189290,-0.974822
1762618654.999310,-0.094475,0.060672,-0.015035,0.993563,-0.017691,-0.008243,-0.000831,-0.002078,0.000133,0.000213,0.117722,0.189558,-0.974787
1762618655.001931,-0.094738,0.060494,-0.015044,0.993549,-0.011044,-0.016441,-0.006189,-0.002149,-0.000005,0.000363,0.117357,0.190074,-0.974730
1762618655.041867,-0.094807,0.060412,-0.015086,0.993546,-0.011365,-0.009987,-0.008771,-0.001551,0.001235,-0.003746,0.117184,0.190213,-0.974724
1762618655.042166,-0.094876,0.060330,-0.015128,0.993544,-0.011685,-0.003533,-0.011352,-0.000952,0.002474,-0.007855,0.117010,0.190352,-0.974718
1762618655.072604,-0.095158,0.060196,-0.015266,0.993523,-0.014270,-0.016579,-0.011794,-0.005544,-0.000935,0.003816,0.116708,0.190920,-0.974643
1762618655.084874,-0.095283,0.059902,-0.015413,0.993527,-0.009178,-0.023610,-0.012488,-0.002498,-0.000211,-0.000252,0.116091,0.191179,-0.974666
1762618655.126861,-0.095347,0.059782,-0.015461,0.993527,-0.007653,-0.018149,-0.012673,-0.000397,-0.000129,-0.003367,0.115841,0.191309,-0.974670
1762618655.127072,-0.095411,0.059661,-0.015509,0.993527,-0.006128,-0.012687,-0.012858,0.001705,-0.000047,-0.006484,0.115591,0.191438,-0.974674
1762618655.158139,-0.095552,0.059672,-0.015688,0.993510,-0.015203,0.014453,-0.004346,0.001622,0.004214,-0.008608,0.115571,0.191736,-0.974618
1762618655.192766,-0.095921,0.059853,-0.015723,0.993463,-0.027676,0.008510,-0.002225,-0.003496,0.004079,-0.000566,0.115907,0.192470,-0.974434
1762618655.193112,-0.096067,0.059862,-0.015762,0.993448,-0.025992,0.001014,-0.004925,-0.001567,0.003433,0.001429,0.115912,0.192762,-0.974375
1762618655.258137,-0.096359,0.059826,-0.015833,0.993421,-0.021099,-0.002236,-0.006001,-0.000814,0.005777,0.003859,0.115814,0.193344,-0.974272
1762618655.258576,-0.096476,0.059736,-0.015843,0.993415,-0.013511,-0.008168,-0.005006,-0.001467,0.004052,0.004311,0.115628,0.193574,-0.974248
1762618655.259208,-0.096593,0.059646,-0.015853,0.993409,-0.005923,-0.014099,-0.004012,-0.002119,0.002327,0.004764,0.115443,0.193804,-0.974224
1762618655.288615,-0.096663,0.059319,-0.015851,0.993421,0.013316,-0.020119,0.001977,-0.004161,0.002946,0.000449,0.114793,0.193935,-0.974275
1762618655.289356,-0.096621,0.059194,-0.015807,0.993434,0.007736,-0.013189,0.005650,-0.001427,0.003558,-0.001599,0.114556,0.193845,-0.974321
1762618655.320751,-0.096585,0.059125,-0.015740,0.993442,0.006928,-0.010503,0.007716,-0.001303,0.002695,-0.001636,0.114433,0.193764,-0.974351
1762618655.350515,-0.096535,0.058963,-0.015613,0.993459,0.006831,-0.015386,0.003216,-0.006019,0.001279,0.001110,0.114140,0.193648,-0.974409
1762618655.380648,-0.096483,0.058896,-0.015620,0.993468,0.005817,-0.008217,0.002702,-0.003505,0.001175,-0.001546,0.114009,0.193545,-0.974445
1762618655.380911,-0.096430,0.058829,-0.015627,0.993477,0.004803,-0.001047,0.002189,-0.000990,0.001072,-0.004202,0.113877,0.193441,-0.974481
1762618655.382905,-0.096379,0.058929,-0.015657,0.993475,0.004679,0.024702,0.002144,-0.002482,0.000250,-0.002682,0.114072,0.193346,-0.974477
1762618655.411990,-0.096317,0.059027,-0.015702,0.993475,0.009902,0.013690,-0.007075,-0.005477,-0.000237,0.001889,0.114259,0.193230,-0.974478
1762618655.456975,-0.096176,0.059085,-0.015854,0.993483,0.007276,0.007090,-0.007293,0.000208,0.002809,-0.001541,0.114350,0.192972,-0.974518
1762618655.457345,-0.096161,0.059176,-0.015879,0.993478,0.004423,0.016525,-0.004495,0.000632,0.002282,-0.001820,0.114527,0.192946,-0.974503
1762618655.487662,-0.096100,0.059558,-0.015989,0.993460,0.007808,0.031035,-0.008307,0.000879,-0.001092,-0.000579,0.115264,0.192848,-0.974435
1762618655.487840,-0.096049,0.059697,-0.016114,0.993454,0.010298,0.031184,-0.014466,0.001413,-0.001756,-0.000930,0.115518,0.192765,-0.974422
1762618655.530680,-0.096001,0.059974,-0.016301,0.993439,0.010174,0.031950,-0.016010,0.002147,-0.000018,-0.001252,0.116031,0.192697,-0.974374
1762618655.530957,-0.095952,0.060250,-0.016488,0.993424,0.010050,0.032717,-0.017554,0.002880,0.001720,-0.001573,0.116544,0.192629,-0.974326
1762618655.567426,-0.095854,0.060567,-0.016690,0.993411,0.009166,0.033778,-0.016266,0.003168,0.002342,-0.001929,0.117136,0.192466,-0.974287
1762618655.567513,-0.095755,0.060884,-0.016893,0.993398,0.008282,0.034839,-0.014977,0.003457,0.002964,-0.002285,0.117728,0.192303,-0.974248
1762618655.599252,-0.095717,0.061078,-0.016998,0.993388,0.006595,0.029465,-0.010321,0.003828,0.003350,-0.000492,0.118094,0.192244,-0.974216
1762618655.630544,-0.095657,0.061562,-0.017185,0.993360,0.005921,0.027151,-0.006042,0.005788,0.003161,0.002829,0.119019,0.192160,-0.974120
1762618655.637224,-0.095590,0.061798,-0.017325,0.993350,0.011211,0.018296,-0.014644,0.004644,0.001570,0.003112,0.119462,0.192050,-0.974087
1762618655.667368,-0.095525,0.061906,-0.017429,0.993347,0.009306,0.009541,-0.011490,0.002565,0.002793,0.003465,0.119659,0.191936,-0.974085
1762618655.667635,-0.095459,0.062014,-0.017532,0.993345,0.007401,0.000787,-0.008337,0.000487,0.004017,0.003818,0.119855,0.191822,-0.974084
1762618655.697041,-0.095395,0.061982,-0.017574,0.993352,0.006321,-0.007774,-0.003694,-0.000612,0.004882,0.002600,0.119787,0.191701,-0.974116
1762618655.729140,-0.095274,0.061827,-0.017531,0.993374,0.011842,-0.022166,0.015656,-0.000913,0.004525,0.000752,0.119494,0.191454,-0.974201
1762618655.729393,-0.095188,0.061757,-0.017423,0.993389,0.018811,-0.019931,0.017491,-0.002071,0.004001,-0.001153,0.119380,0.191269,-0.974251
1762618655.758154,-0.095092,0.061650,-0.017306,0.993407,0.022564,-0.020134,0.016802,-0.002546,0.001645,-0.001512,0.119196,0.191064,-0.974314
1762618655.791750,-0.094788,0.061394,-0.017032,0.993456,0.032811,-0.015327,0.009999,-0.000455,-0.002756,-0.002730,0.118756,0.190427,-0.974492
1762618655.796114,-0.094446,0.061312,-0.017048,0.993494,0.034075,-0.006003,0.000376,-0.001654,-0.002762,-0.002524,0.118606,0.189754,-0.974641
1762618655.831438,-0.094217,0.061282,-0.017113,0.993516,0.035479,-0.001162,-0.004746,-0.001581,-0.002344,-0.001865,0.118544,0.189310,-0.974735
1762618655.831751,-0.093988,0.061251,-0.017178,0.993539,0.036884,0.003679,-0.009867,-0.001507,-0.001927,-0.001207,0.118482,0.188865,-0.974829
1762618655.866634,-0.093421,0.061241,-0.017394,0.993589,0.037538,0.003888,-0.009450,-0.002083,-0.000472,-0.000942,0.118447,0.187776,-0.975044
1762618655.868504,-0.093170,0.061280,-0.017500,0.993608,0.034230,0.006905,-0.008268,-0.001170,0.000664,-0.004079,0.118516,0.187294,-0.975128
1762618655.905210,-0.093006,0.061334,-0.017524,0.993620,0.030083,0.007903,-0.001820,-0.002230,0.001221,-0.002230,0.118625,0.186974,-0.975176
1762618655.905728,-0.092841,0.061387,-0.017549,0.993632,0.025937,0.008902,0.004629,-0.003290,0.001777,-0.000382,0.118734,0.186654,-0.975224
1762618655.934127,-0.092422,0.061332,-0.017504,0.993675,0.021546,-0.012477,0.001796,-0.001352,-0.003804,0.001124,0.118653,0.185822,-0.975393
1762618655.964672,-0.092153,0.061146,-0.017459,0.993712,0.012593,0.003177,0.006165,0.003429,-0.005828,-0.007070,0.118306,0.185282,-0.975538
1762618655.965019,-0.092091,0.061256,-0.017439,0.993712,0.008016,0.020188,0.005605,0.004197,-0.004019,-0.008034,0.118530,0.185161,-0.975534
1762618655.995841,-0.092080,0.061385,-0.017419,0.993705,-0.000362,0.024043,0.006614,0.001217,-0.001134,-0.005600,0.118789,0.185139,-0.975506
1762618656.027666,-0.092166,0.061728,-0.017331,0.993677,-0.017671,0.012058,0.002848,-0.000192,0.000062,0.001248,0.119482,0.185306,-0.975390
1762618656.027963,-0.092279,0.061766,-0.017339,0.993664,-0.021778,0.004653,-0.003978,-0.000051,0.000017,0.000334,0.119550,0.185531,-0.975339
1762618656.057611,-0.092440,0.061808,-0.017355,0.993647,-0.026890,0.006983,-0.005413,0.000669,0.001338,-0.001304,0.119622,0.185852,-0.975269
1762618656.088420,-0.092865,0.061885,-0.017432,0.993601,-0.023541,-0.002320,-0.013291,-0.001388,-0.001727,0.004769,0.119740,0.186699,-0.975093
1762618656.130196,-0.092905,0.061745,-0.017486,0.993605,-0.013456,-0.004445,-0.010442,-0.000858,-0.000657,0.002010,0.119451,0.186782,-0.975112
1762618656.130528,-0.092946,0.061605,-0.017539,0.993609,-0.003371,-0.006570,-0.007593,-0.000328,0.000413,-0.000749,0.119162,0.186864,-0.975132
1762618656.130814,-0.092986,0.061465,-0.017593,0.993613,0.006714,-0.008696,-0.004744,0.000202,0.001483,-0.003509,0.118872,0.186947,-0.975151
1762618656.165143,-0.092845,0.061423,-0.017631,0.993628,0.010926,0.005468,0.001405,0.000997,0.000745,-0.001466,0.118788,0.186673,-0.975214
1762618656.165451,-0.092772,0.061455,-0.017636,0.993632,0.006523,0.008929,0.000556,-0.001958,-0.000258,-0.002826,0.118856,0.186530,-0.975233
1762618656.194470,-0.092694,0.061496,-0.017665,0.993637,0.008853,0.011818,-0.005663,0.000294,-0.000481,-0.005030,0.118935,0.186382,-0.975252
1762618656.236277,-0.092566,0.061804,-0.017884,0.993626,0.009746,0.027506,-0.017807,0.000337,-0.000729,-0.003409,0.119509,0.186162,-0.975224
1762618656.236641,-0.092555,0.061936,-0.017992,0.993616,0.005075,0.031358,-0.015037,0.000797,0.000649,-0.003407,0.119750,0.186156,-0.975195
1762618656.265726,-0.092492,0.062140,-0.018186,0.993606,0.003758,0.021220,-0.012184,0.000282,0.003272,-0.000573,0.120122,0.186060,-0.975168
1762618656.266045,-0.092429,0.062345,-0.018379,0.993596,0.002442,0.011082,-0.009331,-0.000232,0.005895,0.002261,0.120493,0.185965,-0.975140
1762618656.296206,-0.092439,0.062432,-0.018433,0.993588,-0.001338,0.011410,-0.004154,0.000237,0.005741,0.001688,0.120656,0.185995,-0.975115
1762618656.327158,-0.092481,0.062567,-0.018458,0.993575,-0.001677,0.000667,-0.000187,0.000169,0.002802,-0.000269,0.120917,0.186083,-0.975065
1762618656.327490,-0.092503,0.062543,-0.018456,0.993575,-0.000291,0.001185,0.000942,0.002083,0.001674,-0.001333,0.120868,0.186127,-0.975063
1762618656.357387,-0.092504,0.062546,-0.018477,0.993574,0.003750,0.004657,-0.001385,0.002683,0.001379,-0.002987,0.120869,0.186130,-0.975062
1762618656.392176,-0.092437,0.062667,-0.018602,0.993570,0.016174,0.016460,-0.013727,0.003753,-0.001978,-0.001423,0.121089,0.186016,-0.975057
1762618656.393219,-0.092107,0.062812,-0.018859,0.993587,0.028820,0.015704,-0.016732,0.004283,0.000437,0.000199,0.121345,0.185403,-0.975142
1762618656.435229,-0.091891,0.062881,-0.019002,0.993600,0.032375,0.014847,-0.016870,0.002975,0.001251,0.000622,0.121465,0.184995,-0.975204
1762618656.435506,-0.091674,0.062950,-0.019145,0.993613,0.035930,0.013990,-0.017009,0.001666,0.002065,0.001044,0.121585,0.184588,-0.975266
1762618656.463206,-0.091049,0.063106,-0.019461,0.993654,0.039084,0.000122,-0.010793,0.000298,0.002925,0.003984,0.121868,0.183398,-0.975456
1762618656.463527,-0.090785,0.063065,-0.019558,0.993679,0.035919,-0.005033,-0.011021,0.000528,0.003366,0.003500,0.121782,0.182889,-0.975562
1762618656.493958,-0.090603,0.063015,-0.019610,0.993698,0.031386,-0.011795,-0.005685,0.000952,0.002433,0.002746,0.121683,0.182536,-0.975640
1762618656.529007,-0.090246,0.062767,-0.019647,0.993745,0.021850,-0.023309,0.003476,0.001725,-0.000668,0.000031,0.121203,0.181829,-0.975832
1762618656.529348,-0.090148,0.062628,-0.019624,0.993763,0.017254,-0.021777,0.004356,0.001238,-0.000937,-0.001277,0.120938,0.181630,-0.975902
1762618656.570304,-0.089992,0.062379,-0.019526,0.993795,0.007032,-0.016711,0.006412,0.000162,-0.000133,0.000107,0.120470,0.181303,-0.976021
1762618656.570613,-0.089990,0.062257,-0.019475,0.993804,0.000485,-0.021318,0.007267,0.001040,-0.000851,0.000685,0.120238,0.181291,-0.976052
1762618656.604201,-0.090019,0.061964,-0.019356,0.993822,0.001542,-0.021733,0.004315,0.001916,-0.004589,-0.001876,0.119678,0.181325,-0.976114
1762618656.604534,-0.089997,0.061835,-0.019340,0.993832,0.000293,-0.019443,0.000419,0.001770,-0.005474,-0.002752,0.119427,0.181276,-0.976154
1762618656.633236,-0.090001,0.061749,-0.019323,0.993838,-0.000127,-0.014707,-0.004531,0.001533,-0.004218,-0.002553,0.119259,0.181279,-0.976174
1762618656.665174,-0.089986,0.061525,-0.019374,0.993852,-0.000441,-0.012076,-0.008841,0.000534,-0.004034,-0.000625,0.118806,0.181250,-0.976234
1762618656.665443,-0.089957,0.061449,-0.019412,0.993859,0.000453,-0.008459,-0.007002,-0.000849,-0.004551,-0.001752,0.118650,0.181194,-0.976264
1762618656.694681,-0.089936,0.061383,-0.019462,0.993863,0.000459,-0.008700,-0.007505,-0.000743,-0.003483,-0.001531,0.118513,0.181157,-0.976287
1762618656.754163,-0.089884,0.061278,-0.019571,0.993873,0.000770,-0.012334,-0.008474,-0.001571,-0.002335,-0.001475,0.118287,0.181065,-0.976332
1762618656.754500,-0.089891,0.061256,-0.019637,0.993872,-0.001292,-0.006672,-0.006203,-0.001532,-0.002099,-0.001242,0.118231,0.181087,-0.976334
1762618656.754890,-0.089899,0.061234,-0.019702,0.993871,-0.003354,-0.001009,-0.003933,-0.001493,-0.001864,-0.001008,0.118176,0.181109,-0.976337
1762618656.795015,-0.089935,0.061167,-0.019796,0.993870,-0.003236,-0.013466,-0.010093,-0.003679,-0.003553,0.003739,0.118023,0.181189,-0.976341
1762618656.795358,-0.089956,0.061032,-0.019839,0.993876,-0.005705,-0.012647,-0.006297,-0.001795,-0.002714,0.000473,0.117747,0.181232,-0.976366
1762618656.801079,-0.090012,0.060864,-0.019883,0.993880,-0.004620,-0.002239,-0.001050,0.003410,-0.004072,-0.005700,0.117404,0.181342,-0.976387
1762618656.829694,-0.090065,0.060955,-0.019873,0.993870,-0.009882,0.017473,0.003027,0.003864,-0.002751,-0.008393,0.117584,0.181450,-0.976345
1762618656.862565,-0.090337,0.061241,-0.019811,0.993829,-0.032924,0.016104,0.006975,-0.000647,0.000924,-0.003043,0.118148,0.181986,-0.976177
1762618656.862881,-0.090553,0.061355,-0.019762,0.993803,-0.034712,0.004590,0.003395,-0.003326,-0.000711,0.000993,0.118370,0.182409,-0.976071
1762618656.904105,-0.090837,0.061302,-0.019750,0.993781,-0.033829,-0.001083,0.004192,-0.002223,0.001049,0.002933,0.118253,0.182965,-0.975982
1762618656.904437,-0.091121,0.061249,-0.019738,0.993759,-0.032947,-0.006756,0.004988,-0.001121,0.002809,0.004874,0.118136,0.183522,-0.975891
1762618656.933317,-0.091347,0.061189,-0.019654,0.993743,-0.029634,-0.011167,0.008262,-0.001280,0.000112,0.004812,0.118022,0.183956,-0.975823
1762618656.971306,-0.091725,0.060832,-0.019407,0.993735,-0.008505,-0.023081,0.009625,-0.001526,-0.001821,0.002929,0.117342,0.184662,-0.975772
1762618656.996689,-0.091797,0.060553,-0.019294,0.993748,-0.006778,-0.022775,0.005638,-0.000585,-0.000362,-0.002517,0.116807,0.184782,-0.975813
1762618656.999385,-0.091897,0.060393,-0.019229,0.993749,-0.011528,-0.008800,0.006380,0.000497,-0.000294,-0.004750,0.116496,0.184967,-0.975815
1762618657.032888,-0.092002,0.060318,-0.019208,0.993745,-0.009505,-0.005380,-0.002554,-0.001043,-0.000233,-0.003966,0.116346,0.185171,-0.975795
1762618657.034683,-0.092075,0.060234,-0.019272,0.993742,-0.002971,-0.007690,-0.008940,0.000480,0.000263,-0.004581,0.116165,0.185319,-0.975788
1762618657.063321,-0.092112,0.060233,-0.019392,0.993736,-0.003822,0.004812,-0.008262,0.001102,0.001962,-0.003160,0.116138,0.185406,-0.975775
1762618657.073518,-0.092199,0.060331,-0.019434,0.993721,-0.009985,0.016434,-0.003017,-0.000607,0.003540,-0.003705,0.116321,0.185585,-0.975719
1762618657.102958,-0.092248,0.060430,-0.019475,0.993710,-0.002406,0.006084,-0.005125,-0.001531,0.002401,0.000997,0.116507,0.185690,-0.975677
1762618657.113377,-0.092249,0.060417,-0.019514,0.993710,-0.001402,-0.001675,-0.002234,0.000583,0.004160,0.001808,0.116474,0.185696,-0.975680
1762618657.143684,-0.092280,0.060433,-0.019522,0.993706,-0.002292,0.003641,0.000064,0.001306,0.003930,-0.000633,0.116502,0.185758,-0.975664
1762618657.173056,-0.092323,0.060503,-0.019525,0.993697,0.001153,0.004772,-0.002087,0.001960,0.000902,-0.000430,0.116637,0.185845,-0.975632
1762618657.175055,-0.092313,0.060572,-0.019574,0.993693,0.009365,0.010447,-0.007122,0.001858,-0.000269,0.000144,0.116766,0.185832,-0.975619
1762618657.203538,-0.092227,0.060661,-0.019668,0.993694,0.014208,0.009610,-0.010953,0.001836,-0.000534,0.000274,0.116929,0.185678,-0.975629
1762618657.237616,-0.092094,0.060772,-0.019852,0.993696,0.017809,0.014248,-0.017106,0.004257,0.000863,-0.001572,0.117121,0.185440,-0.975651
1762618657.239691,-0.091950,0.060888,-0.020055,0.993698,0.012829,0.013808,-0.016025,0.004646,0.005195,-0.002752,0.117320,0.185183,-0.975676
1762618657.268190,-0.091828,0.060998,-0.020215,0.993699,0.010304,0.008494,-0.008101,0.002726,0.006253,-0.000598,0.117515,0.184966,-0.975694
1762618657.272933,-0.091699,0.061055,-0.020273,0.993706,0.016307,0.000575,-0.000638,0.001755,0.003819,0.002660,0.117624,0.184719,-0.975727
1762618657.330126,-0.091484,0.060987,-0.020229,0.993731,0.022225,-0.006608,0.000768,0.001201,0.002065,0.002758,0.117507,0.184288,-0.975823
1762618657.330431,-0.091269,0.060918,-0.020184,0.993756,0.028143,-0.013790,0.002173,0.000647,0.000311,0.002856,0.117390,0.183857,-0.975918
1762618657.331226,-0.091009,0.060757,-0.020150,0.993791,0.028492,-0.019619,0.009151,0.000407,0.001693,0.002220,0.117092,0.183336,-0.976052
1762618657.360786,-0.090810,0.060545,-0.020052,0.993824,0.026674,-0.020224,0.003703,0.000552,-0.000372,0.001129,0.116701,0.182926,-0.976176
1762618657.392147,-0.090598,0.060329,-0.019988,0.993857,0.023131,-0.023901,0.004450,0.000148,-0.002389,0.000358,0.116296,0.182495,-0.976305
1762618657.394045,-0.090443,0.060103,-0.019928,0.993887,0.014031,-0.021884,0.000970,-0.000510,-0.003771,-0.003167,0.115867,0.182175,-0.976415
1762618657.422989,-0.090351,0.059877,-0.019897,0.993909,0.003764,-0.024451,0.004656,-0.000333,-0.000700,-0.004023,0.115428,0.181984,-0.976503
1762618657.458829,-0.090297,0.059702,-0.019856,0.993925,0.001660,-0.016886,0.001684,-0.000719,-0.000503,-0.002575,0.115094,0.181867,-0.976564
1762618657.460013,-0.090296,0.059515,-0.019795,0.993938,-0.001324,-0.012163,0.002751,-0.000085,-0.001857,-0.004327,0.114733,0.181853,-0.976609
1762618657.489569,-0.090232,0.059400,-0.019706,0.993953,0.009316,-0.012627,0.002535,-0.000639,-0.003070,-0.002509,0.114525,0.181713,-0.976660
1762618657.492495,-0.090118,0.059269,-0.019689,0.993971,0.011223,-0.009145,0.001156,-0.000401,-0.002268,-0.002140,0.114274,0.181483,-0.976732
1762618657.520566,-0.089986,0.059168,-0.019674,0.993989,0.016338,-0.010022,-0.000558,-0.000353,-0.002107,-0.002066,0.114083,0.181219,-0.976803
1762618657.551376,-0.089825,0.059080,-0.019708,0.994008,0.015121,-0.007113,-0.001396,-0.001199,-0.002963,0.001232,0.113911,0.180903,-0.976882
1762618657.552824,-0.089615,0.058936,-0.019783,0.994034,0.021748,-0.011159,-0.011533,0.000303,-0.003097,-0.002928,0.113624,0.180493,-0.976991
1762618657.583793,-0.089401,0.058869,-0.019949,0.994054,0.015572,0.002278,-0.010863,-0.000987,0.000338,-0.002466,0.113471,0.180087,-0.977084
1762618657.632939,-0.089260,0.058801,-0.020050,0.994069,0.013909,-0.004414,-0.009913,-0.000954,0.000323,-0.001432,0.113326,0.179820,-0.977150
1762618657.633268,-0.089120,0.058734,-0.020151,0.994083,0.012246,-0.011106,-0.008962,-0.000922,0.000309,-0.000399,0.113181,0.179553,-0.977216
1762618657.634755,-0.089024,0.058631,-0.020172,0.994098,0.005898,-0.004478,0.002385,-0.000019,-0.001170,-0.003395,0.112979,0.179362,-0.977274
1762618657.663356,-0.088917,0.058673,-0.020135,0.994106,0.006328,0.010438,0.001823,0.001406,-0.001864,-0.007161,0.113074,0.179148,-0.977302
1762618657.694010,-0.088886,0.058799,-0.020101,0.994102,-0.001880,0.017176,0.008227,0.001095,0.002939,-0.004782,0.113330,0.179087,-0.977284
1762618657.695338,-0.089018,0.059047,-0.019999,0.994077,-0.023656,0.026366,0.013906,0.000774,0.003324,-0.003784,0.113835,0.179342,-0.977179
1762618657.725522,-0.089259,0.059158,-0.019922,0.994050,-0.029235,0.005967,0.000930,-0.000608,0.000854,-0.000815,0.114055,0.179813,-0.977066
1762618657.732278,-0.089571,0.059172,-0.019924,0.994022,-0.033185,-0.001546,-0.001695,0.000794,0.003432,0.000975,0.114067,0.180428,-0.976952
1762618657.762301,-0.089902,0.059157,-0.019908,0.993993,-0.030264,-0.005315,0.001958,0.000250,0.002367,0.002977,0.114023,0.181079,-0.976836
1762618657.792432,-0.090144,0.059064,-0.019859,0.993977,-0.013177,-0.011519,0.005431,-0.001758,-0.000185,0.004887,0.113836,0.181549,-0.976771
1762618657.795003,-0.090205,0.058878,-0.019762,0.993985,0.002520,-0.020451,0.007228,-0.000826,0.000136,0.004229,0.113483,0.181651,-0.976793
1762618657.822918,-0.090142,0.058739,-0.019616,0.994002,0.011472,-0.015666,0.013962,-0.000128,0.001219,0.002988,0.113237,0.181507,-0.976848
1762618657.853742,-0.090005,0.058583,-0.019479,0.994026,0.012483,-0.009819,0.007841,0.001524,0.000301,-0.003313,0.112959,0.181217,-0.976934
1762618657.855923,-0.089894,0.058534,-0.019428,0.994040,0.011766,-0.003676,0.001750,0.000829,-0.001347,-0.001566,0.112877,0.180991,-0.976986
1762618657.884952,-0.089787,0.058542,-0.019474,0.994048,0.009994,-0.002069,-0.008881,-0.001857,-0.002585,-0.003362,0.112890,0.180786,-0.977022
1762618657.892471,-0.089686,0.058490,-0.019680,0.994056,0.015314,0.002418,-0.025184,0.002041,0.000012,-0.008387,0.112755,0.180608,-0.977071
1762618657.930169,-0.089560,0.058595,-0.019905,0.994057,0.008998,0.012854,-0.017792,0.002051,0.003692,-0.004221,0.112929,0.180388,-0.977091
1762618657.935863,-0.089468,0.058759,-0.020050,0.994053,0.003424,0.020951,-0.008216,-0.000562,0.002728,-0.001515,0.113232,0.180228,-0.977086
1762618657.966472,-0.089392,0.058835,-0.020161,0.994053,0.010557,0.003701,-0.008020,-0.001866,0.002857,0.004648,0.113365,0.180092,-0.977095
1762618658.015389,-0.089314,0.058837,-0.020148,0.994060,0.008691,0.001016,-0.001287,-0.001108,0.001581,0.003145,0.113375,0.179937,-0.977123
1762618658.015742,-0.089236,0.058839,-0.020135,0.994067,0.006826,-0.001670,0.005446,-0.000350,0.000305,0.001643,0.113386,0.179782,-0.977150
1762618658.016422,-0.089146,0.058856,-0.020072,0.994075,0.008977,-0.001674,0.003313,0.000752,-0.002682,0.000515,0.113436,0.179599,-0.977178
1762618658.048618,-0.089031,0.058796,-0.020066,0.994089,0.010666,-0.003357,0.002091,0.000697,-0.001838,-0.000943,0.113324,0.179369,-0.977233
1762618658.052149,-0.088951,0.058796,-0.020069,0.994097,0.009308,0.001860,0.001380,0.001043,-0.001822,-0.003480,0.113328,0.179211,-0.977261
1762618658.082882,-0.088869,0.058818,-0.020107,0.994102,0.008259,0.002944,-0.003625,0.000594,-0.001033,-0.004578,0.113368,0.179055,-0.977285
1762618658.137912,-0.088819,0.058919,-0.020162,0.994099,0.004365,0.005644,-0.004749,0.001162,-0.000839,-0.002327,0.113561,0.178966,-0.977279
1762618658.138176,-0.088769,0.059020,-0.020216,0.994097,0.000472,0.008344,-0.005872,0.001731,-0.000644,-0.000076,0.113755,0.178876,-0.977273
1762618658.139815,-0.088768,0.059064,-0.020275,0.994093,0.002279,0.005458,-0.005508,0.001815,-0.000615,0.000255,0.113830,0.178883,-0.977263
1762618658.170522,-0.088752,0.059181,-0.020339,0.994086,0.002668,0.011232,-0.004547,0.000669,-0.001472,0.000168,0.114052,0.178861,-0.977241
1762618658.173672,-0.088720,0.059269,-0.020437,0.994081,0.002402,0.004670,-0.006492,-0.000035,-0.001420,0.003668,0.114211,0.178813,-0.977232
1762618658.241375,-0.088657,0.059207,-0.020491,0.994090,0.005245,-0.003530,-0.004520,-0.000019,-0.000762,0.001970,0.114081,0.178692,-0.977269
1762618658.241716,-0.088593,0.059145,-0.020544,0.994098,0.008089,-0.011730,-0.002549,-0.000003,-0.000105,0.000271,0.113951,0.178571,-0.977306
1762618658.241946,-0.088531,0.059045,-0.020535,0.994110,0.003408,-0.008660,0.003989,-0.000232,0.001323,-0.001275,0.113759,0.178444,-0.977352
1762618658.269494,-0.088484,0.058893,-0.020497,0.994124,0.001257,-0.012782,0.004872,-0.000543,0.000979,-0.000895,0.113467,0.178342,-0.977404
1762618658.271493,-0.088500,0.058813,-0.020437,0.994128,-0.003036,-0.009469,0.004183,0.001366,0.000285,-0.002941,0.113318,0.178364,-0.977418
1762618658.300633,-0.088547,0.058722,-0.020407,0.994130,-0.003507,-0.005259,0.000267,0.000344,-0.001280,-0.003942,0.113142,0.178450,-0.977422
1762618658.331289,-0.088596,0.058696,-0.020417,0.994127,-0.002441,-0.002544,-0.002618,0.000544,-0.002233,-0.002155,0.113085,0.178548,-0.977411
1762618658.332666,-0.088618,0.058685,-0.020485,0.994124,-0.001739,-0.001110,-0.004178,-0.000230,-0.002088,-0.002061,0.113050,0.178599,-0.977406
1762618658.362763,-0.088614,0.058696,-0.020529,0.994123,0.000518,-0.000376,-0.005295,0.001474,-0.001397,-0.000581,0.113063,0.178596,-0.977405
1762618658.395620,-0.088571,0.058687,-0.020571,0.994127,-0.000137,-0.001256,-0.001845,0.001502,-0.001252,0.000800,0.113042,0.178517,-0.977422
1762618658.395950,-0.088524,0.058677,-0.020613,0.994131,0.004779,-0.004307,-0.004201,0.001172,-0.003688,0.003502,0.113015,0.178428,-0.977441
1762618658.424367,-0.088457,0.058595,-0.020636,0.994141,0.007424,-0.010493,-0.006347,0.003163,-0.002728,-0.000241,0.112853,0.178295,-0.977484
1762618658.432082,-0.088415,0.058539,-0.020691,0.994147,0.000019,0.001637,-0.001009,0.003383,-0.003892,-0.003096,0.112734,0.178217,-0.977512
1762618658.462229,-0.088426,0.058483,-0.020677,0.994149,-0.001475,-0.009638,0.000148,0.001707,-0.006048,0.002607,0.112626,0.178235,-0.977521
1762618658.491720,-0.088463,0.058263,-0.020700,0.994159,-0.010659,-0.033769,-0.002447,0.000990,-0.005472,0.002517,0.112183,0.178305,-0.977559
1762618658.491969,-0.088642,0.057949,-0.020595,0.994163,-0.027593,-0.027309,0.010544,0.007132,-0.010064,-0.005019,0.111570,0.178636,-0.977569
1762618658.531287,-0.088982,0.057792,-0.020421,0.994145,-0.055122,-0.012845,0.014839,0.007283,-0.009745,-0.006597,0.111273,0.179283,-0.977484
1762618658.533424,-0.089674,0.057680,-0.020167,0.994095,-0.094941,-0.018531,0.031270,0.005103,-0.008982,-0.003390,0.111062,0.180616,-0.977263
1762618658.572881,-0.090773,0.057580,-0.019744,0.994010,-0.132651,-0.022320,0.036810,0.002880,-0.015417,0.001357,0.110885,0.182733,-0.976889
1762618658.575441,-0.092064,0.057408,-0.019275,0.993910,-0.144381,-0.027947,0.028914,0.005408,-0.024852,0.001458,0.110568,0.185220,-0.976457
1762618658.604392,-0.093367,0.057282,-0.018928,0.993802,-0.138771,-0.013746,0.017083,0.007544,-0.037580,0.000455,0.110319,0.187746,-0.976003
1762618658.612273,-0.094518,0.057260,-0.018800,0.993697,-0.111864,-0.004001,-0.012023,0.004826,-0.045762,0.004035,0.110244,0.189998,-0.975575
1762618658.640630,-0.095344,0.057193,-0.018993,0.993618,-0.077982,-0.009494,-0.033794,0.004028,-0.049026,0.008222,0.110035,0.191643,-0.975277
1762618658.670347,-0.095814,0.057113,-0.019307,0.993572,-0.056676,-0.008124,-0.038278,0.002204,-0.044794,0.005593,0.109793,0.192602,-0.975115
1762618658.671400,-0.096123,0.057067,-0.019552,0.993540,-0.053046,-0.007235,-0.024509,0.001389,-0.040868,-0.000648,0.109637,0.193235,-0.975008
1762618658.712926,-0.096331,0.057110,-0.019762,0.993513,-0.050084,0.003892,-0.017024,0.002541,-0.036271,-0.005701,0.109672,0.193669,-0.974918
1762618658.714110,-0.096644,0.057241,-0.019877,0.993473,-0.064954,0.023224,-0.014484,0.003449,-0.042105,-0.006358,0.109893,0.194302,-0.974767
1762618658.743127,-0.097059,0.057523,-0.019947,0.993415,-0.077826,0.028766,-0.005993,-0.001034,-0.044432,0.000013,0.110417,0.195134,-0.974541
1762618658.773957,-0.097508,0.057729,-0.020008,0.993358,-0.063518,0.018773,-0.015205,0.003220,-0.056190,0.001205,0.110788,0.196030,-0.974319
1762618658.776589,-0.097797,0.057932,-0.020187,0.993314,-0.048082,0.022564,-0.023017,0.005849,-0.056590,0.000339,0.111142,0.196624,-0.974159
1762618658.831370,-0.097853,0.058102,-0.020536,0.993291,-0.038339,0.018306,-0.032476,0.004529,-0.049492,0.002078,0.111405,0.196779,-0.974098
1762618658.831751,-0.097909,0.058271,-0.020886,0.993268,-0.028596,0.014048,-0.041936,0.003208,-0.042394,0.003817,0.111667,0.196933,-0.974037
1762618658.832702,-0.097964,0.058233,-0.021180,0.993259,-0.047528,-0.016126,-0.019595,0.002149,-0.033443,0.003384,0.111532,0.197075,-0.974024
1762618658.864824,-0.098193,0.058050,-0.021183,0.993247,-0.067448,-0.025744,0.008150,0.006662,-0.031603,0.001402,0.111155,0.197519,-0.973977
1762618658.868374,-0.098408,0.057680,-0.021051,0.993250,-0.038484,-0.052799,-0.015076,0.008133,-0.044715,0.002746,0.110439,0.197916,-0.973978
1762618658.906585,-0.098421,0.057119,-0.021241,0.993277,-0.019874,-0.052056,-0.040373,0.017548,-0.035165,-0.002772,0.109288,0.197945,-0.974102
1762618658.908657,-0.098476,0.056662,-0.021859,0.993284,-0.030191,-0.038563,-0.085064,0.013591,-0.024149,0.004125,0.108258,0.198106,-0.974184
1762618658.937485,-0.098878,0.056242,-0.022673,0.993250,-0.081135,-0.039984,-0.095609,0.007046,-0.015201,0.011720,0.107241,0.198972,-0.974120
1762618658.968198,-0.099659,0.055725,-0.023495,0.993182,-0.116104,-0.077325,-0.097978,-0.001169,-0.007946,0.025118,0.106007,0.200577,-0.973926
1762618658.971107,-0.100736,0.054818,-0.024384,0.993103,-0.136339,-0.099595,-0.111753,0.002115,0.004272,0.009479,0.103966,0.202756,-0.973695
1762618658.999745,-0.102143,0.053911,-0.025150,0.992989,-0.172746,-0.097441,-0.083836,0.001928,0.009928,0.008910,0.101929,0.205565,-0.973321
1762618659.030186,-0.103821,0.052958,-0.025711,0.992852,-0.177941,-0.104557,-0.066494,0.003626,0.011754,0.001789,0.099820,0.208881,-0.972833
1762618659.032327,-0.105528,0.052181,-0.026063,0.992704,-0.164926,-0.069382,-0.050695,0.003468,0.007805,-0.005066,0.098100,0.212236,-0.972282
1762618659.061608,-0.107028,0.051675,-0.026442,0.992560,-0.139763,-0.041129,-0.048757,-0.002587,0.012378,-0.001274,0.096921,0.215196,-0.971750
1762618659.091293,-0.108377,0.051390,-0.026763,0.992420,-0.128284,-0.022354,-0.027971,-0.011040,0.020173,0.003282,0.096199,0.217863,-0.971227
1762618659.093694,-0.109627,0.051217,-0.026846,0.992289,-0.113248,-0.036043,-0.012007,-0.022775,0.027786,0.014087,0.095759,0.220313,-0.970717
1762618659.138018,-0.110862,0.050848,-0.026565,0.992179,-0.131631,-0.037292,0.018467,-0.020626,0.036802,0.008440,0.095011,0.222691,-0.970248
1762618659.138283,-0.112096,0.050479,-0.026284,0.992066,-0.150014,-0.038541,0.048940,-0.018479,0.045819,0.002786,0.094265,0.225068,-0.969772
1762618659.167308,-0.113815,0.050188,-0.025484,0.991906,-0.180734,-0.030026,0.089594,-0.012491,0.035061,-0.000690,0.093763,0.228346,-0.969055
1762618659.170186,-0.115575,0.050042,-0.024479,0.991735,-0.151867,-0.018593,0.091008,-0.012952,0.022227,0.002413,0.093599,0.231690,-0.968276
1762618659.200222,-0.117017,0.049873,-0.023597,0.991596,-0.112144,-0.011358,0.066820,-0.011546,0.021345,-0.006741,0.093385,0.234420,-0.967640
1762618659.240262,-0.118226,0.049878,-0.022969,0.991467,-0.109607,0.003204,0.065331,-0.011468,0.025613,0.001202,0.093473,0.236725,-0.967070
1762618659.240551,-0.119434,0.049882,-0.022340,0.991336,-0.107070,0.017765,0.063843,-0.011394,0.029883,0.009138,0.093563,0.239028,-0.966494
1762618659.290124,-0.120433,0.049930,-0.021718,0.991227,-0.096951,0.014594,0.058617,-0.009025,0.029149,0.008953,0.093753,0.240923,-0.966006
1762618659.290423,-0.121432,0.049978,-0.021096,0.991116,-0.086831,0.011423,0.053391,-0.006659,0.028415,0.008763,0.093945,0.242816,-0.965513
1762618659.292295,-0.122355,0.050099,-0.020547,0.991008,-0.084273,0.017725,0.051954,-0.001972,0.028287,0.005355,0.094269,0.244569,-0.965038
1762618659.320960,-0.123336,0.050396,-0.020062,0.990881,-0.083576,0.047734,0.046404,0.002560,0.022509,-0.002000,0.094924,0.246446,-0.964497
1762618659.328384,-0.124224,0.050989,-0.019728,0.990747,-0.074559,0.071071,0.038274,0.001277,0.022144,0.005290,0.096132,0.248161,-0.963937
1762618659.357698,-0.125093,0.051687,-0.019516,0.990606,-0.071273,0.063138,0.015528,-0.003829,0.022388,0.011512,0.097520,0.249853,-0.963360
1762618659.387741,-0.125984,0.052245,-0.019457,0.990464,-0.079549,0.052836,0.007588,-0.004923,0.026347,0.013301,0.098592,0.251599,-0.962797
1762618659.389799,-0.126858,0.052666,-0.019493,0.990330,-0.082288,0.027605,-0.013898,0.000367,0.034038,0.003307,0.099368,0.253315,-0.962267
1762618659.431376,-0.127963,0.052941,-0.019653,0.990170,-0.117075,0.034722,-0.015522,0.007113,0.041285,-0.003747,0.099812,0.255492,-0.961645
1762618659.461725,-0.129406,0.053341,-0.019786,0.989958,-0.143648,0.052303,-0.009277,0.006388,0.040818,-0.000357,0.100489,0.258324,-0.960818
1762618659.469580,-0.130851,0.053598,-0.020042,0.989749,-0.132672,0.028231,-0.028833,-0.001133,0.047338,0.001323,0.100852,0.261169,-0.960010
1762618659.499362,-0.132356,0.053711,-0.020317,0.989537,-0.143628,0.008530,-0.030907,-0.003448,0.054867,-0.000990,0.100921,0.264125,-0.959194
1762618659.530430,-0.134049,0.053737,-0.020556,0.989303,-0.159355,0.000662,-0.029396,-0.003882,0.056186,-0.001910,0.100813,0.267439,-0.958287
1762618659.530676,-0.135822,0.053728,-0.020759,0.989058,-0.160312,0.005439,-0.027317,-0.001681,0.053840,-0.003959,0.100641,0.270901,-0.957332
1762618659.558208,-0.137560,0.053753,-0.020968,0.988811,-0.145389,0.004144,-0.025146,-0.004895,0.051906,-0.002782,0.100535,0.274296,-0.956376
1762618659.591625,-0.139214,0.053737,-0.021202,0.988576,-0.137747,0.002701,-0.033169,-0.004703,0.048887,-0.007467,0.100344,0.277525,-0.955464
1762618659.591914,-0.140805,0.053712,-0.021499,0.988345,-0.135385,0.008344,-0.034858,-0.004127,0.048697,-0.006956,0.100117,0.280638,-0.954578
1762618659.621242,-0.142315,0.053714,-0.021782,0.988123,-0.122840,0.005867,-0.032270,-0.005689,0.044431,-0.007133,0.099952,0.283589,-0.953723
1762618659.628817,-0.143656,0.053736,-0.022042,0.987922,-0.101310,0.003217,-0.030692,-0.007252,0.041847,-0.006610,0.099841,0.286211,-0.952951
1762618659.658788,-0.144789,0.053745,-0.022334,0.987749,-0.090025,0.012771,-0.031064,-0.002691,0.039164,-0.009367,0.099706,0.288431,-0.952295
1762618659.689125,-0.145888,0.053849,-0.022594,0.987576,-0.094172,0.022928,-0.019510,-0.000651,0.036057,-0.006762,0.099768,0.290584,-0.951634
1762618659.689460,-0.146996,0.054063,-0.022760,0.987396,-0.088520,0.022404,-0.013783,-0.002468,0.028054,0.001526,0.100073,0.292747,-0.950939
1762618659.731552,-0.147974,0.054164,-0.022928,0.987241,-0.071355,0.009944,-0.019547,-0.002672,0.021665,0.002982,0.100161,0.294655,-0.950340
1762618659.733551,-0.148807,0.054188,-0.023149,0.987109,-0.060531,0.002288,-0.026930,-0.000285,0.017326,0.002355,0.100089,0.296287,-0.949840
1762618659.761966,-0.149563,0.054149,-0.023415,0.986991,-0.055295,-0.005161,-0.031094,-0.000348,0.014120,0.004055,0.099886,0.297770,-0.949398
1762618659.765477,-0.150261,0.054016,-0.023713,0.986885,-0.054153,-0.006846,-0.033451,-0.000037,0.010948,0.002874,0.099489,0.299142,-0.949008
1762618659.796495,-0.150922,0.053865,-0.024037,0.986784,-0.049281,-0.012832,-0.038699,0.000331,0.007459,0.003500,0.099050,0.300444,-0.948642
1762618659.825842,-0.151520,0.053690,-0.024395,0.986693,-0.045047,-0.011900,-0.038302,0.000609,0.004978,0.001708,0.098558,0.301628,-0.948318
1762618659.827743,-0.152032,0.053546,-0.024743,0.986614,-0.039033,-0.008280,-0.036224,0.001350,0.004689,-0.000915,0.098135,0.302644,-0.948038
1762618659.856996,-0.152471,0.053488,-0.025089,0.986540,-0.033878,0.004713,-0.032553,0.002544,0.004269,-0.001333,0.097886,0.303521,-0.947783
1762618659.887899,-0.152838,0.053528,-0.025407,0.986473,-0.028311,0.011511,-0.028881,0.002595,0.003867,-0.001967,0.097842,0.304262,-0.947550
1762618659.889079,-0.153141,0.053633,-0.025723,0.986412,-0.025606,0.014814,-0.027097,0.002454,0.003352,-0.001925,0.097930,0.304880,-0.947343
1762618659.919115,-0.153425,0.053786,-0.025997,0.986353,-0.025788,0.016161,-0.024282,0.002415,0.002339,-0.000417,0.098126,0.305458,-0.947136
1762618659.948372,-0.153700,0.053909,-0.026260,0.986296,-0.021954,0.011745,-0.024232,0.003057,0.000499,0.000120,0.098268,0.306019,-0.946940
1762618659.950203,-0.153948,0.053974,-0.026517,0.986247,-0.022327,0.009597,-0.023825,0.004225,-0.000298,-0.001303,0.098300,0.306524,-0.946774
1762618659.981416,-0.154152,0.054045,-0.026751,0.986205,-0.017254,0.006802,-0.019834,0.004464,-0.000578,0.000130,0.098352,0.306942,-0.946633
1762618659.986123,-0.154319,0.054085,-0.026985,0.986170,-0.012097,0.002287,-0.020965,0.003542,-0.001878,0.001445,0.098346,0.307288,-0.946521
1762618660.030475,-0.154440,0.054051,-0.027187,0.986148,-0.007964,-0.007248,-0.020162,0.002593,-0.001578,0.000501,0.098207,0.307540,-0.946454
1762618660.032230,-0.154539,0.053981,-0.027373,0.986131,-0.011193,-0.005555,-0.015067,0.002186,-0.001827,-0.001017,0.098004,0.307747,-0.946407
1762618660.060976,-0.154664,0.053914,-0.027490,0.986112,-0.012721,-0.009298,-0.015304,0.000949,-0.003118,-0.001119,0.097827,0.307996,-0.946345
1762618660.067257,-0.154795,0.053810,-0.027623,0.986093,-0.014584,-0.013756,-0.013999,-0.000460,-0.002322,-0.003189,0.097571,0.308257,-0.946286
1762618660.098947,-0.154957,0.053684,-0.027723,0.986072,-0.020853,-0.011817,-0.012210,0.000039,-0.002331,-0.005442,0.097280,0.308574,-0.946213
1762618660.139312,-0.155273,0.053623,-0.027814,0.986023,-0.030996,-0.008479,-0.013039,-0.000569,-0.002834,-0.002635,0.097110,0.309188,-0.946030
1762618660.139557,-0.155589,0.053563,-0.027905,0.985974,-0.041140,-0.005141,-0.013868,-0.001177,-0.003337,0.000172,0.096940,0.309802,-0.945846
1762618660.171313,-0.155973,0.053520,-0.028024,0.985912,-0.041978,-0.003354,-0.018053,-0.000748,-0.005338,0.000240,0.096790,0.310550,-0.945616
1762618660.172589,-0.156362,0.053434,-0.028206,0.985850,-0.039542,-0.006492,-0.025280,0.000364,-0.004305,-0.001153,0.096536,0.311314,-0.945391
1762618660.201069,-0.156754,0.053407,-0.028464,0.985782,-0.045445,0.003536,-0.028917,-0.000477,-0.002212,-0.000272,0.096371,0.312090,-0.945152
1762618660.205485,-0.157164,0.053347,-0.028734,0.985712,-0.039216,-0.006946,-0.029968,-0.001766,-0.001690,0.004444,0.096138,0.312902,-0.944907
1762618660.241513,-0.157488,0.053185,-0.028999,0.985661,-0.032005,-0.014116,-0.027498,-0.000478,0.001374,0.004261,0.095710,0.313544,-0.944738
1762618660.246086,-0.157743,0.053016,-0.029191,0.985624,-0.022864,-0.015603,-0.017437,0.000234,0.002031,0.002018,0.095297,0.314046,-0.944613
1762618660.274782,-0.157917,0.052873,-0.029279,0.985601,-0.013895,-0.010946,-0.010011,0.003524,0.003663,-0.000871,0.094977,0.314382,-0.944533
1762618660.331350,-0.158077,0.052904,-0.029299,0.985573,-0.020401,0.001144,-0.004344,0.003488,0.006033,-0.002505,0.095018,0.314693,-0.944426
1762618660.331660,-0.158237,0.052934,-0.029319,0.985545,-0.026906,0.013235,0.001324,0.003452,0.008403,-0.004140,0.095059,0.315004,-0.944318
1762618660.333271,-0.158476,0.053062,-0.029318,0.985500,-0.027427,0.009616,-0.003296,0.001349,0.006357,-0.002109,0.095293,0.315467,-0.944140
1762618660.361882,-0.158718,0.053105,-0.029387,0.985457,-0.018032,0.000072,-0.012503,0.002137,0.005184,0.000985,0.095337,0.315940,-0.943977
1762618660.368354,-0.158843,0.053089,-0.029522,0.985433,-0.003643,-0.000785,-0.016227,0.004388,0.005555,-0.000288,0.095253,0.316193,-0.943901
1762618660.399259,-0.158844,0.053073,-0.029701,0.985429,0.005868,0.000217,-0.018367,0.003105,0.006120,0.000595,0.095164,0.316211,-0.943904
1762618660.405898,-0.158813,0.053006,-0.029889,0.985432,0.002098,-0.006648,-0.018033,0.000820,0.006946,0.002212,0.094974,0.316168,-0.943937
1762618660.435902,-0.158892,0.052912,-0.030057,0.985419,-0.012117,-0.009592,-0.016072,0.000168,0.006031,0.001233,0.094729,0.316332,-0.943907
1762618660.465480,-0.159146,0.052840,-0.030212,0.985377,-0.033306,-0.006887,-0.019833,0.000180,0.002003,-0.001610,0.094519,0.316831,-0.943761
1762618660.465787,-0.159656,0.052889,-0.030394,0.985286,-0.057462,0.008475,-0.021491,-0.001542,-0.003198,0.000704,0.094516,0.317829,-0.943425
1762618660.494778,-0.160279,0.052952,-0.030638,0.985174,-0.056805,0.006994,-0.030488,-0.003568,-0.006770,0.000154,0.094512,0.319049,-0.943014
1762618660.525013,-0.160828,0.052922,-0.030976,0.985076,-0.045104,0.004071,-0.040312,-0.001164,-0.006423,-0.002689,0.094301,0.320135,-0.942667
1762618660.527122,-0.161284,0.052975,-0.031373,0.984986,-0.045176,0.014698,-0.035056,-0.001348,-0.002314,-0.001778,0.094239,0.321049,-0.942362
1762618660.575308,-0.161689,0.053088,-0.031649,0.984904,-0.041101,0.012459,-0.029631,-0.002117,-0.000836,-0.001134,0.094338,0.321856,-0.942077
1762618660.575553,-0.162093,0.053200,-0.031924,0.984823,-0.037026,0.010221,-0.024206,-0.002885,0.000642,-0.000491,0.094436,0.322663,-0.941791
1762618660.633337,-0.162355,0.053237,-0.032107,0.984772,-0.032876,0.009587,-0.018205,-0.001414,0.001794,-0.000317,0.094426,0.323184,-0.941613
1762618660.633695,-0.162616,0.053273,-0.032290,0.984721,-0.028726,0.008953,-0.012203,0.000057,0.002947,-0.000143,0.094416,0.323704,-0.941436
1762618660.633959,-0.162863,0.053310,-0.032404,0.984674,-0.020962,0.002774,-0.009001,0.000149,0.002099,0.000672,0.094431,0.324189,-0.941267
1762618660.662383,-0.163025,0.053311,-0.032497,0.984644,-0.012381,0.000625,-0.009064,0.000418,0.001635,-0.000428,0.094389,0.324509,-0.941161
1762618660.664095,-0.163123,0.053292,-0.032603,0.984626,-0.004887,-0.000756,-0.010803,0.000655,0.001385,-0.001673,0.094308,0.324706,-0.941102
1762618660.693596,-0.163183,0.053253,-0.032704,0.984615,-0.001553,-0.000567,-0.009380,0.000866,0.003606,-0.001586,0.094194,0.324828,-0.941071
1762618660.724018,-0.163242,0.053241,-0.032792,0.984603,-0.004333,0.001743,-0.005699,0.001946,0.003505,-0.002859,0.094136,0.324948,-0.941035
1762618660.725043,-0.163324,0.053285,-0.032876,0.984584,-0.007367,0.003390,-0.005839,0.001736,0.002108,-0.001960,0.094189,0.325117,-0.940972
1762618660.754855,-0.163415,0.053322,-0.032956,0.984564,-0.008356,0.001630,-0.006479,0.002347,0.000836,-0.000266,0.094227,0.325299,-0.940905
1762618660.799850,-0.163501,0.053331,-0.033056,0.984546,-0.005648,0.001369,-0.010893,0.001565,0.000213,-0.000036,0.094203,0.325475,-0.940846
1762618660.800128,-0.163582,0.053333,-0.033186,0.984528,-0.005664,0.000078,-0.014563,0.001095,-0.000033,0.000814,0.094159,0.325641,-0.940793
1762618660.803690,-0.163686,0.053322,-0.033341,0.984506,-0.007504,-0.002288,-0.015657,0.000038,0.000134,0.003352,0.094076,0.325855,-0.940727
1762618660.832055,-0.163771,0.053282,-0.033495,0.984489,-0.005811,-0.005800,-0.015643,0.000643,0.000648,0.002349,0.093940,0.326030,-0.940680
1762618660.862025,-0.163838,0.053220,-0.033638,0.984476,-0.004545,-0.004366,-0.012641,0.000467,0.000633,0.000687,0.093766,0.326170,-0.940649
1762618660.892459,-0.163861,0.053192,-0.033779,0.984469,-0.001253,-0.003023,-0.012439,0.000576,0.001762,0.001060,0.093661,0.326226,-0.940640
1762618660.894292,-0.163886,0.053149,-0.033896,0.984463,-0.000459,-0.002193,-0.007846,0.000865,0.002993,0.001230,0.093536,0.326283,-0.940633
1762618660.934334,-0.163880,0.053145,-0.033965,0.984462,0.002154,0.000361,-0.007256,0.000828,0.002615,0.000551,0.093505,0.326276,-0.940638
1762618660.934650,-0.163873,0.053141,-0.034035,0.984461,0.004767,0.002914,-0.006666,0.000791,0.002238,-0.000128,0.093475,0.326270,-0.940643
1762618660.966652,-0.163817,0.053131,-0.034110,0.984468,0.008845,0.002287,-0.006639,0.001068,0.002374,-0.001562,0.093436,0.326171,-0.940682
1762618660.997158,-0.163730,0.053150,-0.034201,0.984478,0.011157,0.003456,-0.006625,0.001560,0.003922,-0.001448,0.093450,0.326014,-0.940735
1762618660.997665,-0.163620,0.053172,-0.034288,0.984492,0.010819,0.003629,-0.006037,0.002287,0.004446,-0.001311,0.093475,0.325812,-0.940802
1762618661.004746,-0.163535,0.053210,-0.034361,0.984502,0.010265,0.006263,-0.005188,0.001831,0.002919,-0.000118,0.093532,0.325658,-0.940850
1762618661.034821,-0.163426,0.053240,-0.034440,0.984516,0.013556,0.001411,-0.010183,0.002518,0.001133,-0.000171,0.093575,0.325458,-0.940915
1762618661.064701,-0.163338,0.053273,-0.034564,0.984524,0.011053,0.006241,-0.009472,0.001307,0.001653,0.001063,0.093605,0.325302,-0.940966
1762618661.064995,-0.163232,0.053277,-0.034675,0.984538,0.014557,-0.005320,-0.008543,-0.000514,0.001092,0.004182,0.093586,0.325111,-0.941034
1762618661.093131,-0.163117,0.053193,-0.034757,0.984558,0.015750,-0.011141,-0.007372,0.000410,0.001081,0.002697,0.093405,0.324894,-0.941127
1762618661.130318,-0.162987,0.053077,-0.034781,0.984585,0.013254,-0.009462,-0.001277,0.000595,0.000748,-0.000713,0.093179,0.324641,-0.941236
1762618661.141648,-0.162862,0.053006,-0.034759,0.984611,0.011826,-0.002097,0.002602,0.001912,0.001820,-0.003657,0.093058,0.324396,-0.941333
1762618661.141975,-0.162808,0.053083,-0.034709,0.984617,-0.001084,0.013397,0.011222,0.002641,0.003469,-0.006952,0.093231,0.324291,-0.941352
1762618661.180493,-0.162903,0.053311,-0.034625,0.984592,-0.014698,0.019601,0.012261,0.000677,0.002911,-0.004372,0.093699,0.324478,-0.941241
1762618661.183584,-0.163064,0.053498,-0.034565,0.984557,-0.017211,0.014645,-0.002086,-0.000345,0.000672,-0.002770,0.094071,0.324791,-0.941096
1762618661.242849,-0.163238,0.053604,-0.034739,0.984517,-0.017811,0.016897,-0.012831,-0.000146,0.000406,-0.002263,0.094207,0.325146,-0.940960
1762618661.243127,-0.163412,0.053710,-0.034913,0.984476,-0.018411,0.019149,-0.023575,0.000054,0.000139,-0.001757,0.094342,0.325501,-0.940823
1762618661.243446,-0.163575,0.053830,-0.035190,0.984432,-0.013776,0.016861,-0.028941,-0.001115,0.001258,0.001365,0.094472,0.325846,-0.940691
1762618661.273171,-0.163708,0.053910,-0.035511,0.984394,-0.010672,0.012214,-0.030938,-0.000894,0.001091,0.004058,0.094511,0.326135,-0.940587
1762618661.304402,-0.163804,0.053935,-0.035795,0.984367,-0.006085,0.005807,-0.024768,-0.001443,0.000411,0.004373,0.094457,0.326348,-0.940518
1762618661.307194,-0.163832,0.053860,-0.036027,0.984358,-0.000092,-0.004911,-0.019488,-0.000443,0.000530,0.001512,0.094230,0.326420,-0.940516
1762618661.334705,-0.163828,0.053816,-0.036196,0.984355,0.001059,-0.000015,-0.010757,0.000822,0.001542,0.000745,0.094089,0.326425,-0.940529
1762618661.387120,-0.163798,0.053762,-0.036227,0.984361,0.004463,-0.007077,-0.007445,0.001207,0.001547,-0.000209,0.093974,0.326369,-0.940560
1762618661.387467,-0.163769,0.053707,-0.036259,0.984368,0.007867,-0.014138,-0.004133,0.001592,0.001553,-0.001163,0.093860,0.326313,-0.940591
1762618661.387886,-0.163744,0.053639,-0.036260,0.984376,0.002415,-0.007427,0.001322,0.002647,0.002089,-0.002262,0.093728,0.326261,-0.940622
1762618661.416749,-0.163754,0.053639,-0.036227,0.984375,-0.000942,0.003273,0.003929,0.002201,0.000962,-0.003603,0.093737,0.326278,-0.940615
1762618661.476186,-0.163763,0.053662,-0.036262,0.984371,0.000493,0.003840,-0.000473,0.001560,0.001089,-0.002292,0.093769,0.326299,-0.940604
1762618661.476523,-0.163772,0.053684,-0.036296,0.984367,0.001929,0.004407,-0.004875,0.000918,0.001215,-0.000981,0.093801,0.326320,-0.940594
1762618661.476793,-0.163756,0.053742,-0.036370,0.984364,0.003655,0.006783,-0.009102,0.001995,0.001237,-0.001410,0.093892,0.326301,-0.940591
1762618661.504564,-0.163703,0.053854,-0.036507,0.984362,0.006006,0.011439,-0.013252,0.001375,0.000353,-0.000513,0.094071,0.326217,-0.940602
1762618661.506814,-0.163633,0.053972,-0.036706,0.984360,0.007555,0.015762,-0.020680,0.002346,-0.000019,-0.000341,0.094242,0.326110,-0.940623
1762618661.535687,-0.163573,0.054060,-0.036985,0.984354,0.008985,0.014007,-0.028376,0.002114,0.000037,0.000426,0.094329,0.326026,-0.940643
1762618661.575289,-0.163527,0.054140,-0.037360,0.984343,0.006752,0.012814,-0.034405,0.001856,0.001184,-0.000476,0.094366,0.325978,-0.940656
1762618661.575626,-0.163481,0.054220,-0.037734,0.984332,0.004519,0.011622,-0.040433,0.001597,0.002331,-0.001378,0.094403,0.325930,-0.940669
1762618661.581102,-0.163478,0.054282,-0.038156,0.984313,-0.001441,0.010258,-0.036447,0.000783,0.003470,0.000118,0.094387,0.325969,-0.940657
1762618661.609793,-0.163521,0.054316,-0.038516,0.984290,-0.003322,0.007774,-0.028094,0.001220,0.004533,0.000842,0.094329,0.326088,-0.940621
1762618661.640520,-0.163572,0.054362,-0.038772,0.984269,-0.001798,0.005103,-0.020079,0.000767,0.002667,0.000355,0.094329,0.326214,-0.940578
1762618661.641269,-0.163594,0.054407,-0.038938,0.984256,-0.000887,0.001344,-0.009227,0.000233,0.002417,-0.000335,0.094360,0.326274,-0.940554
1762618661.691936,-0.163613,0.054393,-0.038995,0.984252,-0.001055,-0.002597,0.001059,-0.000235,0.002391,0.000958,0.094312,0.326315,-0.940544
1762618661.695750,-0.163652,0.054401,-0.038938,0.984247,-0.002675,-0.003739,0.008369,-0.000154,0.001441,0.001591,0.094343,0.326385,-0.940517
1762618661.720764,-0.163687,0.054372,-0.038821,0.984248,-0.001866,-0.007257,0.010997,0.000868,-0.000557,0.000051,0.094322,0.326439,-0.940500
1762618661.752612,-0.163706,0.054326,-0.038690,0.984252,-0.000906,-0.008083,0.009711,0.001362,-0.000990,-0.000195,0.094273,0.326461,-0.940498
1762618661.819244,-0.163735,0.054245,-0.038608,0.984255,-0.001750,-0.007895,0.006269,0.001570,-0.001110,-0.000978,0.094138,0.326503,-0.940496
1762618661.819570,-0.163765,0.054163,-0.038526,0.984258,-0.002593,-0.007707,0.002827,0.001778,-0.001230,-0.001761,0.094003,0.326546,-0.940495
1762618661.819825,-0.163794,0.054082,-0.038444,0.984261,-0.003436,-0.007519,-0.000615,0.001987,-0.001351,-0.002545,0.093868,0.326589,-0.940494
1762618661.894252,-0.163824,0.054063,-0.038492,0.984255,-0.002829,-0.003014,-0.003647,0.001450,-0.000986,-0.001857,0.093811,0.326651,-0.940478
1762618661.894802,-0.163855,0.054043,-0.038540,0.984249,-0.002222,0.001491,-0.006678,0.000913,-0.000621,-0.001169,0.093754,0.326713,-0.940462
1762618661.895282,-0.163885,0.054024,-0.038588,0.984243,-0.001615,0.005996,-0.009710,0.000376,-0.000255,-0.000481,0.093697,0.326775,-0.940446
1762618661.918321,-0.163888,0.054040,-0.038748,0.984235,-0.001484,0.005019,-0.014548,0.000971,0.000136,-0.001762,0.093676,0.326797,-0.940441
1762618661.918590,-0.163892,0.054056,-0.038908,0.984227,-0.001354,0.004042,-0.019385,0.001566,0.000528,-0.003043,0.093654,0.326820,-0.940435
1762618661.980560,-0.163902,0.054073,-0.039033,0.984220,0.000821,0.003482,-0.015271,0.001492,0.000174,-0.003088,0.093645,0.326852,-0.940425
1762618661.980900,-0.163912,0.054090,-0.039158,0.984212,0.002997,0.002923,-0.011157,0.001418,-0.000180,-0.003133,0.093635,0.326884,-0.940414
1762618661.981217,-0.163922,0.054107,-0.039283,0.984205,0.005172,0.002363,-0.007043,0.001344,-0.000534,-0.003178,0.093625,0.326917,-0.940404
1762618661.982176,-0.163932,0.054123,-0.039408,0.984197,0.007347,0.001803,-0.002930,0.001270,-0.000888,-0.003223,0.093615,0.326949,-0.940394
1762618661.982855,-0.163928,0.054217,-0.039439,0.984191,0.002857,0.012885,0.001513,0.003412,0.000410,-0.005890,0.093790,0.326950,-0.940376
1762618662.020592,-0.163979,0.054415,-0.039444,0.984172,-0.009155,0.026845,0.008777,0.003806,0.001530,-0.006660,0.094170,0.327061,-0.940300
1762618662.050325,-0.164140,0.054747,-0.039393,0.984128,-0.018656,0.032316,0.009350,0.001276,-0.000164,-0.002690,0.094825,0.327383,-0.940121
1762618662.052701,-0.164288,0.055011,-0.039410,0.984088,-0.015029,0.020751,-0.002784,-0.000258,-0.001549,0.000543,0.095321,0.327684,-0.939966
1762618662.089155,-0.164426,0.055138,-0.039522,0.984054,-0.014471,0.006816,-0.013213,0.000647,0.000431,0.001536,0.095520,0.327966,-0.939848
1762618662.139832,-0.164561,0.055138,-0.039669,0.984025,-0.011769,0.003785,-0.011268,0.000404,0.000135,0.002833,0.095458,0.328239,-0.939759
1762618662.140082,-0.164697,0.055138,-0.039816,0.983997,-0.009067,0.000754,-0.009322,0.000160,-0.000161,0.004131,0.095396,0.328512,-0.939670
1762618662.140405,-0.164832,0.055138,-0.039962,0.983968,-0.006365,-0.002277,-0.007376,-0.000084,-0.000457,0.005428,0.095334,0.328786,-0.939580
1762618662.141514,-0.164907,0.055097,-0.040055,0.983954,-0.002235,-0.004509,-0.004396,-0.000148,0.000729,0.004624,0.095215,0.328936,-0.939540
1762618662.171336,-0.164944,0.055010,-0.040077,0.983952,0.000125,-0.006516,-0.002199,0.001076,0.001228,0.000701,0.095033,0.329003,-0.939535
1762618662.205351,-0.164968,0.054986,-0.040098,0.983948,-0.001444,-0.002965,-0.000238,0.000979,0.000303,0.000372,0.094976,0.329050,-0.939524
1762618662.205607,-0.165009,0.054918,-0.040092,0.983945,-0.002733,-0.003971,-0.000287,0.000445,-0.000338,-0.001089,0.094841,0.329122,-0.939512
1762618662.242687,-0.165071,0.054817,-0.040098,0.983940,0.000334,-0.012603,-0.007812,0.001478,-0.000127,-0.000654,0.094636,0.329236,-0.939493
1762618662.245026,-0.165103,0.054715,-0.040181,0.983937,-0.002824,-0.004854,-0.007776,0.003282,0.000818,-0.003278,0.094405,0.329300,-0.939494
1762618662.280492,-0.165182,0.054767,-0.040264,0.983918,-0.009118,0.006954,-0.005577,0.002202,0.001788,-0.003769,0.094471,0.329462,-0.939431
1762618662.312511,-0.165281,0.054834,-0.040321,0.983895,-0.009411,0.002902,-0.004792,-0.000216,0.000171,0.000089,0.094574,0.329660,-0.939351
1762618662.312795,-0.165365,0.054831,-0.040377,0.983879,-0.004624,-0.002984,-0.004369,0.000182,0.000865,0.000036,0.094541,0.329827,-0.939296
1762618662.366505,-0.165401,0.054827,-0.040413,0.983871,-0.003491,-0.002195,-0.004382,0.000424,0.000708,0.000858,0.094517,0.329899,-0.939273
1762618662.366829,-0.165438,0.054823,-0.040449,0.983864,-0.002358,-0.001405,-0.004395,0.000665,0.000552,0.001679,0.094494,0.329971,-0.939250
1762618662.369165,-0.165468,0.054788,-0.040522,0.983858,-0.002592,-0.003547,-0.005238,0.000818,0.000027,0.000746,0.094397,0.330035,-0.939237
1762618662.398948,-0.165526,0.054745,-0.040584,0.983848,-0.002822,-0.005223,-0.006403,0.000515,0.000391,-0.000129,0.094286,0.330148,-0.939208
1762618662.401299,-0.165574,0.054723,-0.040644,0.983839,-0.002492,-0.003333,-0.004338,0.000993,0.001677,-0.001723,0.094218,0.330244,-0.939182
1762618662.429169,-0.165612,0.054736,-0.040692,0.983830,-0.001338,0.004222,-0.003723,0.001177,0.002174,-0.002338,0.094224,0.330322,-0.939154
1762618662.465054,-0.165609,0.054802,-0.040713,0.983825,0.000704,0.005699,-0.000584,0.001119,0.002407,-0.001736,0.094347,0.330324,-0.939140
1762618662.467562,-0.165598,0.054863,-0.040735,0.983823,0.001231,0.006350,0.002306,0.001097,0.002496,-0.001504,0.094460,0.330308,-0.939135
1762618662.502517,-0.165562,0.054946,-0.040758,0.983824,0.005060,0.003596,-0.001067,0.001620,0.001002,0.000040,0.094618,0.330246,-0.939140
1762618662.504064,-0.165498,0.054997,-0.040793,0.983830,0.009590,0.003324,-0.003658,0.001254,0.000619,0.000534,0.094713,0.330131,-0.939171
1762618662.532962,-0.165384,0.055021,-0.040846,0.983846,0.012311,0.001988,-0.005300,0.001326,0.001755,0.001992,0.094754,0.329920,-0.939241
1762618662.582894,-0.165281,0.055014,-0.040875,0.983862,0.011097,0.000055,-0.002671,0.001255,0.001493,0.001812,0.094742,0.329725,-0.939311
1762618662.583198,-0.165178,0.055008,-0.040904,0.983879,0.009882,-0.001878,-0.000041,0.001185,0.001232,0.001631,0.094730,0.329530,-0.939381
1762618662.585317,-0.165089,0.054979,-0.040915,0.983895,0.007478,-0.003777,0.002457,0.001360,0.001520,0.001138,0.094678,0.329360,-0.939446
1762618662.617280,-0.165051,0.054949,-0.040881,0.983904,0.001006,-0.001729,0.003281,0.001343,0.000296,-0.001176,0.094634,0.329282,-0.939478
1762618662.647109,-0.165097,0.054929,-0.040855,0.983899,-0.005691,-0.003173,0.001299,0.000231,-0.000708,-0.000442,0.094599,0.329366,-0.939452
1762618662.647386,-0.165201,0.054907,-0.040867,0.983882,-0.009853,-0.004070,-0.005810,-0.000116,-0.000654,0.000261,0.094541,0.329564,-0.939388
1762618662.744189,-0.165389,0.054892,-0.041019,0.983845,-0.013935,-0.001098,-0.009263,-0.000443,-0.001188,0.000946,0.094442,0.329937,-0.939267
1762618662.744546,-0.165576,0.054877,-0.041172,0.983808,-0.018017,0.001874,-0.012717,-0.000770,-0.001722,0.001631,0.094343,0.330309,-0.939146
1762618662.745285,-0.165764,0.054862,-0.041324,0.983771,-0.022099,0.004845,-0.016170,-0.001097,-0.002257,0.002317,0.094244,0.330682,-0.939025
1762618662.745661,-0.165952,0.054848,-0.041477,0.983733,-0.026181,0.007817,-0.019624,-0.001424,-0.002791,0.003002,0.094144,0.331055,-0.938903
1762618662.746100,-0.166166,0.054836,-0.041667,0.983690,-0.027523,0.004272,-0.023293,0.000352,-0.002242,0.001303,0.094036,0.331481,-0.938764
1762618662.774439,-0.166384,0.054834,-0.041897,0.983643,-0.027058,0.005402,-0.025508,0.001381,-0.000319,-0.002005,0.093933,0.331920,-0.938619
1762618662.805677,-0.166637,0.054898,-0.042080,0.983589,-0.031345,0.005450,-0.016366,0.000651,0.000755,0.000128,0.093969,0.332425,-0.938437
1762618662.806858,-0.166930,0.054905,-0.042193,0.983534,-0.027236,-0.007508,-0.009711,-0.000861,0.001559,0.005135,0.093915,0.332996,-0.938240
1762618662.837477,-0.167165,0.054757,-0.042226,0.983501,-0.022727,-0.016965,-0.003022,-0.000823,0.001201,0.002209,0.093590,0.333438,-0.938115
1762618662.838842,-0.167364,0.054645,-0.042133,0.983478,-0.017037,-0.012522,0.006768,0.001952,0.001542,-0.002464,0.093381,0.333801,-0.938007
1762618662.880027,-0.167543,0.054602,-0.042046,0.983453,-0.020384,0.003892,0.008766,0.004915,0.003802,-0.007539,0.093308,0.334133,-0.937896
1762618662.881390,-0.167806,0.054797,-0.041929,0.983402,-0.031747,0.025315,0.013412,0.005069,0.004466,-0.008180,0.093704,0.334636,-0.937677
1762618662.911814,-0.168129,0.055113,-0.041840,0.983333,-0.035449,0.026442,0.007446,0.002036,0.002009,-0.003387,0.094319,0.335266,-0.937390
1762618662.941240,-0.168445,0.055323,-0.041870,0.983266,-0.027489,0.010721,-0.010386,0.002428,0.000621,0.000389,0.094690,0.335885,-0.937131
1762618662.941984,-0.168681,0.055360,-0.042055,0.983216,-0.021761,0.002242,-0.023411,0.002030,0.002634,0.001991,0.094675,0.336355,-0.936964
1762618662.972258,-0.168882,0.055362,-0.042284,0.983171,-0.016301,-0.001010,-0.024866,0.001274,0.005432,0.002369,0.094579,0.336761,-0.936828
1762618662.977818,-0.169040,0.055318,-0.042489,0.983138,-0.011694,-0.005880,-0.016698,0.000010,0.006763,0.005035,0.094406,0.337079,-0.936731
1762618663.036181,-0.169123,0.055234,-0.042507,0.983127,-0.006102,-0.008482,-0.006458,-0.000174,0.005311,0.004070,0.094227,0.337235,-0.936693
1762618663.036501,-0.169207,0.055151,-0.042525,0.983117,-0.000511,-0.011084,0.003782,-0.000358,0.003860,0.003105,0.094048,0.337391,-0.936655
1762618663.036841,-0.169202,0.055049,-0.042491,0.983125,0.007234,-0.010158,0.000979,0.000118,0.003168,-0.000762,0.093860,0.337371,-0.936681
1762618663.067296,-0.169178,0.055038,-0.042481,0.983130,0.008295,-0.000791,0.003805,-0.002341,0.004738,0.000996,0.093845,0.337325,-0.936699
1762618663.096822,-0.169083,0.054982,-0.042464,0.983150,0.018729,-0.006495,-0.000460,-0.007100,0.005652,-0.002627,0.093752,0.337138,-0.936776
1762618663.097552,-0.168848,0.054748,-0.042545,0.983200,0.038841,-0.026264,-0.013997,-0.006446,0.014658,-0.008521,0.093290,0.336682,-0.936986
1762618663.140936,-0.168452,0.054394,-0.042751,0.983279,0.045956,-0.039835,-0.032062,-0.009615,0.036968,-0.024809,0.092567,0.335922,-0.937330
1762618663.141771,-0.168211,0.053982,-0.043125,0.983327,0.011200,-0.026466,-0.039539,-0.012859,0.073495,-0.045489,0.091655,0.335469,-0.937582
1762618663.179379,-0.168343,0.053705,-0.043362,0.983309,-0.024400,-0.014004,-0.016923,-0.016450,0.099888,-0.051481,0.091018,0.335723,-0.937553
1762618663.181690,-0.168666,0.053603,-0.043348,0.983260,-0.024083,-0.006317,0.011019,-0.017026,0.110740,-0.046230,0.090789,0.336332,-0.937357
1762618663.211758,-0.168826,0.053673,-0.043190,0.983235,0.009089,0.012016,0.017676,-0.018472,0.113958,-0.038160,0.090964,0.336627,-0.937234
1762618663.245707,-0.168609,0.053744,-0.043065,0.983274,0.048776,0.004178,0.011253,-0.024033,0.119134,-0.025797,0.091168,0.336207,-0.937365
1762618663.245907,-0.168098,0.053702,-0.042977,0.983368,0.070900,-0.011869,0.013760,-0.024403,0.128524,-0.015704,0.091168,0.335219,-0.937719
1762618663.273983,-0.167337,0.053567,-0.042878,0.983509,0.088298,-0.012986,0.014065,-0.018038,0.134365,-0.004926,0.091018,0.333749,-0.938258
1762618663.274874,-0.166397,0.053485,-0.042740,0.983679,0.102256,0.003145,0.023795,-0.009167,0.137488,0.002043,0.091000,0.331935,-0.938903
1762618663.305969,-0.165302,0.053650,-0.042469,0.983866,0.111512,0.026357,0.043549,-0.004883,0.124674,0.006231,0.091529,0.329828,-0.939594
1762618663.335643,-0.164211,0.054066,-0.042040,0.984045,0.121128,0.048450,0.064434,-0.004920,0.097702,0.008556,0.092600,0.327729,-0.940223
1762618663.336845,-0.163128,0.054538,-0.041569,0.984219,0.145810,0.026630,0.058661,-0.012894,0.072872,0.017246,0.093792,0.325641,-0.940830
1762618663.367402,-0.161981,0.054750,-0.041129,0.984415,0.159374,0.003017,0.059249,-0.016896,0.055245,0.026014,0.094469,0.323418,-0.941529
1762618663.399763,-0.160848,0.054661,-0.040598,0.984628,0.160309,-0.013458,0.072361,-0.014673,0.037913,0.030558,0.094581,0.321189,-0.942280
1762618663.400025,-0.159784,0.054440,-0.039812,0.984845,0.164710,-0.040765,0.099933,-0.011043,0.014630,0.038061,0.094507,0.319059,-0.943011
1762618663.429317,-0.158603,0.054119,-0.038823,0.985093,0.181065,-0.038286,0.109893,-0.006331,-0.013753,0.032776,0.094310,0.316679,-0.943833
1762618663.479217,-0.156945,0.054178,-0.037813,0.985395,0.205174,-0.006181,0.120240,-0.003531,-0.029678,0.035058,0.094905,0.313402,-0.944866
1762618663.479565,-0.155286,0.054237,-0.036803,0.985693,0.229283,0.025924,0.130587,-0.000724,-0.045599,0.037329,0.095493,0.310121,-0.945889
1762618663.479758,-0.153058,0.054515,-0.035824,0.986062,0.261523,0.035284,0.112407,0.002314,-0.053987,0.027750,0.096544,0.305755,-0.947203
1762618663.510260,-0.150424,0.054952,-0.035081,0.986470,0.273080,0.046887,0.084497,0.003713,-0.045111,0.020319,0.097862,0.300634,-0.948706
1762618663.542347,-0.147741,0.055580,-0.034552,0.986858,0.251133,0.074977,0.075856,0.008047,-0.036637,0.026693,0.099490,0.295440,-0.950167
1762618663.542938,-0.145239,0.056320,-0.033973,0.987208,0.233827,0.064889,0.086615,0.008154,-0.038853,0.034962,0.101332,0.290589,-0.951467
1762618663.577017,-0.142721,0.057018,-0.033391,0.987555,0.254906,0.055681,0.070842,0.009702,-0.048931,0.026990,0.103085,0.285698,-0.952759
1762618663.582839,-0.139810,0.057463,-0.033124,0.987954,0.302423,0.051024,0.022752,0.015750,-0.050072,0.004292,0.104280,0.280059,-0.954302
1762618663.612102,-0.136591,0.057948,-0.033307,0.988370,0.332185,0.051646,-0.006805,0.015384,-0.042269,0.009980,0.105450,0.273865,-0.955970
1762618663.643104,-0.133181,0.058369,-0.033775,0.988795,0.347835,0.060725,-0.026286,0.016302,-0.035657,0.017950,0.106434,0.267320,-0.957712
1762618663.643423,-0.129504,0.058778,-0.034307,0.989241,0.383730,0.040424,-0.025673,0.011253,-0.037223,0.027971,0.107405,0.260254,-0.959548
1762618663.674381,-0.125360,0.059051,-0.034754,0.989742,0.430730,0.039949,-0.005039,0.009603,-0.042167,0.018496,0.108177,0.252252,-0.961596
1762618663.693628,-0.120651,0.059287,-0.035011,0.990304,0.508051,0.017979,0.011230,0.004548,-0.047199,0.010181,0.108976,0.243114,-0.963857
1762618663.723127,-0.115326,0.059477,-0.035166,0.990922,0.552200,0.035359,0.032562,0.003429,-0.033985,0.000180,0.109762,0.232742,-0.966325
1762618663.723425,-0.109812,0.059748,-0.035046,0.991536,0.545256,0.028792,0.062611,-0.001827,-0.010705,0.004441,0.110787,0.221953,-0.968743
1762618663.781548,-0.105072,0.060103,-0.034089,0.992061,0.478157,0.013244,0.111884,-0.003867,-0.010788,0.012760,0.112089,0.212574,-0.970695
1762618663.781825,-0.100330,0.060458,-0.033131,0.992563,0.411058,-0.002304,0.161157,-0.005883,-0.010850,0.020991,0.113368,0.203174,-0.972557
1762618663.784264,-0.096293,0.060651,-0.031767,0.992995,0.374197,0.006209,0.169548,0.000105,-0.024112,0.013647,0.114334,0.195090,-0.974098
1762618663.813182,-0.092570,0.060805,-0.030373,0.993384,0.365239,0.019095,0.169126,0.008375,-0.029344,-0.003067,0.115182,0.187609,-0.975467
1762618663.815195,-0.089170,0.061169,-0.028948,0.993715,0.350062,0.045273,0.175629,0.006735,-0.031570,-0.005939,0.116407,0.180760,-0.976614
1762618663.844388,-0.085896,0.061650,-0.027416,0.994017,0.327299,0.046335,0.193598,-0.000162,-0.025610,-0.002828,0.117852,0.174145,-0.977642
1762618663.875419,-0.082700,0.062090,-0.025660,0.994307,0.301251,0.032848,0.198871,-0.001665,-0.023975,-0.001758,0.119230,0.167644,-0.978611
1762618663.877408,-0.079695,0.062490,-0.023813,0.994573,0.263063,0.021575,0.210772,0.002903,-0.024139,-0.002563,0.120506,0.161502,-0.979487
1762618663.911518,-0.077100,0.062864,-0.021864,0.994799,0.219311,0.022736,0.207337,0.006917,-0.029604,-0.007486,0.121703,0.156148,-0.980207
1762618663.945648,-0.074919,0.063180,-0.020057,0.994984,0.180555,0.023489,0.177061,0.008281,-0.034867,-0.008307,0.122722,0.151622,-0.980791
1762618663.953267,-0.073207,0.063438,-0.018572,0.995124,0.131091,0.020076,0.142732,0.011023,-0.037755,-0.007651,0.123538,0.148056,-0.981233
1762618663.972523,-0.072008,0.063624,-0.017392,0.995221,0.080886,0.012517,0.103789,0.014505,-0.042055,-0.008340,0.124136,0.145541,-0.981534
1762618663.976367,-0.071210,0.063809,-0.016590,0.995280,0.050392,0.003169,0.056745,0.014723,-0.049692,-0.011787,0.124654,0.143865,-0.981715
1762618664.005101,-0.070581,0.063943,-0.016227,0.995322,0.034441,0.022031,0.021836,0.018833,-0.050788,-0.012754,0.124998,0.142577,-0.981859
1762618664.035181,-0.070003,0.064160,-0.016207,0.995349,0.034962,0.015719,-0.008823,0.014010,-0.053199,-0.003064,0.125455,0.141435,-0.981966
1762618664.035898,-0.069360,0.064343,-0.016443,0.995379,0.042971,0.007140,-0.034145,0.011189,-0.050898,0.000940,0.125810,0.140194,-0.982098
1762618664.081693,-0.068586,0.064437,-0.016913,0.995418,0.048276,0.004653,-0.050095,0.012455,-0.046299,0.001765,0.125964,0.138724,-0.982288
1762618664.081756,-0.067818,0.064579,-0.017466,0.995452,0.044053,0.017156,-0.055376,0.010514,-0.042107,-0.000463,0.126202,0.137275,-0.982460
1762618664.113121,-0.067057,0.064758,-0.018086,0.995481,0.050502,-0.001279,-0.067509,0.001685,-0.039159,0.007422,0.126505,0.135851,-0.982620
1762618664.116992,-0.066239,0.064661,-0.018789,0.995529,0.050723,-0.009228,-0.066241,0.003398,-0.035079,0.003791,0.126254,0.134316,-0.982863
1762618664.146598,-0.065423,0.064568,-0.019420,0.995577,0.062743,-0.014519,-0.054949,0.001588,-0.036734,0.002022,0.126023,0.132776,-0.983102
1762618664.158922,-0.064453,0.064390,-0.019984,0.995641,0.083824,-0.023999,-0.048570,0.000328,-0.034894,-0.002700,0.125642,0.130917,-0.983400
1762618664.190015,-0.063311,0.064200,-0.020397,0.995718,0.101998,-0.018343,-0.031336,-0.001476,-0.034394,-0.008771,0.125268,0.128700,-0.983740
1762618664.249430,-0.062099,0.064142,-0.020470,0.995796,0.092560,-0.015536,-0.014696,-0.002339,-0.028976,-0.007793,0.125202,0.126302,-0.984059
1762618664.249771,-0.060887,0.064084,-0.020543,0.995873,0.083122,-0.012728,0.001943,-0.003202,-0.023558,-0.006821,0.125137,0.123904,-0.984372
1762618664.250114,-0.059674,0.064025,-0.020616,0.995949,0.073684,-0.009921,0.018583,-0.004066,-0.018138,-0.005855,0.125071,0.121505,-0.984680
1762618664.277970,-0.058844,0.063961,-0.020374,0.996008,0.034637,-0.001195,0.041428,-0.002152,-0.015749,-0.007802,0.125013,0.119825,-0.984893
1762618664.288792,-0.058454,0.063974,-0.019910,0.996039,0.001380,0.002402,0.048446,-0.001403,-0.019329,-0.009115,0.125114,0.118993,-0.984981
1762618664.312631,-0.058383,0.064033,-0.019412,0.996049,-0.023596,0.003386,0.045001,0.000785,-0.020996,-0.009148,0.125294,0.118792,-0.984982
1762618664.315785,-0.058574,0.064134,-0.018978,0.996040,-0.043330,0.014231,0.033475,0.005000,-0.022663,-0.010564,0.125537,0.119119,-0.984912
1762618664.380573,-0.058955,0.064366,-0.018866,0.996005,-0.049991,0.022068,0.007265,0.006881,-0.020585,-0.008081,0.125992,0.119868,-0.984763
1762618664.380986,-0.059337,0.064597,-0.018754,0.995969,-0.056653,0.029906,-0.018945,0.008763,-0.018506,-0.005599,0.126448,0.120618,-0.984613
1762618664.382669,-0.059803,0.064865,-0.018989,0.995919,-0.068392,0.032219,-0.038878,0.007246,-0.011971,-0.003493,0.126929,0.121580,-0.984432
1762618664.412223,-0.060414,0.065104,-0.019410,0.995859,-0.084430,0.015971,-0.055651,0.009708,-0.007433,-0.001084,0.127323,0.122855,-0.984223
1762618664.413158,-0.061147,0.065262,-0.019959,0.995793,-0.095220,0.004125,-0.063907,0.010589,-0.006267,0.002668,0.127534,0.124384,-0.984004
1762618664.446329,-0.061945,0.065268,-0.020563,0.995731,-0.095008,-0.007540,-0.074405,0.012421,-0.005417,-0.000168,0.127431,0.126045,-0.983806
1762618664.475435,-0.062725,0.065158,-0.021255,0.995675,-0.082811,-0.015832,-0.078210,0.011697,-0.002129,0.003307,0.127086,0.127677,-0.983640
1762618664.475486,-0.063418,0.064950,-0.021946,0.995629,-0.070364,-0.028594,-0.064032,0.009798,0.006246,0.002083,0.126548,0.129132,-0.983519
1762618664.497688,-0.064052,0.064742,-0.022397,0.995592,-0.062627,-0.026072,-0.038332,0.006874,0.007716,0.000910,0.126044,0.130439,-0.983412
1762618664.529020,-0.064547,0.064540,-0.022619,0.995568,-0.050182,-0.029934,-0.020377,0.004861,0.006919,0.000978,0.125588,0.131441,-0.983337
1762618664.558160,-0.064956,0.064303,-0.022681,0.995556,-0.040392,-0.028861,-0.004414,0.002588,0.006748,0.002269,0.125087,0.132251,-0.983292
1762618664.559409,-0.065341,0.064076,-0.022657,0.995546,-0.031534,-0.031735,0.001980,0.001187,0.004825,0.003613,0.124620,0.133003,-0.983250
1762618664.591964,-0.065685,0.063788,-0.022611,0.995543,-0.028372,-0.038126,-0.003139,0.000366,0.003933,0.001341,0.124038,0.133668,-0.983233
1762618664.592227,-0.066084,0.063526,-0.022643,0.995532,-0.039087,-0.021971,-0.010250,0.002046,0.006299,-0.005295,0.123492,0.134455,-0.983195
1762618664.622853,-0.066603,0.063441,-0.022738,0.995501,-0.051117,-0.010349,-0.015968,-0.004345,0.004340,0.000844,0.123283,0.135491,-0.983079
1762618664.690655,-0.067198,0.063328,-0.022977,0.995463,-0.050082,-0.008581,-0.021681,-0.004204,0.004518,-0.000704,0.122994,0.136697,-0.982948
1762618664.690871,-0.067793,0.063215,-0.023216,0.995424,-0.049047,-0.006813,-0.027395,-0.004062,0.004696,-0.002253,0.122704,0.137902,-0.982816
1762618664.691431,-0.068389,0.063102,-0.023454,0.995385,-0.048012,-0.005046,-0.033109,-0.003920,0.004875,-0.003804,0.122414,0.139106,-0.982682
1762618664.697357,-0.068903,0.063132,-0.023756,0.995340,-0.047220,0.014756,-0.027117,-0.003703,0.009745,-0.004936,0.122401,0.140164,-0.982533
1762618664.727562,-0.069432,0.063228,-0.024001,0.995292,-0.056464,0.022950,-0.018837,-0.003082,0.015154,-0.009525,0.122527,0.141245,-0.982363
1762618664.757806,-0.070080,0.063458,-0.024139,0.995228,-0.067443,0.022462,-0.016888,-0.006002,0.017001,-0.005429,0.122927,0.142556,-0.982124
1762618664.758097,-0.070794,0.063644,-0.024303,0.995162,-0.073610,0.021290,-0.016866,-0.004297,0.017738,0.000161,0.123231,0.143996,-0.981875
1762618664.830263,-0.071539,0.063743,-0.024485,0.995098,-0.063816,0.015077,-0.020007,-0.002698,0.014269,0.001962,0.123358,0.145499,-0.981638
1762618664.830588,-0.072285,0.063843,-0.024666,0.995033,-0.054022,0.008863,-0.023148,-0.001098,0.010801,0.003761,0.123485,0.147000,-0.981398
1762618664.830965,-0.073030,0.063942,-0.024847,0.994968,-0.044228,0.002650,-0.026289,0.000502,0.007334,0.005557,0.123611,0.148502,-0.981156
1762618664.837070,-0.073483,0.063941,-0.025096,0.994928,-0.019688,0.001434,-0.026853,-0.001347,0.006129,0.004616,0.123546,0.149430,-0.981023
1762618664.867274,-0.073703,0.063928,-0.025342,0.994906,-0.001849,-0.002817,-0.020744,-0.002523,0.008279,0.004152,0.123470,0.149896,-0.980962
1762618664.897784,-0.073762,0.063806,-0.025502,0.994906,0.004498,-0.008955,-0.003845,-0.001543,0.012801,-0.000208,0.123199,0.150027,-0.980976
1762618664.898027,-0.073801,0.063735,-0.025418,0.994910,-0.002004,-0.012205,0.016106,-0.003342,0.010698,0.004427,0.123070,0.150090,-0.980982
1762618664.926041,-0.073873,0.063574,-0.025179,0.994921,-0.008026,-0.023696,0.026085,-0.003932,0.005816,0.002543,0.122783,0.150198,-0.981002
1762618664.935953,-0.074010,0.063384,-0.024898,0.994930,-0.013136,-0.016335,0.023139,0.000808,0.001363,-0.004994,0.122440,0.150427,-0.981010
1762618664.980294,-0.074224,0.063260,-0.024681,0.994927,-0.016978,-0.007025,0.015245,0.001852,-0.003010,-0.003429,0.122214,0.150818,-0.980978
1762618664.982652,-0.074473,0.063248,-0.024573,0.994912,-0.013546,-0.001800,0.003186,0.000583,-0.004657,-0.000049,0.122193,0.151297,-0.980907
1762618664.996049,-0.074632,0.063104,-0.024656,0.994907,-0.007529,-0.017919,-0.017294,-0.001309,-0.002280,0.001436,0.121885,0.151617,-0.980896
1762618665.026389,-0.074769,0.062986,-0.024816,0.994900,-0.010520,-0.012394,-0.015691,0.000823,0.000773,0.000978,0.121619,0.151902,-0.980885
1762618665.056808,-0.074837,0.062856,-0.024953,0.994900,-0.005905,-0.012887,-0.012261,-0.000707,0.002718,0.001038,0.121337,0.152048,-0.980897
1762618665.057679,-0.074863,0.062716,-0.025010,0.994905,-0.004223,-0.012094,-0.003867,-0.001516,0.003880,0.000406,0.121048,0.152101,-0.980924
1762618665.087641,-0.074866,0.062580,-0.024989,0.994914,-0.003457,-0.007547,0.004384,0.000198,0.003517,-0.002659,0.120781,0.152098,-0.980958
1762618665.117711,-0.074871,0.062560,-0.024908,0.994917,0.000989,-0.000041,0.003344,0.000531,0.000636,-0.003767,0.120754,0.152097,-0.980961
1762618665.119757,-0.074803,0.062584,-0.024956,0.994920,0.012184,0.008433,-0.005433,0.002316,0.006188,-0.001894,0.120798,0.151969,-0.980976
1762618665.148530,-0.074696,0.062657,-0.024961,0.994923,0.015920,0.004245,0.011575,0.002963,0.015276,-0.001827,0.120949,0.151761,-0.980989
1762618665.159947,-0.074581,0.062818,-0.024744,0.994927,0.007456,0.021125,0.038115,0.006239,0.014557,-0.001739,0.121307,0.151514,-0.980983
1762618665.194477,-0.074456,0.062958,-0.024308,0.994938,0.015498,0.003370,0.048773,0.004222,0.006784,0.004244,0.121659,0.151219,-0.980985
1762618665.194733,-0.074232,0.062965,-0.023871,0.994965,0.027456,-0.006195,0.037649,0.004154,-0.000739,0.001533,0.121753,0.150723,-0.981050
1762618665.225418,-0.073997,0.062903,-0.023616,0.994992,0.030218,-0.012871,0.015742,0.005558,-0.003994,-0.000954,0.121681,0.150223,-0.981135
1762618665.281094,-0.073847,0.062813,-0.023685,0.995008,0.021762,-0.011366,-0.006250,0.004891,-0.005712,-0.001627,0.121501,0.149931,-0.981202
1762618665.281547,-0.073696,0.062723,-0.023754,0.995023,0.013305,-0.009860,-0.028243,0.004224,-0.007431,-0.002300,0.121321,0.149639,-0.981269
1762618665.281988,-0.073637,0.062691,-0.024064,0.995022,0.003838,-0.006973,-0.040865,0.002565,-0.006721,-0.001077,0.121214,0.149559,-0.981295
1762618665.311820,-0.073654,0.062571,-0.024511,0.995017,-0.005869,-0.011834,-0.047768,0.000014,-0.003536,-0.001306,0.120907,0.149642,-0.981320
1762618665.313202,-0.073770,0.062476,-0.024968,0.995003,-0.017284,-0.017806,-0.042666,-0.000163,-0.000684,0.000806,0.120644,0.149922,-0.981309
1762618665.345158,-0.073971,0.062332,-0.025312,0.994989,-0.027131,-0.016579,-0.031776,-0.000578,0.001193,0.001126,0.120294,0.150356,-0.981286
1762618665.361964,-0.074202,0.062156,-0.025568,0.994976,-0.028323,-0.021241,-0.024694,-0.000755,0.001035,0.000650,0.119893,0.150837,-0.981261
1762618665.391914,-0.074519,0.061911,-0.025751,0.994963,-0.030627,-0.026156,-0.018899,-0.001733,0.002477,-0.000780,0.119360,0.151476,-0.981228
1762618665.393186,-0.074820,0.061654,-0.025875,0.994953,-0.028942,-0.025558,-0.017464,-0.001719,0.001538,0.000138,0.118813,0.152076,-0.981201
1762618665.431448,-0.075086,0.061374,-0.025988,0.994947,-0.021873,-0.024193,-0.015084,0.000506,0.001193,-0.003240,0.118225,0.152603,-0.981191
1762618665.433440,-0.075296,0.061195,-0.026106,0.994939,-0.011822,-0.019798,-0.017967,-0.002096,0.000971,-0.001019,0.117838,0.153024,-0.981172
1762618665.470080,-0.075451,0.060977,-0.026258,0.994937,-0.013334,-0.014242,-0.018194,-0.002129,0.004271,-0.001791,0.117374,0.153339,-0.981178
1762618665.472177,-0.075625,0.060832,-0.026448,0.994927,-0.017679,-0.009453,-0.016794,0.000711,0.006321,-0.006075,0.117046,0.153701,-0.981161
1762618665.501740,-0.075856,0.060880,-0.026571,0.994904,-0.020598,0.005071,-0.007368,-0.003455,0.003012,-0.001256,0.117109,0.154174,-0.981079
1762618665.531391,-0.076028,0.060877,-0.026681,0.994888,-0.013318,0.001762,-0.014190,-0.003663,-0.000185,0.001031,0.117074,0.154527,-0.981028
1762618665.533389,-0.076177,0.060824,-0.026820,0.994876,-0.008640,-0.008218,-0.013405,-0.001516,0.000824,0.001726,0.116939,0.154836,-0.980995
1762618665.580376,-0.076340,0.060791,-0.026901,0.994863,-0.010806,-0.003218,-0.001593,-0.000379,-0.000403,-0.000227,0.116850,0.155166,-0.980953
1762618665.582971,-0.076462,0.060857,-0.026945,0.994849,-0.009348,0.023132,-0.000334,0.001955,-0.000151,-0.007116,0.116966,0.155415,-0.980900
1762618665.616552,-0.076617,0.061084,-0.026937,0.994823,-0.023091,0.028014,0.002309,-0.000740,0.002124,-0.005586,0.117408,0.155732,-0.980797
1762618665.617904,-0.076956,0.061400,-0.026894,0.994779,-0.043053,0.027603,0.002478,-0.002111,0.001645,-0.001965,0.118019,0.156412,-0.980616
1762618665.646308,-0.077403,0.061583,-0.026914,0.994732,-0.045981,0.013009,-0.010374,-0.001523,0.001870,-0.000612,0.118351,0.157305,-0.980433
1762618665.691825,-0.077990,0.061744,-0.027011,0.994674,-0.056686,0.016983,-0.011645,-0.000873,0.003665,-0.000472,0.118617,0.158484,-0.980211
1762618665.692127,-0.078577,0.061905,-0.027108,0.994615,-0.067391,0.020957,-0.012916,-0.000223,0.005459,-0.000334,0.118883,0.159663,-0.979987
1762618665.693437,-0.079258,0.062036,-0.027238,0.994549,-0.068370,0.017767,-0.016257,0.000601,0.003747,0.001627,0.119078,0.161032,-0.979739
1762618665.722397,-0.079909,0.062186,-0.027394,0.994483,-0.061358,0.020809,-0.021694,0.001707,0.000723,0.001105,0.119307,0.162344,-0.979495
1762618665.752928,-0.080441,0.062360,-0.027661,0.994422,-0.038598,0.012976,-0.033950,0.001823,0.000816,0.002703,0.119573,0.163435,-0.979281
1762618665.754100,-0.080775,0.062432,-0.028069,0.994379,-0.025296,0.010913,-0.041567,0.001950,0.005619,0.001601,0.119629,0.164146,-0.979155
1762618665.785979,-0.081064,0.062583,-0.028521,0.994333,-0.019405,0.019025,-0.047394,0.003884,0.004602,0.001797,0.119833,0.164780,-0.979024
1762618665.814701,-0.081260,0.062701,-0.029002,0.994296,-0.015950,0.007492,-0.047370,0.000067,0.005810,0.003450,0.119972,0.165229,-0.978931
1762618665.823416,-0.081381,0.062736,-0.029504,0.994269,-0.001851,0.005892,-0.054630,0.003514,0.004657,-0.002565,0.119950,0.165531,-0.978883
1762618665.883022,-0.081424,0.062882,-0.029995,0.994242,0.001181,0.007808,-0.052228,0.000891,0.004388,-0.000083,0.120154,0.165683,-0.978832
1762618665.883348,-0.081467,0.063027,-0.030486,0.994214,0.004213,0.009723,-0.049827,-0.001731,0.004119,0.002399,0.120358,0.165835,-0.978781
1762618665.883641,-0.081511,0.063173,-0.030977,0.994186,0.007245,0.011639,-0.047425,-0.004352,0.003850,0.004880,0.120562,0.165988,-0.978730
1762618665.913041,-0.081471,0.063151,-0.031438,0.994176,0.009353,-0.005733,-0.029455,-0.001344,0.011831,0.005997,0.120444,0.165963,-0.978749
1762618665.915238,-0.081467,0.063138,-0.031694,0.994169,0.011131,-0.002890,-0.013679,-0.001437,0.009631,0.002729,0.120376,0.165987,-0.978753
1762618665.946562,-0.081448,0.063069,-0.031717,0.994174,0.004096,-0.009846,0.006949,-0.001098,0.009168,-0.000089,0.120236,0.165948,-0.978777
1762618665.953569,-0.081438,0.062992,-0.031585,0.994184,0.010301,-0.008457,0.013548,0.000165,0.004998,-0.000141,0.120108,0.165908,-0.978800
1762618665.982963,-0.081416,0.062899,-0.031412,0.994197,0.006291,-0.004124,0.020713,0.000750,0.001759,-0.002330,0.119953,0.165839,-0.978830
1762618666.030309,-0.081379,0.062868,-0.031282,0.994206,0.006762,-0.003351,0.011764,0.001219,0.001350,-0.002440,0.119915,0.165749,-0.978850
1762618666.030586,-0.081343,0.062836,-0.031151,0.994216,0.007233,-0.002578,0.002815,0.001688,0.000940,-0.002550,0.119878,0.165659,-0.978870
1762618666.032309,-0.081325,0.062791,-0.031164,0.994219,0.001881,-0.003134,0.000678,0.001173,0.002314,-0.001535,0.119787,0.165624,-0.978887
1762618666.061221,-0.081364,0.062794,-0.031130,0.994217,-0.000831,-0.002579,0.002425,-0.001295,0.001447,0.000094,0.119797,0.165696,-0.978874
1762618666.091451,-0.081376,0.062784,-0.031091,0.994218,-0.001780,-0.003561,0.003846,-0.000186,0.000208,0.000013,0.119781,0.165715,-0.978872
1762618666.093468,-0.081350,0.062749,-0.031052,0.994223,0.003081,-0.000371,0.002252,-0.000124,-0.000562,-0.000584,0.119722,0.165658,-0.978889
1762618666.140245,-0.081290,0.062742,-0.031016,0.994230,0.006527,-0.003337,0.000212,-0.000115,-0.000671,-0.000669,0.119718,0.165534,-0.978911
1762618666.141252,-0.081261,0.062736,-0.031029,0.994232,0.003396,-0.000034,-0.003226,-0.000294,-0.000628,0.000494,0.119706,0.165478,-0.978922
1762618666.190403,-0.081278,0.062755,-0.031102,0.994227,0.001057,0.002947,-0.008485,-0.000069,-0.001039,-0.001634,0.119730,0.165522,-0.978911
1762618666.190755,-0.081296,0.062774,-0.031176,0.994223,-0.001282,0.005928,-0.013744,0.000156,-0.001450,-0.003761,0.119754,0.165566,-0.978901
1762618666.191023,-0.081340,0.062866,-0.031323,0.994209,-0.004209,0.008467,-0.016174,0.000581,0.000885,-0.001680,0.119908,0.165675,-0.978864
1762618666.220744,-0.081383,0.062889,-0.031529,0.994197,-0.003136,0.001989,-0.017148,0.000555,0.001853,0.000375,0.119917,0.165788,-0.978843
1762618666.250151,-0.081413,0.062887,-0.031726,0.994188,-0.004685,-0.002106,-0.013717,0.001115,0.003062,-0.000542,0.119878,0.165871,-0.978834
1762618666.251475,-0.081468,0.062901,-0.031818,0.994180,-0.005783,-0.001074,-0.004939,0.001004,0.003278,0.000530,0.119885,0.165990,-0.978813
1762618666.281495,-0.081506,0.062846,-0.031877,0.994179,-0.001886,-0.004839,-0.003009,0.000890,0.002702,0.000069,0.119765,0.166069,-0.978814
1762618666.310597,-0.081526,0.062792,-0.031864,0.994181,0.002080,-0.010304,-0.000757,0.000409,0.002145,0.001804,0.119657,0.166105,-0.978821
1762618666.312574,-0.081504,0.062662,-0.031842,0.994191,0.005687,-0.015862,0.003931,0.001053,0.001203,0.001555,0.119405,0.166051,-0.978861
1762618666.342013,-0.081455,0.062477,-0.031749,0.994210,0.008610,-0.017373,0.009853,-0.000059,0.000203,0.001386,0.119059,0.165933,-0.978923
1762618666.372969,-0.081388,0.062269,-0.031630,0.994232,0.006442,-0.025709,0.009345,0.000800,-0.000246,0.000300,0.118671,0.165777,-0.978997
1762618666.376501,-0.081387,0.062024,-0.031555,0.994250,-0.004639,-0.016631,0.005884,0.006224,0.001798,-0.005304,0.118198,0.165752,-0.979058
1762618666.405443,-0.081505,0.061894,-0.031483,0.994251,-0.014764,-0.022952,-0.000469,-0.000054,-0.000838,0.001816,0.117945,0.165970,-0.979052
1762618666.434436,-0.081707,0.061652,-0.031472,0.994250,-0.018753,-0.030476,-0.008746,0.000944,-0.002352,0.001082,0.117452,0.166355,-0.979046
1762618666.436539,-0.081935,0.061389,-0.031537,0.994245,-0.025479,-0.025335,-0.004701,0.001477,-0.000711,-0.003386,0.116903,0.166798,-0.979036
1762618666.481625,-0.082210,0.061279,-0.031560,0.994228,-0.018241,-0.002733,-0.007880,0.003339,-0.002428,-0.007251,0.116662,0.167339,-0.978973
1762618666.481732,-0.082385,0.061331,-0.031609,0.994209,-0.020367,0.011078,-0.001726,0.003996,0.001794,-0.007190,0.116744,0.167692,-0.978903
1762618666.513658,-0.082636,0.061568,-0.031574,0.994175,-0.039798,0.026765,0.007809,0.000903,0.005249,-0.004683,0.117200,0.168198,-0.978761
1762618666.513978,-0.083050,0.061810,-0.031501,0.994128,-0.044813,0.015008,0.000201,-0.001638,0.001761,0.001085,0.117662,0.169019,-0.978564
1762618666.533443,-0.083437,0.061869,-0.031527,0.994091,-0.037038,-0.007293,-0.013368,-0.000248,0.000857,0.001951,0.117746,0.169789,-0.978421
1762618666.563087,-0.083819,0.061804,-0.031666,0.994058,-0.037989,-0.003677,-0.015272,0.001985,0.003355,0.000335,0.117564,0.170556,-0.978309
1762618666.594028,-0.084177,0.061746,-0.031782,0.994028,-0.029398,-0.003592,-0.011580,-0.000189,0.000443,0.002499,0.117403,0.171273,-0.978203
1762618666.596034,-0.084431,0.061609,-0.031864,0.994012,-0.015651,-0.015816,-0.011169,-0.001226,0.000442,0.002564,0.117100,0.171777,-0.978151
1762618666.630743,-0.084536,0.061429,-0.031950,0.994012,-0.000895,-0.022775,-0.012586,-0.000596,-0.000462,0.002092,0.116721,0.171984,-0.978160
1762618666.632668,-0.084530,0.061262,-0.032097,0.994018,0.005306,-0.014421,-0.012419,0.000345,0.001152,0.000188,0.116366,0.171981,-0.978203
1762618666.662134,-0.084505,0.061135,-0.032233,0.994023,0.001542,-0.006910,-0.018513,0.002095,0.004069,-0.004334,0.116091,0.171942,-0.978243
1762618666.694051,-0.084530,0.061050,-0.032385,0.994021,-0.003418,-0.011378,-0.013100,-0.002752,0.003985,0.001560,0.115896,0.172004,-0.978255
1762618666.695260,-0.084619,0.060930,-0.032479,0.994018,-0.006036,-0.017703,-0.011397,-0.004004,0.004258,0.001920,0.115635,0.172184,-0.978254
1762618666.725231,-0.084700,0.060790,-0.032550,0.994018,-0.005565,-0.002405,-0.006795,0.002651,0.002699,-0.001435,0.115338,0.172343,-0.978261
1762618666.779196,-0.084866,0.060818,-0.032515,0.994003,-0.013938,-0.001766,0.001514,0.000125,0.002868,0.000668,0.115387,0.172669,-0.978198
1762618666.779477,-0.085032,0.060845,-0.032481,0.993988,-0.022311,-0.001127,0.009822,-0.002402,0.003037,0.002770,0.115435,0.172994,-0.978135
1762618666.781375,-0.085245,0.060692,-0.032424,0.993981,-0.017902,-0.016221,-0.003548,0.000420,0.001376,-0.001054,0.115126,0.173400,-0.978099
1762618666.810662,-0.085462,0.060567,-0.032458,0.993969,-0.020517,-0.004205,-0.006950,0.002167,0.001418,-0.004357,0.114856,0.173826,-0.978056
1762618666.811921,-0.085715,0.060536,-0.032537,0.993946,-0.016991,0.000844,-0.009437,0.000346,0.000036,-0.001573,0.114761,0.174332,-0.977977
1762618666.847843,-0.085889,0.060477,-0.032660,0.993931,-0.008856,-0.005500,-0.011978,-0.000014,0.002729,-0.000249,0.114611,0.174685,-0.977931
1762618666.850011,-0.085986,0.060454,-0.032736,0.993921,-0.008446,-0.001815,-0.003229,0.001509,0.003080,-0.003197,0.114544,0.174884,-0.977903
1762618666.879673,-0.086061,0.060442,-0.032737,0.993916,-0.004781,-0.001425,-0.000791,0.002610,0.000723,-0.002464,0.114514,0.175033,-0.977880
1762618666.915325,-0.086087,0.060516,-0.032757,0.993908,-0.000583,0.004111,-0.001616,0.001305,-0.001017,-0.003205,0.114655,0.175090,-0.977854
1762618666.916518,-0.086128,0.060517,-0.032811,0.993903,-0.003193,0.004048,-0.008668,0.001134,-0.000411,-0.001326,0.114644,0.175177,-0.977839
1762618666.974206,-0.086177,0.060580,-0.032946,0.993890,-0.003440,0.004814,-0.012347,0.000796,0.000425,-0.000681,0.114742,0.175292,-0.977807
1762618666.974517,-0.086225,0.060644,-0.033081,0.993878,-0.003688,0.005580,-0.016025,0.000457,0.001262,-0.000036,0.114840,0.175408,-0.977775
1762618666.976725,-0.086285,0.060634,-0.033216,0.993869,-0.004557,-0.006515,-0.011775,0.000546,0.001961,0.000647,0.114793,0.175539,-0.977757
1762618667.006122,-0.086331,0.060533,-0.033291,0.993868,-0.005503,-0.011011,-0.002196,0.000205,0.004186,0.001185,0.114575,0.175633,-0.977766
1762618667.009640,-0.086405,0.060447,-0.033250,0.993869,-0.004390,-0.010247,0.005075,0.000625,0.001383,-0.001240,0.114406,0.175770,-0.977761
1762618667.038039,-0.086465,0.060343,-0.033185,0.993872,-0.002191,-0.010923,0.003118,0.001210,0.000364,-0.000558,0.114209,0.175876,-0.977765
1762618667.080635,-0.086501,0.060256,-0.033188,0.993874,-0.002104,-0.010232,-0.001752,0.001065,0.000037,-0.000208,0.114032,0.175943,-0.977773
1762618667.080783,-0.086538,0.060168,-0.033190,0.993876,-0.002017,-0.009540,-0.006621,0.000921,-0.000291,0.000141,0.113854,0.176009,-0.977782
1762618667.109407,-0.086612,0.060126,-0.033242,0.993870,-0.002712,-0.005081,-0.005805,0.001134,0.001020,0.001467,0.113757,0.176159,-0.977767
1762618667.111388,-0.086674,0.060040,-0.033332,0.993867,-0.005860,-0.003863,-0.009001,0.001287,0.002431,-0.002571,0.113566,0.176287,-0.977766
1762618667.139185,-0.086732,0.060051,-0.033408,0.993859,-0.004911,0.000044,-0.007795,0.000668,0.001282,-0.001403,0.113570,0.176411,-0.977743
1762618667.167082,-0.086774,0.060048,-0.033466,0.993853,-0.000895,0.001664,-0.004507,-0.000551,0.000938,-0.000854,0.113550,0.176501,-0.977729
1762618667.180516,-0.086799,0.060097,-0.033545,0.993846,0.001713,-0.003351,-0.005127,-0.000683,0.001662,0.001149,0.113632,0.176561,-0.977709
1762618667.249322,-0.086823,0.060149,-0.033624,0.993838,0.000262,0.000463,-0.005090,-0.000469,0.000873,0.002399,0.113717,0.176621,-0.977688
1762618667.249583,-0.086847,0.060200,-0.033704,0.993830,-0.001189,0.004277,-0.005053,-0.000255,0.000084,0.003649,0.113802,0.176680,-0.977667
1762618667.249876,-0.086871,0.060251,-0.033783,0.993822,-0.002641,0.008092,-0.005016,-0.000042,-0.000704,0.004898,0.113887,0.176740,-0.977647
1762618667.256013,-0.086881,0.060255,-0.033900,0.993817,0.001776,-0.001858,-0.014802,-0.000318,-0.000623,0.000764,0.113874,0.176774,-0.977642
1762618667.286413,-0.086885,0.060243,-0.034115,0.993810,0.001337,0.000986,-0.017978,0.000947,0.001820,-0.001994,0.113812,0.176805,-0.977643
1762618667.288425,-0.086903,0.060277,-0.034294,0.993800,-0.002607,-0.003391,-0.015660,-0.000438,0.003043,0.002506,0.113847,0.176862,-0.977629
1762618667.316880,-0.086965,0.060163,-0.034444,0.993796,-0.002956,-0.017734,-0.017721,-0.001322,0.000474,0.002570,0.113589,0.176996,-0.977635
1762618667.381145,-0.086949,0.060070,-0.034554,0.993800,-0.000897,-0.009766,-0.014089,0.000314,0.001616,-0.000726,0.113387,0.176970,-0.977663
1762618667.381490,-0.086932,0.059978,-0.034664,0.993803,0.001162,-0.001798,-0.010458,0.001951,0.002758,-0.004023,0.113185,0.176944,-0.977691
1762618667.381776,-0.086915,0.059885,-0.034774,0.993806,0.003221,0.006169,-0.006827,0.003587,0.003900,-0.007320,0.112983,0.176918,-0.977719
1762618667.409474,-0.086953,0.059983,-0.034815,0.993795,-0.017325,0.011604,0.002324,0.000610,0.007805,-0.006595,0.113167,0.177003,-0.977683
1762618667.411463,-0.087179,0.060039,-0.034744,0.993775,-0.025289,-0.003218,0.007469,-0.000308,0.004473,-0.001670,0.113273,0.177444,-0.977590
1762618667.471236,-0.087472,0.060023,-0.034667,0.993752,-0.032950,0.000803,-0.000902,0.000970,0.001863,-0.002043,0.113231,0.178012,-0.977492
1762618667.472895,-0.087766,0.059992,-0.034619,0.993730,-0.023952,-0.005122,0.002177,0.001076,0.000000,-0.000180,0.113155,0.178585,-0.977396
1762618667.501839,-0.087957,0.059876,-0.034559,0.993722,-0.010814,-0.011701,0.007329,0.001826,-0.000063,-0.001644,0.112921,0.178948,-0.977357
1762618667.532548,-0.088025,0.059856,-0.034462,0.993721,0.002781,-0.012941,0.009473,-0.002048,-0.000149,0.004007,0.112893,0.179070,-0.977338
1762618667.534639,-0.087968,0.059733,-0.034356,0.993737,0.008381,-0.010239,0.011602,-0.001413,0.002989,0.001073,0.112673,0.178938,-0.977387
1762618667.563067,-0.087915,0.059598,-0.034173,0.993756,0.000255,-0.016265,0.019107,-0.001145,0.004932,0.000645,0.112443,0.178805,-0.977438
1762618667.566545,-0.087926,0.059442,-0.033957,0.993772,-0.005761,-0.020797,0.019080,-0.001566,0.002040,0.002303,0.112173,0.178794,-0.977471
1762618667.599011,-0.088030,0.059217,-0.033759,0.993783,-0.010821,-0.029697,0.012014,-0.001283,-0.001392,-0.000584,0.111754,0.178964,-0.977488
1762618667.631395,-0.088156,0.058973,-0.033641,0.993790,-0.010720,-0.019508,0.003231,0.000753,-0.002249,-0.005305,0.111283,0.179185,-0.977501
1762618667.631710,-0.088285,0.058817,-0.033598,0.993789,-0.008531,-0.011492,-0.001644,0.000584,-0.001179,-0.003999,0.110972,0.179427,-0.977492
1762618667.694203,-0.088359,0.058749,-0.033628,0.993786,-0.005873,-0.011959,-0.004205,-0.000691,0.000558,-0.001943,0.110826,0.179572,-0.977482
1762618667.694618,-0.088433,0.058681,-0.033657,0.993782,-0.003216,-0.012425,-0.006765,-0.001966,0.002294,0.000114,0.110680,0.179717,-0.977472
1762618667.695137,-0.088459,0.058593,-0.033691,0.993784,-0.001813,-0.007510,-0.004714,-0.001704,0.002856,-0.001566,0.110496,0.179767,-0.977484
1762618667.725286,-0.088472,0.058549,-0.033707,0.993785,-0.003335,-0.000650,-0.000705,-0.001244,0.001908,-0.000501,0.110406,0.179792,-0.977489
1762618667.727264,-0.088491,0.058530,-0.033704,0.993784,-0.000703,-0.000630,-0.000187,-0.002066,0.001051,-0.000831,0.110368,0.179827,-0.977487
1762618667.755619,-0.088496,0.058528,-0.033724,0.993784,0.001635,0.003495,-0.004261,-0.001079,-0.000575,-0.002148,0.110359,0.179839,-0.977486
1762618667.769927,-0.088477,0.058575,-0.033807,0.993780,0.001787,0.007341,-0.009362,0.000260,-0.000541,-0.003061,0.110439,0.179814,-0.977482
1762618667.805367,-0.088493,0.058636,-0.033958,0.993769,-0.001337,0.011039,-0.014588,0.001012,0.001677,-0.002887,0.110530,0.179866,-0.977462
1762618667.806831,-0.088584,0.058724,-0.034110,0.993751,-0.012114,0.012945,-0.012835,0.001468,0.002357,-0.000977,0.110671,0.180067,-0.977409
1762618667.838932,-0.088724,0.058830,-0.034252,0.993727,-0.014540,0.008450,-0.014143,0.000832,0.001855,0.000225,0.110843,0.180364,-0.977334
1762618667.868307,-0.088867,0.058930,-0.034390,0.993704,-0.015586,0.008452,-0.011277,0.000463,0.001256,0.000460,0.111007,0.180667,-0.977260
1762618667.872112,-0.088995,0.059010,-0.034505,0.993684,-0.010177,0.004977,-0.007360,0.000185,0.001743,0.002679,0.111132,0.180937,-0.977196
1762618667.902381,-0.089103,0.059052,-0.034569,0.993669,-0.006778,0.000030,-0.003734,0.000158,0.001945,0.003056,0.111196,0.181161,-0.977147
1762618667.931917,-0.089185,0.059057,-0.034587,0.993661,-0.004442,0.000400,-0.000563,0.000607,0.001140,0.001912,0.111196,0.181325,-0.977116
1762618667.932241,-0.089242,0.059055,-0.034564,0.993657,-0.003760,-0.000774,0.000973,0.000766,0.000394,0.001005,0.111193,0.181434,-0.977097
1762618667.982411,-0.089299,0.059050,-0.034575,0.993652,-0.003843,0.000446,-0.002002,0.000907,0.000872,-0.000499,0.111175,0.181548,-0.977078
1762618667.982705,-0.089357,0.059044,-0.034585,0.993646,-0.003926,0.001665,-0.004977,0.001048,0.001350,-0.002004,0.111157,0.181662,-0.977058
1762618667.988399,-0.089413,0.059087,-0.034651,0.993636,-0.003296,0.003542,-0.007825,0.001255,0.000778,-0.001944,0.111226,0.181784,-0.977028
1762618668.027785,-0.089449,0.059141,-0.034746,0.993627,-0.001254,0.006134,-0.009743,0.000771,0.000697,-0.001289,0.111313,0.181868,-0.977002
1762618668.028973,-0.089462,0.059197,-0.034864,0.993618,0.001513,0.006032,-0.011052,0.000122,0.001174,-0.000699,0.111401,0.181910,-0.976984
1762618668.059143,-0.089434,0.059247,-0.034955,0.993614,0.004253,0.003233,-0.006232,0.000236,0.001639,0.000730,0.111485,0.181869,-0.976983
1762618668.089089,-0.089367,0.059242,-0.035011,0.993619,0.006683,-0.000760,-0.002885,-0.000553,0.002145,0.000544,0.111470,0.181742,-0.977008
1762618668.091100,-0.089279,0.059226,-0.035020,0.993627,0.012401,-0.004197,0.000954,-0.000741,0.001185,0.000179,0.111444,0.181569,-0.977043
1762618668.119407,-0.089132,0.059169,-0.034997,0.993645,0.016713,-0.007130,0.003830,-0.000414,0.000206,-0.000271,0.111347,0.181273,-0.977109
1762618668.150329,-0.088977,0.059105,-0.034959,0.993664,0.017537,-0.006594,0.003455,0.000162,-0.000782,-0.000762,0.111239,0.180960,-0.977179
1762618668.151576,-0.088814,0.059044,-0.034935,0.993683,0.018370,-0.006481,0.000419,0.000856,-0.001775,-0.001272,0.111137,0.180632,-0.977252
1762618668.194562,-0.088674,0.059000,-0.034978,0.993696,0.013289,-0.002302,-0.005744,0.002066,-0.001396,-0.001790,0.111053,0.180358,-0.977312
1762618668.194882,-0.088603,0.059010,-0.035073,0.993699,0.005685,0.003711,-0.008940,0.000641,-0.001315,-0.000135,0.111061,0.180229,-0.977335
1762618668.223187,-0.088583,0.059026,-0.035190,0.993695,0.000815,-0.002957,-0.015327,-0.000797,-0.001407,0.001645,0.111073,0.180203,-0.977338
1762618668.225253,-0.088594,0.058969,-0.035335,0.993693,-0.005652,-0.002445,-0.012551,0.000184,-0.000084,-0.001374,0.110933,0.180237,-0.977348
1762618668.280558,-0.088671,0.059026,-0.035400,0.993680,-0.008904,0.006675,-0.007976,0.002120,0.000288,-0.003509,0.111028,0.180401,-0.977307
1762618668.280855,-0.088749,0.059083,-0.035464,0.993668,-0.012156,0.015796,-0.003402,0.004057,0.000659,-0.005645,0.111123,0.180564,-0.977266
1762618668.287195,-0.088892,0.059262,-0.035483,0.993643,-0.020784,0.023240,0.001213,0.002908,0.001134,-0.003658,0.111462,0.180860,-0.977172
1762618668.317219,-0.089148,0.059518,-0.035477,0.993605,-0.032236,0.025367,-0.001375,0.001489,0.001263,-0.000999,0.111950,0.181380,-0.977020
1762618668.347412,-0.089475,0.059714,-0.035548,0.993562,-0.033849,0.013543,-0.011014,0.000044,0.000426,-0.000191,0.112297,0.182044,-0.976857
1762618668.347694,-0.089825,0.059823,-0.035676,0.993519,-0.035801,0.008375,-0.014267,-0.000022,0.003305,-0.000251,0.112462,0.182753,-0.976705
1762618668.369037,-0.090162,0.059894,-0.035799,0.993480,-0.030968,0.006342,-0.009728,-0.000418,0.005553,0.000364,0.112551,0.183437,-0.976567
1762618668.399144,-0.090433,0.059931,-0.035841,0.993451,-0.021437,-0.000914,-0.003935,-0.001384,0.005706,0.000205,0.112595,0.183978,-0.976460
1762618668.432681,-0.090592,0.059893,-0.035825,0.993440,-0.011837,-0.002929,0.003971,-0.000658,0.004995,0.001469,0.112509,0.184286,-0.976412
1762618668.434715,-0.090644,0.059854,-0.035733,0.993441,-0.000394,-0.005417,0.009560,0.000414,0.002866,0.000769,0.112444,0.184376,-0.976403
1762618668.471987,-0.090619,0.059823,-0.035598,0.993450,0.009750,-0.001958,0.012676,0.001861,0.002336,-0.000931,0.112410,0.184310,-0.976419
1762618668.472817,-0.090505,0.059838,-0.035479,0.993463,0.015742,0.001576,0.010485,0.001498,0.000095,0.000462,0.112472,0.184074,-0.976456
1762618668.503787,-0.090373,0.059873,-0.035397,0.993476,0.015737,0.000257,0.006935,0.000115,-0.001323,0.000943,0.112567,0.183805,-0.976496
1762618668.505004,-0.090208,0.059841,-0.035395,0.993493,0.019246,0.003168,-0.001858,0.003866,-0.003052,-0.003734,0.112517,0.183478,-0.976563
1762618668.534738,-0.090033,0.059921,-0.035478,0.993501,0.016961,0.011304,-0.009133,0.002732,-0.003682,-0.001846,0.112675,0.183148,-0.976607
1762618668.588756,-0.089871,0.060043,-0.035658,0.993502,0.015744,0.005778,-0.011009,0.000183,-0.002629,0.001262,0.112897,0.182857,-0.976636
1762618668.589067,-0.089710,0.060165,-0.035838,0.993503,0.014528,0.000252,-0.012886,-0.002367,-0.001576,0.004369,0.113119,0.182566,-0.976665
1762618668.589292,-0.089580,0.060201,-0.036019,0.993506,0.010431,-0.001909,-0.012051,-0.002037,0.001553,0.002130,0.113167,0.182333,-0.976703
1762618668.607247,-0.089510,0.060247,-0.036115,0.993506,0.001790,0.003272,-0.006211,-0.001575,0.001715,0.000076,0.113246,0.182209,-0.976717
1762618668.635785,-0.089522,0.060255,-0.036135,0.993504,-0.008200,-0.000217,0.000389,-0.000519,0.002296,-0.001522,0.113257,0.182236,-0.976710
1762618668.666442,-0.089607,0.060262,-0.036108,0.993496,-0.014345,0.003429,0.002923,0.000628,0.001951,-0.004019,0.113269,0.182400,-0.976678
1762618668.668671,-0.089776,0.060305,-0.036068,0.993480,-0.018695,0.005617,0.000791,0.002197,0.001051,-0.006106,0.113348,0.182732,-0.976607
1762618668.699824,-0.089980,0.060412,-0.036067,0.993455,-0.019575,0.010996,-0.004790,0.002627,0.000338,-0.005953,0.113543,0.183140,-0.976508
1762618668.705927,-0.090183,0.060537,-0.036148,0.993426,-0.017930,0.015152,-0.009396,0.003032,-0.000454,-0.004686,0.113758,0.183556,-0.976405
1762618668.739199,-0.090335,0.060705,-0.036283,0.993397,-0.011393,0.015917,-0.014364,0.002025,-0.001215,-0.001225,0.114054,0.183883,-0.976309
1762618668.746182,-0.090412,0.060897,-0.036456,0.993372,-0.002597,0.016708,-0.016523,0.001628,-0.001187,0.000727,0.114395,0.184065,-0.976234
1762618668.776394,-0.090392,0.061052,-0.036627,0.993358,0.003700,0.014712,-0.015510,0.001062,-0.001045,0.000787,0.114672,0.184056,-0.976204
1762618668.806334,-0.090312,0.061170,-0.036775,0.993353,0.007920,0.010163,-0.010072,0.000616,0.001070,0.002594,0.114885,0.183922,-0.976204
1762618668.808437,-0.090225,0.061260,-0.036858,0.993352,0.006898,0.007480,-0.004960,0.001405,0.000904,0.002092,0.115054,0.183766,-0.976213
1762618668.836905,-0.090141,0.061314,-0.036920,0.993354,0.005706,0.003318,-0.004141,0.000822,0.001542,0.002068,0.115157,0.183611,-0.976230
1762618668.880278,-0.090175,0.061302,-0.036926,0.993351,-0.001759,-0.001206,-0.003341,0.000571,0.001239,0.001576,0.115130,0.183678,-0.976221
1762618668.880372,-0.090209,0.061290,-0.036933,0.993349,-0.009225,-0.005729,-0.002541,0.000320,0.000937,0.001085,0.115102,0.183745,-0.976212
1762618668.886589,-0.090338,0.061240,-0.036950,0.993340,-0.017394,-0.006165,-0.004537,0.001328,0.000427,0.000285,0.114988,0.183998,-0.976177
1762618668.920405,-0.090546,0.061173,-0.036990,0.993323,-0.022101,-0.007618,-0.008615,0.000596,0.000192,0.000128,0.114830,0.184409,-0.976118
1762618668.949499,-0.090805,0.061085,-0.037062,0.993302,-0.022957,-0.007088,-0.008769,-0.000175,0.000635,0.000348,0.114621,0.184921,-0.976046
1762618668.951704,-0.091030,0.061008,-0.037130,0.993284,-0.018689,-0.005990,-0.007394,-0.000732,0.001308,-0.000769,0.114436,0.185369,-0.975983
1762618668.981384,-0.091214,0.060944,-0.037187,0.993269,-0.013087,-0.007536,-0.005336,-0.001487,0.001778,-0.001355,0.114284,0.185733,-0.975932
1762618668.983802,-0.091339,0.060852,-0.037219,0.993262,-0.010813,-0.008153,-0.002904,-0.002090,0.002884,-0.001703,0.114086,0.185977,-0.975908
1762618669.014185,-0.091454,0.060785,-0.037229,0.993255,-0.008657,-0.008002,-0.000888,-0.002422,0.002995,-0.002237,0.113941,0.186201,-0.975883
1762618669.032213,-0.091543,0.060715,-0.037230,0.993251,-0.005879,-0.002877,-0.000741,-0.000484,0.001945,-0.003266,0.113794,0.186372,-0.975867
1762618669.061762,-0.091587,0.060701,-0.037263,0.993246,0.000396,0.005019,-0.005630,-0.000405,-0.000287,-0.002588,0.113757,0.186461,-0.975854
1762618669.062086,-0.091552,0.060723,-0.037348,0.993245,0.011504,0.007378,-0.011144,-0.001049,-0.000649,-0.000474,0.113788,0.186404,-0.975862
1762618669.091696,-0.091411,0.060752,-0.037537,0.993249,0.019786,0.009746,-0.017043,0.000194,0.000715,-0.002110,0.113822,0.186149,-0.975906
1762618669.120660,-0.091198,0.060844,-0.037732,0.993256,0.024794,0.010339,-0.014735,0.000277,0.001470,0.000213,0.113985,0.185756,-0.975962
1762618669.122667,-0.090935,0.060901,-0.037884,0.993271,0.028503,0.006026,-0.010909,-0.000975,0.001009,0.003821,0.114093,0.185260,-0.976044
1762618669.180735,-0.090651,0.060765,-0.037926,0.993303,0.025331,-0.004789,0.000563,-0.000078,0.002034,0.001960,0.113840,0.184698,-0.976180
1762618669.180923,-0.090368,0.060629,-0.037968,0.993336,0.022159,-0.015604,0.012036,0.000819,0.003060,0.000098,0.113587,0.184136,-0.976315
1762618669.195916,-0.090170,0.060517,-0.037834,0.993366,0.016068,-0.007344,0.021996,0.003161,0.002456,-0.003906,0.113409,0.183722,-0.976414
1762618669.226469,-0.090056,0.060495,-0.037589,0.993387,0.004774,0.003249,0.028630,0.004670,0.002852,-0.007196,0.113419,0.183469,-0.976461
1762618669.226788,-0.090119,0.060628,-0.037291,0.993384,-0.010953,0.015593,0.027131,0.002415,-0.000519,-0.005360,0.113733,0.183566,-0.976406
1762618669.254757,-0.090284,0.060779,-0.037100,0.993367,-0.019221,0.011618,0.009363,0.002161,-0.002649,-0.003228,0.114053,0.183881,-0.976309
1762618669.285116,-0.090511,0.060933,-0.037067,0.993338,-0.023044,0.009142,-0.005501,0.002662,-0.002136,-0.003067,0.114344,0.184334,-0.976190
1762618669.287147,-0.090770,0.061090,-0.037170,0.993301,-0.025599,0.014954,-0.014039,0.001640,-0.000263,-0.002873,0.114614,0.184866,-0.976058
1762618669.330107,-0.090974,0.061264,-0.037325,0.993266,-0.018893,0.014867,-0.013249,0.000840,0.000667,-0.000471,0.114913,0.185295,-0.975941
1762618669.331381,-0.091083,0.061396,-0.037416,0.993244,-0.010401,0.011303,-0.003934,0.000492,0.001071,0.000571,0.115146,0.185530,-0.975869
1762618669.347088,-0.091086,0.061534,-0.037416,0.993236,0.002476,0.010822,0.003845,0.000732,0.000289,0.000335,0.115419,0.185545,-0.975834
1762618669.377497,-0.090974,0.061633,-0.037379,0.993241,0.013595,0.007937,0.004213,0.002268,-0.001355,-0.000278,0.115632,0.185326,-0.975850
1762618669.406215,-0.090826,0.061744,-0.037372,0.993248,0.015567,0.010130,-0.000220,0.003278,-0.001768,0.001489,0.115866,0.185041,-0.975877
1762618669.407563,-0.090688,0.061799,-0.037418,0.993255,0.011638,0.005197,-0.006562,0.001376,-0.001996,0.001894,0.115978,0.184778,-0.975913
1762618669.439746,-0.090567,0.061766,-0.037541,0.993264,0.010998,-0.003923,-0.015174,0.003039,-0.001670,-0.001171,0.115899,0.184552,-0.975965
1762618669.443765,-0.090471,0.061732,-0.037686,0.993269,0.006469,-0.002261,-0.010993,0.003883,-0.000741,-0.001704,0.115814,0.184376,-0.976008
1762618669.482527,-0.090446,0.061798,-0.037762,0.993265,-0.005389,0.008426,-0.001601,0.002213,0.000751,-0.001898,0.115933,0.184340,-0.976001
1762618669.484647,-0.090508,0.061861,-0.037768,0.993255,-0.010054,-0.002178,-0.001585,-0.000290,-0.001780,0.002319,0.116051,0.184468,-0.975963
1762618669.530048,-0.090641,0.061795,-0.037773,0.993247,-0.015523,-0.009726,-0.001158,0.000807,-0.001069,0.001949,0.115908,0.184726,-0.975931
1762618669.531475,-0.090830,0.061723,-0.037777,0.993234,-0.021187,-0.009311,-0.002474,0.002383,-0.001553,0.000792,0.115748,0.185095,-0.975880
1762618669.561251,-0.091068,0.061646,-0.037813,0.993215,-0.021024,-0.011663,-0.008965,0.000943,-0.001055,-0.000058,0.115568,0.185562,-0.975813
1762618669.563386,-0.091281,0.061521,-0.037898,0.993200,-0.019284,-0.012374,-0.013898,0.000267,-0.001242,-0.000812,0.115287,0.185984,-0.975766
1762618669.597872,-0.091470,0.061373,-0.038016,0.993187,-0.017096,-0.010638,-0.013439,0.000607,0.000155,-0.001918,0.114956,0.186359,-0.975733
1762618669.604241,-0.091628,0.061253,-0.038117,0.993176,-0.015354,-0.010179,-0.011486,0.001191,0.001863,-0.002778,0.114685,0.186674,-0.975705
1762618669.633338,-0.091790,0.061183,-0.038199,0.993163,-0.016899,-0.005007,-0.008827,0.000720,0.002400,-0.002837,0.114517,0.186999,-0.975663
1762618669.663933,-0.091953,0.061151,-0.038239,0.993148,-0.014362,-0.003895,-0.007166,0.000677,0.001728,-0.001980,0.114431,0.187322,-0.975611
1762618669.666076,-0.092112,0.061142,-0.038285,0.993132,-0.010794,-0.003415,-0.006898,-0.000592,0.001439,-0.001406,0.114391,0.187640,-0.975554
1762618669.696624,-0.092199,0.061101,-0.038337,0.993125,-0.004218,-0.004913,-0.004292,-0.000780,0.000779,-0.000678,0.114292,0.187815,-0.975532
1762618669.701640,-0.092204,0.061041,-0.038381,0.993126,0.005687,-0.006227,-0.003701,-0.000858,0.000503,-0.000373,0.114165,0.187826,-0.975545
1762618669.730886,-0.092122,0.060970,-0.038415,0.993137,0.008775,-0.004730,-0.000449,-0.001103,0.001733,0.000063,0.114025,0.187663,-0.975592
1762618669.780625,-0.092050,0.060901,-0.038381,0.993149,0.006774,-0.004476,0.003081,-0.000457,0.001552,-0.000463,0.113901,0.187514,-0.975636
1762618669.780946,-0.091979,0.060831,-0.038347,0.993161,0.004773,-0.004223,0.006611,0.000189,0.001370,-0.000989,0.113777,0.187364,-0.975679
1762618669.782117,-0.091944,0.060784,-0.038297,0.993169,0.000838,-0.003932,0.005130,0.000201,0.000527,-0.001209,0.113695,0.187288,-0.975703
1762618669.810744,-0.091982,0.060769,-0.038286,0.993167,-0.003816,0.000620,0.002189,0.001157,-0.000141,-0.000316,0.113664,0.187361,-0.975693
1762618669.841361,-0.092060,0.060777,-0.038301,0.993159,-0.005515,0.000721,-0.003840,0.001731,-0.000902,-0.001952,0.113671,0.187517,-0.975662
1762618669.843476,-0.092151,0.060787,-0.038386,0.993146,-0.008124,0.001402,-0.008299,0.000712,-0.000371,-0.000803,0.113666,0.187706,-0.975626
1762618669.871862,-0.092261,0.060800,-0.038487,0.993131,-0.010277,0.002042,-0.010319,0.000550,0.000620,-0.000328,0.113663,0.187935,-0.975583
1762618669.902791,-0.092370,0.060803,-0.038583,0.993117,-0.012172,0.000919,-0.007930,0.000865,0.001761,-0.000937,0.113642,0.188160,-0.975542
1762618669.903901,-0.092511,0.060802,-0.038628,0.993103,-0.013309,0.001434,-0.002918,0.000803,0.001862,-0.000785,0.113618,0.188443,-0.975490
1762618669.932365,-0.092621,0.060823,-0.038621,0.993091,-0.012557,0.002099,0.000126,0.001794,0.001133,-0.000942,0.113651,0.188660,-0.975444
1762618669.962587,-0.092742,0.060850,-0.038626,0.993078,-0.007165,0.000680,-0.002745,0.003183,-0.001222,0.000077,0.113693,0.188902,-0.975392
1762618669.962862,-0.092812,0.060866,-0.038686,0.993068,-0.000059,0.001066,-0.009027,0.002946,-0.002778,0.000399,0.113707,0.189046,-0.975363
1762618669.998472,-0.092819,0.060850,-0.038840,0.993063,0.002353,0.000523,-0.017445,0.003050,-0.000011,-0.001273,0.113645,0.189076,-0.975364
1762618670.002506,-0.092832,0.060863,-0.039009,0.993054,0.000089,-0.001229,-0.012113,0.000835,0.001860,0.001832,0.113639,0.189122,-0.975356
1762618670.030716,-0.092825,0.060804,-0.039099,0.993055,0.001885,-0.012400,-0.009850,0.000030,0.001283,0.003587,0.113505,0.189115,-0.975373
1762618670.080625,-0.092764,0.060609,-0.039081,0.993073,0.005164,-0.014000,-0.000525,0.000332,0.000701,0.000202,0.113127,0.188981,-0.975443
1762618670.080902,-0.092704,0.060413,-0.039064,0.993091,0.008443,-0.015600,0.008800,0.000634,0.000119,-0.003183,0.112750,0.188847,-0.975512
1762618670.082281,-0.092635,0.060289,-0.038939,0.993110,0.006284,-0.005491,0.017349,0.001943,0.000364,-0.006901,0.112532,0.188690,-0.975568
1762618670.111851,-0.092610,0.060283,-0.038760,0.993120,-0.001791,0.006216,0.019290,0.001667,0.000728,-0.006850,0.112558,0.188618,-0.975579
1762618670.140932,-0.092708,0.060378,-0.038603,0.993111,-0.014275,0.007876,0.009547,-0.000022,-0.000355,-0.003646,0.112767,0.188799,-0.975520
1762618670.142618,-0.092874,0.060447,-0.038581,0.993092,-0.020840,0.001193,-0.006853,-0.000466,-0.001304,-0.001042,0.112893,0.189129,-0.975441
1762618670.171901,-0.093115,0.060446,-0.038716,0.993064,-0.028213,0.000125,-0.019261,0.001341,0.001170,-0.002372,0.112843,0.189619,-0.975352
1762618670.203405,-0.093420,0.060443,-0.038925,0.993028,-0.028634,-0.004653,-0.025282,0.000611,0.001753,0.001120,0.112770,0.190243,-0.975239
1762618670.238979,-0.093687,0.060310,-0.039170,0.993001,-0.025372,-0.010259,-0.022868,0.000250,0.002506,0.001927,0.112436,0.190787,-0.975171
1762618670.239297,-0.093954,0.060177,-0.039415,0.992974,-0.022110,-0.015864,-0.020454,-0.000111,0.003260,0.002733,0.112102,0.191331,-0.975103
1762618670.255894,-0.094132,0.060034,-0.039588,0.992959,-0.011510,-0.016778,-0.012196,-0.000808,0.003743,0.002956,0.111770,0.191692,-0.975070
1762618670.286435,-0.094246,0.059872,-0.039661,0.992955,-0.008195,-0.009782,-0.004342,0.000571,0.004714,-0.001415,0.111424,0.191912,-0.975066
1762618670.286716,-0.094325,0.059789,-0.039676,0.992952,0.000156,-0.010264,-0.004267,-0.000889,0.002217,-0.000743,0.111251,0.192065,-0.975056
1762618670.315443,-0.094339,0.059699,-0.039728,0.992954,0.004801,-0.010909,-0.005710,-0.001404,0.000777,-0.001727,0.111060,0.192092,-0.975072
1762618670.323420,-0.094277,0.059620,-0.039823,0.992961,0.011957,-0.002271,-0.012728,0.001869,0.001280,-0.005473,0.110891,0.191976,-0.975114
1762618670.380808,-0.094188,0.059723,-0.039893,0.992960,0.009754,0.006653,-0.005814,0.000118,0.001142,-0.003572,0.111091,0.191815,-0.975124
1762618670.381195,-0.094099,0.059827,-0.039962,0.992960,0.007551,0.015578,0.001100,-0.001634,0.001003,-0.001671,0.111290,0.191654,-0.975132
1762618670.389676,-0.093987,0.059930,-0.040008,0.992962,0.011045,0.009570,-0.002792,-0.001751,-0.001474,0.002276,0.111496,0.191447,-0.975150
1762618670.403088,-0.093869,0.059970,-0.040054,0.992969,0.011019,0.007700,-0.002817,0.001008,-0.001131,0.001165,0.111577,0.191223,-0.975184
1762618670.431259,-0.093773,0.060046,-0.040126,0.992971,0.008480,0.006033,-0.004889,0.001350,-0.002103,0.002830,0.111722,0.191046,-0.975202
1762618670.475472,-0.093661,0.060054,-0.040246,0.992976,0.010286,0.004832,-0.007108,0.001264,-0.001443,0.001290,0.111725,0.190840,-0.975242
1762618670.475745,-0.093550,0.060062,-0.040366,0.992981,0.012092,0.003631,-0.009327,0.001178,-0.000783,-0.000251,0.111728,0.190635,-0.975282
1762618670.482275,-0.093447,0.060096,-0.040490,0.992984,0.007535,0.005824,-0.011981,0.001943,0.001005,-0.002524,0.111781,0.190448,-0.975312
1762618670.512172,-0.093407,0.060136,-0.040599,0.992981,-0.000003,0.003185,-0.008520,0.001400,0.001067,-0.003492,0.111844,0.190386,-0.975317
1762618670.542910,-0.093428,0.060160,-0.040688,0.992973,-0.004275,0.002641,-0.005702,0.001429,0.000559,-0.002499,0.111872,0.190438,-0.975304
1762618670.543206,-0.093476,0.060170,-0.040744,0.992966,-0.004817,0.005685,-0.004624,0.002493,-0.001338,-0.004044,0.111876,0.190541,-0.975283
1762618670.571289,-0.093509,0.060223,-0.040779,0.992958,-0.003010,0.006168,-0.002133,0.001370,-0.001553,-0.002282,0.111972,0.190612,-0.975259
1762618670.589455,-0.093525,0.060281,-0.040794,0.992953,-0.002275,0.002708,-0.000999,-0.000288,-0.002133,0.000834,0.112082,0.190649,-0.975239
1762618670.619039,-0.093537,0.060277,-0.040810,0.992951,-0.002656,-0.006544,-0.004636,0.000260,-0.001380,0.000836,0.112069,0.190675,-0.975235
1762618670.620325,-0.093560,0.060196,-0.040849,0.992952,-0.003777,-0.006985,-0.001942,0.000669,-0.000709,0.000411,0.111900,0.190719,-0.975246
1762618670.679214,-0.093611,0.060115,-0.040846,0.992953,-0.004492,-0.006373,-0.001962,0.000720,-0.000819,0.000050,0.111735,0.190813,-0.975246
1762618670.679539,-0.093662,0.060033,-0.040842,0.992953,-0.005207,-0.005762,-0.001983,0.000770,-0.000929,-0.000311,0.111569,0.190907,-0.975247
1762618670.681059,-0.093708,0.059953,-0.040850,0.992953,-0.005424,-0.009204,-0.001799,0.000718,-0.001402,-0.000875,0.111406,0.190994,-0.975249
1762618670.708687,-0.093779,0.059872,-0.040898,0.992949,-0.006179,-0.006599,-0.005544,0.001104,-0.000799,-0.001941,0.111228,0.191133,-0.975242
1762618670.741659,-0.093878,0.059831,-0.040948,0.992940,-0.007898,-0.006980,-0.008853,0.000985,-0.000488,-0.000621,0.111128,0.191330,-0.975214
1762618670.742870,-0.094005,0.059744,-0.040997,0.992931,-0.011633,-0.006095,-0.005317,0.000267,0.001229,-0.000756,0.110936,0.191579,-0.975188
1762618670.770759,-0.094130,0.059693,-0.041022,0.992922,-0.012126,-0.006066,-0.002090,0.000506,0.001237,-0.001138,0.110819,0.191824,-0.975153
1762618670.809650,-0.094265,0.059621,-0.041024,0.992913,-0.011704,-0.008099,-0.000703,0.000186,0.000455,-0.000419,0.110663,0.192085,-0.975119
1762618670.811761,-0.094393,0.059576,-0.041032,0.992903,-0.013046,-0.006501,-0.002312,0.001227,-0.000220,0.000044,0.110560,0.192335,-0.975081
1762618670.843224,-0.094529,0.059534,-0.041092,0.992890,-0.012307,-0.003541,-0.005504,0.002119,-0.001101,-0.000121,0.110452,0.192608,-0.975040
1762618670.843476,-0.094639,0.059485,-0.041198,0.992878,-0.007618,-0.004855,-0.013894,0.001862,-0.001228,-0.000281,0.110326,0.192831,-0.975010
1762618670.872655,-0.094712,0.059447,-0.041385,0.992866,-0.002951,-0.001671,-0.019348,0.001731,-0.000329,-0.002178,0.110207,0.192994,-0.974991
1762618670.902061,-0.094760,0.059467,-0.041579,0.992852,-0.002797,0.002778,-0.013672,-0.000741,0.000799,0.001196,0.110204,0.193112,-0.974968
1762618670.903896,-0.094786,0.059410,-0.041735,0.992846,0.000001,-0.009581,-0.015881,-0.001633,0.001207,0.002414,0.110057,0.193176,-0.974972
1762618670.933955,-0.094768,0.059297,-0.041866,0.992849,0.000005,-0.010899,-0.012499,-0.000378,0.000831,0.000429,0.109810,0.193146,-0.975006
1762618670.942538,-0.094753,0.059225,-0.041938,0.992852,0.000002,-0.003895,-0.004467,0.001371,-0.000669,-0.002714,0.109656,0.193118,-0.975029
1762618670.979167,-0.094720,0.059231,-0.041991,0.992853,0.002937,0.006071,-0.004214,0.002547,-0.000451,-0.005593,0.109661,0.193061,-0.975039
