timestamp,quat_x,quat_y,quat_z,quat_w,rot_x,rot_y,rot_z,acc_x,acc_y,acc_z,grav_x,grav_y,grav_z
1762617125.618898,-0.019614,0.459232,0.000000,0.888100,-0.036726,-0.005057,-0.019135,-0.724470,0.136333,-0.403091,0.815688,0.034838,-0.577442
1762617125.619213,-0.074838,0.069249,-0.173193,0.979596,-0.039177,-0.010067,-0.022235,-0.019508,0.000482,-0.000136,0.109749,0.170609,-0.979208
1762617125.651193,-0.076591,0.060169,-0.177087,0.979364,-0.037123,-0.007147,-0.027278,0.000284,-0.001549,-0.001278,0.090728,0.171330,-0.981027
1762617125.688493,-0.077169,0.060056,-0.177471,0.979256,-0.033070,-0.013739,-0.028230,-0.001958,0.001005,-0.000013,0.090229,0.172452,-0.980877
1762617125.688739,-0.077186,0.060007,-0.177651,0.979225,-0.032063,-0.014990,-0.028893,-0.003974,0.007165,0.004649,0.090096,0.172485,-0.980883
1762617125.718220,-0.076993,0.059941,-0.177694,0.979236,-0.045784,-0.028877,-0.010252,-0.002536,0.011772,0.003230,0.090030,0.172091,-0.980958
1762617125.718573,-0.076934,0.059802,-0.177495,0.979286,-0.064749,-0.032231,0.023588,0.001431,0.011164,0.001081,0.089815,0.171911,-0.981010
1762617125.747512,-0.077491,0.059678,-0.177226,0.979298,-0.066165,-0.034795,0.026543,0.000086,0.005646,-0.001733,0.089417,0.172927,-0.980867
1762617125.778156,-0.078288,0.059481,-0.177044,0.979279,-0.065872,-0.026133,0.023364,0.001251,0.003880,-0.002830,0.088776,0.174393,-0.980666
1762617125.778687,-0.079084,0.059284,-0.176862,0.979260,-0.065579,-0.017471,0.020185,0.002415,0.002114,-0.003929,0.088135,0.175858,-0.980462
1762617125.808436,-0.081265,0.059289,-0.176619,0.979125,-0.059589,-0.041773,0.003646,-0.001979,0.002362,0.002956,0.087396,0.180081,-0.979762
1762617125.843257,-0.081628,0.059193,-0.176558,0.979112,-0.058839,-0.039845,0.000756,-0.001248,0.000384,0.000722,0.087088,0.180749,-0.979666
1762617125.843519,-0.081991,0.059097,-0.176497,0.979098,-0.058090,-0.037918,-0.002133,-0.000517,-0.001594,-0.001513,0.086781,0.181416,-0.979570
1762617125.875760,-0.082318,0.059055,-0.176492,0.979074,-0.033621,-0.006626,-0.013242,0.000518,0.001514,-0.007983,0.086582,0.182036,-0.979473
1762617125.906104,-0.082806,0.059149,-0.176719,0.978987,-0.038408,0.012822,-0.006537,-0.004583,0.014639,-0.005631,0.086545,0.183038,-0.979289
1762617125.936812,-0.083037,0.059246,-0.176717,0.978962,-0.044564,0.010441,-0.004051,-0.003814,0.012409,-0.002090,0.086651,0.183521,-0.979189
1762617125.937316,-0.083269,0.059344,-0.176714,0.978937,-0.050720,0.008060,-0.001566,-0.003045,0.010178,0.001452,0.086758,0.184003,-0.979089
1762617125.937732,-0.083988,0.059553,-0.176676,0.978869,-0.054682,0.005241,0.001058,-0.002976,0.005473,0.003424,0.086912,0.185469,-0.978799
1762617125.968265,-0.084526,0.059561,-0.176662,0.978825,-0.045832,-0.001559,-0.000829,-0.002985,0.002087,0.004983,0.086735,0.186516,-0.978616
1762617125.997397,-0.085000,0.059486,-0.176691,0.978783,-0.035939,-0.011034,-0.004744,-0.003746,0.001788,0.004907,0.086410,0.187415,-0.978473
1762617125.997889,-0.085879,0.059195,-0.176761,0.978711,-0.018055,-0.022895,-0.004331,-0.004365,0.005701,0.000577,0.085509,0.189028,-0.978242
1762617126.029749,-0.086113,0.058992,-0.176708,0.978713,-0.023152,-0.026754,0.005448,-0.001861,0.009920,-0.002373,0.085039,0.189408,-0.978209
1762617126.063665,-0.086644,0.058697,-0.176399,0.978739,-0.038396,-0.028149,0.030411,-0.002717,0.008452,0.001260,0.084330,0.190312,-0.978095
1762617126.063981,-0.086975,0.058546,-0.176148,0.978764,-0.045011,-0.026952,0.037979,-0.004245,0.005964,0.001149,0.083966,0.190882,-0.978015
1762617126.096557,-0.087296,0.058362,-0.175918,0.978788,-0.040944,-0.031453,0.031537,-0.001521,0.002719,-0.002950,0.083534,0.191423,-0.977947
1762617126.124892,-0.088223,0.058110,-0.175482,0.978798,-0.036175,-0.012703,0.016064,0.002894,0.000495,-0.003777,0.082792,0.193099,-0.977680
1762617126.156954,-0.088533,0.058094,-0.175377,0.978790,-0.032684,-0.011455,0.014222,0.000630,0.001487,-0.000701,0.082671,0.193688,-0.977574
1762617126.157279,-0.088844,0.058079,-0.175271,0.978782,-0.029192,-0.010208,0.012381,-0.001633,0.002480,0.002375,0.082550,0.194277,-0.977467
1762617126.157650,-0.089155,0.058064,-0.175166,0.978773,-0.025700,-0.008961,0.010539,-0.003897,0.003472,0.005451,0.082430,0.194866,-0.977360
1762617126.186229,-0.089563,0.057876,-0.174952,0.978785,-0.029945,-0.018620,0.012700,0.000393,0.008357,-0.000133,0.081958,0.195577,-0.977258
1762617126.216886,-0.089750,0.057840,-0.174836,0.978791,-0.024570,-0.009830,0.012600,0.001208,0.005682,-0.003111,0.081844,0.195917,-0.977199
1762617126.217156,-0.089936,0.057805,-0.174720,0.978797,-0.019195,-0.001041,0.012500,0.002023,0.003007,-0.006089,0.081731,0.196257,-0.977140
1762617126.248850,-0.090233,0.057692,-0.174614,0.978795,-0.001868,-0.007261,-0.001211,-0.001547,0.002093,0.000940,0.081426,0.196787,-0.977059
1762617126.282477,-0.090477,0.057635,-0.174620,0.978775,-0.002571,-0.006898,-0.002536,0.000611,0.006508,-0.001708,0.081225,0.197242,-0.976984
1762617126.282871,-0.090555,0.057613,-0.174614,0.978770,-0.004829,-0.000136,-0.001295,0.000889,0.002910,-0.001967,0.081154,0.197385,-0.976961
1762617126.313181,-0.090594,0.057638,-0.174623,0.978763,-0.001775,0.002989,-0.003736,-0.000013,0.000263,-0.000520,0.081187,0.197470,-0.976941
1762617126.343719,-0.090600,0.057634,-0.174757,0.978739,0.010203,-0.003009,-0.018082,-0.000911,-0.002385,0.000050,0.081150,0.197492,-0.976940
1762617126.343924,-0.090604,0.057627,-0.174906,0.978712,0.009610,0.002309,-0.021388,-0.001422,0.000854,0.000793,0.081107,0.197509,-0.976940
1762617126.374365,-0.090601,0.057610,-0.175036,0.978690,0.006776,0.003429,-0.018721,-0.001517,0.001455,0.000931,0.081048,0.197508,-0.976945
1762617126.405625,-0.090532,0.057634,-0.175337,0.978641,0.006666,0.004696,-0.017240,-0.002906,-0.000457,-0.001744,0.081060,0.197407,-0.976965
1762617126.405905,-0.090469,0.057600,-0.175457,0.978628,0.005433,-0.001658,-0.014328,-0.001756,-0.000360,-0.000180,0.080992,0.197283,-0.976995
1762617126.445193,-0.090401,0.057540,-0.175617,0.978609,0.003058,0.002210,-0.013630,-0.000058,-0.001546,-0.002694,0.080867,0.197144,-0.977034
1762617126.445391,-0.090400,0.057553,-0.175721,0.978590,0.004224,0.005705,-0.013626,-0.000565,-0.002834,-0.002241,0.080870,0.197156,-0.977031
1762617126.473751,-0.090368,0.057544,-0.175840,0.978572,0.004366,0.005757,-0.014359,-0.000383,-0.002050,-0.001770,0.080842,0.197101,-0.977044
1762617126.501330,-0.090327,0.057541,-0.176082,0.978532,-0.001526,0.005092,-0.007286,-0.000053,-0.000864,-0.000516,0.080802,0.197040,-0.977060
1762617126.501607,-0.090327,0.057614,-0.176127,0.978520,-0.003934,0.008082,-0.005701,0.000593,-0.002724,0.001253,0.080934,0.197068,-0.977043
1762617126.529461,-0.090305,0.057664,-0.176170,0.978511,-0.000758,0.004681,-0.003892,-0.000299,-0.002661,0.000490,0.081032,0.197046,-0.977040
1762617126.562445,-0.090265,0.057705,-0.176256,0.978497,-0.000773,0.000098,-0.002137,-0.000257,0.001382,-0.002593,0.081108,0.196989,-0.977045
1762617126.562848,-0.090305,0.057732,-0.176240,0.978494,-0.008096,0.001533,0.001486,-0.001477,0.000783,-0.000822,0.081150,0.197075,-0.977024
1762617126.594133,-0.090396,0.057728,-0.176211,0.978491,-0.019410,-0.001806,0.002883,-0.000825,0.001957,0.000258,0.081116,0.197248,-0.976992
1762617126.632801,-0.090808,0.057729,-0.176143,0.978466,-0.038497,-0.008755,0.001366,-0.000031,-0.000838,-0.000779,0.080981,0.198042,-0.976843
1762617126.633210,-0.091017,0.057704,-0.176138,0.978448,-0.034663,-0.005325,-0.001231,0.001571,-0.003723,-0.002650,0.080857,0.198440,-0.976772
1762617126.678902,-0.091410,0.057756,-0.176267,0.978385,-0.018491,0.012254,-0.019333,0.003856,-0.004215,-0.003754,0.080791,0.199230,-0.976617
1762617126.679220,-0.091502,0.057843,-0.176328,0.978361,-0.022773,0.014930,-0.015306,0.001959,0.000177,-0.002458,0.080914,0.199443,-0.976563
1762617126.679539,-0.091594,0.057930,-0.176389,0.978336,-0.027054,0.017607,-0.011279,0.000062,0.004569,-0.001162,0.081038,0.199656,-0.976509
1762617126.709322,-0.092121,0.058086,-0.176517,0.978254,-0.043726,-0.001428,-0.012050,-0.000783,0.003899,0.001784,0.081123,0.200743,-0.976279
1762617126.742381,-0.092749,0.058169,-0.176679,0.978161,-0.054547,-0.003144,-0.017556,0.001538,0.004405,-0.000399,0.081023,0.202002,-0.976028
1762617126.742670,-0.093144,0.058242,-0.176762,0.978104,-0.055201,0.001222,-0.013884,0.000698,0.003125,0.002030,0.081005,0.202800,-0.975864
1762617126.774301,-0.093472,0.058280,-0.176828,0.978058,-0.045172,-0.001489,-0.014563,0.000106,0.001542,0.002399,0.080945,0.203454,-0.975733
1762617126.804842,-0.094081,0.058224,-0.177037,0.977966,-0.019840,-0.012284,-0.017822,-0.001697,0.002746,0.003100,0.080570,0.204631,-0.975518
1762617126.813807,-0.094345,0.058164,-0.177131,0.977927,-0.022034,-0.010788,-0.008530,-0.001273,0.007265,0.002939,0.080337,0.205131,-0.975432
1762617126.843929,-0.094579,0.058117,-0.177148,0.977904,-0.027803,-0.007360,-0.001298,-0.002377,0.008126,0.000959,0.080157,0.205570,-0.975354
1762617126.844183,-0.094813,0.058070,-0.177165,0.977881,-0.033571,-0.003932,0.005934,-0.003480,0.008987,-0.001022,0.079977,0.206008,-0.975276
1762617126.873845,-0.095016,0.058022,-0.177095,0.977877,-0.025694,-0.010917,0.004667,-0.000619,0.005024,-0.001483,0.079822,0.206379,-0.975211
1762617126.902237,-0.095422,0.057926,-0.177059,0.977849,-0.003854,0.000566,-0.001784,0.000203,0.001633,-0.000050,0.079495,0.207130,-0.975078
1762617126.902519,-0.095521,0.057933,-0.177080,0.977836,-0.003588,0.006672,-0.000063,-0.001772,0.004358,-0.000489,0.079467,0.207325,-0.975039
1762617126.933099,-0.095592,0.057956,-0.177100,0.977823,0.000268,-0.003164,-0.003248,-0.001929,0.004736,0.001759,0.079483,0.207472,-0.975007
1762617126.963784,-0.095664,0.057824,-0.177172,0.977811,-0.001832,-0.006478,-0.001417,0.002099,0.006454,0.000061,0.079184,0.207572,-0.975010
1762617126.964123,-0.095680,0.057830,-0.177158,0.977812,0.000511,-0.004204,-0.002149,0.000702,0.004882,0.000903,0.079193,0.207604,-0.975002
1762617126.993515,-0.095706,0.057833,-0.177184,0.977804,0.001628,0.000735,-0.003925,0.000733,0.003293,0.000051,0.079183,0.207657,-0.974992
1762617127.029980,-0.095758,0.057815,-0.177248,0.977789,0.001307,-0.004648,-0.003909,0.001429,0.001706,0.000762,0.079116,0.207757,-0.974976
1762617127.030367,-0.095769,0.057811,-0.177291,0.977780,0.003076,-0.003587,-0.005276,0.001029,0.001841,-0.000099,0.079096,0.207780,-0.974972
1762617127.063815,-0.095821,0.057759,-0.177426,0.977754,0.000141,-0.001701,-0.009484,0.001388,0.003906,-0.001381,0.078945,0.207875,-0.974964
1762617127.064131,-0.095866,0.057748,-0.177483,0.977739,-0.003683,-0.001333,-0.009217,0.000818,0.004097,-0.001478,0.078896,0.207962,-0.974950
1762617127.087983,-0.095958,0.057760,-0.177540,0.977719,-0.010279,-0.001188,-0.006500,-0.000361,0.004028,0.000552,0.078873,0.208149,-0.974912
1762617127.122247,-0.096227,0.057755,-0.177627,0.977677,-0.013856,-0.007433,-0.004953,-0.000505,0.002143,0.001914,0.078747,0.208676,-0.974809
1762617127.122523,-0.096341,0.057707,-0.177670,0.977661,-0.012942,-0.009673,-0.006562,-0.000187,0.001068,0.002016,0.078602,0.208884,-0.974777
1762617127.152132,-0.096439,0.057670,-0.177693,0.977650,-0.006474,-0.008888,-0.007472,-0.000019,0.000856,0.001271,0.078489,0.209063,-0.974747
1762617127.184210,-0.096561,0.057564,-0.177772,0.977629,0.004264,-0.010149,-0.006948,-0.002147,0.000937,0.000951,0.078221,0.209268,-0.974725
1762617127.184520,-0.096554,0.057460,-0.177821,0.977627,0.005173,-0.010455,-0.004990,-0.002836,0.002575,0.000313,0.078010,0.209224,-0.974751
1762617127.213460,-0.096543,0.057400,-0.177843,0.977628,0.002758,-0.008864,-0.005811,-0.002521,0.003555,-0.001290,0.077892,0.209182,-0.974770
1762617127.216554,-0.096564,0.057268,-0.177895,0.977624,-0.004678,-0.005720,-0.007423,-0.001149,0.004014,-0.003831,0.077617,0.209183,-0.974791
1762617127.246930,-0.096660,0.057255,-0.177952,0.977605,-0.010674,-0.000846,-0.011339,0.000027,0.002198,-0.002213,0.077543,0.209368,-0.974757
1762617127.279911,-0.096922,0.057297,-0.178145,0.977542,-0.016051,0.004145,-0.010336,0.000187,0.000434,-0.000246,0.077488,0.209904,-0.974646
1762617127.280053,-0.097041,0.057314,-0.178231,0.977513,-0.008934,0.002788,-0.012101,-0.000410,-0.000385,0.001653,0.077458,0.210148,-0.974596
1762617127.309782,-0.097082,0.057337,-0.178308,0.977494,-0.001096,0.002009,-0.011213,-0.000616,-0.001295,0.001080,0.077472,0.210241,-0.974575
1762617127.340549,-0.097022,0.057286,-0.178519,0.977464,0.006424,-0.005034,-0.015998,-0.000791,0.002027,-0.000936,0.077350,0.210124,-0.974610
1762617127.340773,-0.097003,0.057269,-0.178601,0.977452,0.000810,-0.003175,-0.005171,-0.003412,0.004430,0.001978,0.077305,0.210089,-0.974621
1762617127.371786,-0.097047,0.057195,-0.178608,0.977451,-0.005474,-0.009305,-0.004329,-0.003207,0.002911,0.002523,0.077145,0.210148,-0.974621
1762617127.403036,-0.097256,0.056937,-0.178593,0.977448,-0.016402,-0.023323,0.000533,-0.001349,0.000926,-0.001441,0.076568,0.210462,-0.974599
1762617127.403441,-0.097385,0.056847,-0.178544,0.977449,-0.014043,-0.010187,0.004064,-0.000125,-0.001468,-0.004958,0.076356,0.210676,-0.974569
1762617127.433542,-0.097474,0.056858,-0.178541,0.977440,-0.011500,0.003201,0.000720,0.000729,-0.000936,-0.007419,0.076344,0.210853,-0.974532
1762617127.464949,-0.097658,0.057091,-0.178534,0.977409,-0.016568,0.021224,0.003291,-0.001106,0.003857,-0.003659,0.076732,0.211290,-0.974407
1762617127.465226,-0.097786,0.057250,-0.178540,0.977386,-0.020535,0.016638,0.001017,-0.000703,0.000761,0.000345,0.076994,0.211592,-0.974321
1762617127.495534,-0.097884,0.057338,-0.178587,0.977363,-0.015850,0.009346,-0.006878,-0.000256,-0.000031,0.001988,0.077119,0.211816,-0.974262
1762617127.497475,-0.098042,0.057434,-0.178769,0.977308,-0.010085,0.003620,-0.009858,0.001773,0.002822,0.000910,0.077207,0.212170,-0.974178
1762617127.528863,-0.098112,0.057484,-0.178832,0.977286,-0.007583,0.004425,-0.006230,0.000891,0.002357,0.001611,0.077265,0.212328,-0.974139
1762617127.562694,-0.098146,0.057465,-0.178932,0.977266,0.010872,-0.009636,-0.002902,-0.002205,0.001295,0.004830,0.077195,0.212394,-0.974130
1762617127.562970,-0.098062,0.057358,-0.178949,0.977277,0.015020,-0.011990,0.000637,0.000156,0.003408,0.003231,0.077013,0.212195,-0.974188
1762617127.592620,-0.097978,0.057293,-0.178914,0.977296,0.010838,-0.008358,0.004148,0.000823,0.004891,0.000241,0.076926,0.212008,-0.974236
1762617127.624205,-0.097933,0.057231,-0.178737,0.977337,-0.004247,-0.005084,0.010793,-0.000545,0.002843,0.001253,0.076860,0.211885,-0.974268
1762617127.624464,-0.097987,0.057161,-0.178671,0.977347,-0.008857,-0.007256,0.010194,-0.002194,0.002002,0.001487,0.076717,0.211960,-0.974262
1762617127.652359,-0.098080,0.057071,-0.178586,0.977359,-0.007697,-0.014095,0.005281,0.001643,0.000827,-0.001260,0.076527,0.212103,-0.974246
1762617127.683367,-0.098294,0.056930,-0.178520,0.977357,-0.010585,-0.003083,0.003369,0.002011,0.001407,-0.004336,0.076187,0.212463,-0.974195
1762617127.683670,-0.098381,0.056975,-0.178462,0.977357,-0.014647,0.004229,0.008110,-0.000589,0.001277,-0.001864,0.076255,0.212642,-0.974150
1762617127.721326,-0.098467,0.056968,-0.178350,0.977369,0.001003,-0.011286,0.002843,-0.002871,-0.001329,0.004131,0.076235,0.212798,-0.974118
1762617127.721672,-0.098470,0.056863,-0.178310,0.977382,0.003346,-0.014956,0.006157,-0.000320,0.000228,0.000288,0.076038,0.212764,-0.974141
1762617127.751476,-0.098455,0.056824,-0.178283,0.977391,0.001092,-0.005493,0.006534,0.000047,0.000452,-0.000264,0.075973,0.212720,-0.974155
1762617127.779905,-0.098428,0.056805,-0.178190,0.977412,0.000623,-0.000684,0.001058,-0.000839,-0.000447,-0.001042,0.075965,0.212653,-0.974170
1762617127.780147,-0.098437,0.056820,-0.178204,0.977407,-0.001727,0.004226,-0.001529,-0.000044,-0.000711,-0.001897,0.075989,0.212677,-0.974163
1762617127.810455,-0.098437,0.056877,-0.178239,0.977397,-0.001151,0.008682,-0.005923,0.000346,-0.000417,-0.003170,0.076093,0.212701,-0.974150
1762617127.842343,-0.098467,0.057080,-0.178368,0.977359,-0.003803,0.013957,-0.006545,0.001078,0.001656,-0.003084,0.076449,0.212838,-0.974092
1762617127.842662,-0.098489,0.057209,-0.178408,0.977342,-0.008519,0.021466,-0.005743,0.000496,0.000858,-0.001232,0.076682,0.212928,-0.974054
1762617127.872857,-0.098526,0.057322,-0.178466,0.977321,-0.010969,0.016883,-0.007111,0.000287,0.000766,-0.000185,0.076877,0.213043,-0.974014
1762617127.903445,-0.098652,0.057572,-0.178655,0.977259,-0.009760,0.013148,-0.012251,0.002356,-0.000685,0.003194,0.077275,0.213388,-0.973907
1762617127.903804,-0.098700,0.057625,-0.178759,0.977232,-0.006468,0.009059,-0.014417,0.002656,0.000213,0.003195,0.077340,0.213509,-0.973875
1762617127.938255,-0.098752,0.057689,-0.178971,0.977184,0.002415,0.000396,-0.010509,0.000342,0.002067,0.002048,0.077399,0.213646,-0.973840
1762617127.938628,-0.098749,0.057678,-0.179038,0.977173,0.002021,-0.004536,-0.009351,0.000342,0.002067,0.002048,0.077364,0.213643,-0.973844
1762617127.969255,-0.098739,0.057655,-0.179089,0.977166,0.002324,-0.006710,-0.007437,-0.000018,0.002630,0.001539,0.077311,0.213619,-0.973853
1762617128.003289,-0.098701,0.057527,-0.179124,0.977171,0.004240,-0.010622,-0.000708,0.001240,0.004445,0.000441,0.077069,0.213504,-0.973897
1762617128.003581,-0.098705,0.057450,-0.179122,0.977175,0.000894,-0.011324,0.002301,0.000528,0.003776,-0.000507,0.076917,0.213485,-0.973914
1762617128.033022,-0.098743,0.057355,-0.179108,0.977180,-0.001853,-0.011542,0.001781,0.001007,0.003447,-0.001343,0.076721,0.213525,-0.973921
1762617128.063706,-0.098889,0.057206,-0.179027,0.977189,-0.004379,-0.011299,0.004155,0.000454,0.001200,-0.000024,0.076395,0.213749,-0.973897
1762617128.064044,-0.098939,0.057181,-0.178983,0.977193,-0.001724,-0.007106,0.005330,0.000708,-0.000409,-0.000393,0.076337,0.213833,-0.973883
1762617128.101305,-0.098996,0.057127,-0.178938,0.977199,0.005479,-0.001083,-0.001722,0.001228,-0.002824,-0.001545,0.076220,0.213922,-0.973873
1762617128.101675,-0.098959,0.057123,-0.178992,0.977193,0.005450,0.001842,-0.012094,0.001480,-0.000972,-0.003458,0.076215,0.213854,-0.973888
1762617128.131403,-0.098945,0.057156,-0.179078,0.977177,0.001644,0.000197,-0.009261,-0.000050,0.001054,0.001930,0.076266,0.213843,-0.973886
1762617128.159839,-0.099027,0.057011,-0.179234,0.977148,-0.004494,-0.018903,-0.008587,-0.001467,0.001695,0.001774,0.075918,0.213965,-0.973887
1762617128.160160,-0.099096,0.056893,-0.179242,0.977147,-0.005646,-0.024694,-0.004522,-0.000040,0.000194,-0.000897,0.075661,0.214058,-0.973886
1762617128.190438,-0.099116,0.056783,-0.179252,0.977149,-0.000134,-0.014344,-0.001322,0.001539,-0.001288,-0.004993,0.075438,0.214060,-0.973903
1762617128.222047,-0.099023,0.056708,-0.179286,0.977157,0.012784,0.007193,-0.001969,0.001230,0.002545,-0.004651,0.075318,0.213856,-0.973957
1762617128.222391,-0.098970,0.056751,-0.179290,0.977159,-0.000192,0.010528,0.006272,0.000416,0.006751,-0.004040,0.075421,0.213770,-0.973968
1762617128.252913,-0.099042,0.056833,-0.179233,0.977157,-0.013484,0.009222,0.009752,-0.000627,0.004520,-0.000876,0.075566,0.213933,-0.973921
1762617128.283360,-0.099286,0.057017,-0.179120,0.977142,-0.019220,0.001695,-0.004503,-0.000041,0.000739,0.001987,0.075859,0.214458,-0.973783
1762617128.283716,-0.099404,0.057009,-0.179166,0.977122,-0.016747,-0.004258,-0.004811,0.000751,0.000476,0.001136,0.075791,0.214689,-0.973737
1762617128.319848,-0.099651,0.057038,-0.179196,0.977090,-0.004271,-0.000720,-0.002094,-0.000534,-0.001550,0.003640,0.075748,0.215177,-0.973633
1762617128.320093,-0.099672,0.056983,-0.179220,0.977087,0.005436,-0.010802,-0.004800,-0.001392,0.000203,0.003891,0.075627,0.215202,-0.973637
1762617128.375575,-0.099590,0.056854,-0.179206,0.977105,0.007079,-0.012253,-0.000496,-0.001207,0.002693,0.000985,0.075411,0.214998,-0.973699
1762617128.375920,-0.099508,0.056726,-0.179192,0.977123,0.008723,-0.013704,0.003808,-0.001022,0.005183,-0.001921,0.075194,0.214793,-0.973761
1762617128.377462,-0.099413,0.056585,-0.179053,0.977167,-0.000173,-0.010195,0.020368,-0.002323,0.003109,0.001381,0.074984,0.214550,-0.973830
1762617128.408245,-0.099425,0.056513,-0.178901,0.977198,-0.002809,-0.009294,0.020608,-0.002730,0.000866,-0.000637,0.074874,0.214536,-0.973842
1762617128.439849,-0.099420,0.056326,-0.178659,0.977253,0.013510,-0.006657,0.003222,0.001864,-0.004012,-0.006392,0.074565,0.214443,-0.973886
1762617128.440154,-0.099353,0.056321,-0.178676,0.977257,0.015724,0.005597,0.005832,0.000094,0.002574,-0.004111,0.074576,0.214313,-0.973914
1762617128.470409,-0.099291,0.056428,-0.178615,0.977268,0.008772,0.016056,0.016024,-0.001460,0.004126,-0.001262,0.074821,0.214226,-0.973914
1762617128.503083,-0.099210,0.056634,-0.178366,0.977310,-0.001027,0.005055,0.012879,-0.003023,-0.002635,0.002639,0.075306,0.214120,-0.973900
1762617128.503406,-0.099193,0.056657,-0.178278,0.977327,-0.004591,0.000529,0.008893,-0.000815,-0.003368,0.000267,0.075376,0.214090,-0.973902
1762617128.532384,-0.099195,0.056707,-0.178273,0.977324,-0.004162,0.007415,0.003268,0.001417,-0.003707,-0.001053,0.075475,0.214111,-0.973889
1762617128.570426,-0.099274,0.056880,-0.178396,0.977284,0.001946,0.014774,-0.019218,-0.001315,-0.002939,0.001958,0.075756,0.214332,-0.973819
1762617128.570860,-0.099270,0.056916,-0.178536,0.977257,0.001066,0.009450,-0.024492,-0.000475,-0.000808,0.001209,0.075797,0.214347,-0.973812
1762617128.603963,-0.099339,0.057042,-0.178943,0.977168,-0.012384,0.008418,-0.010352,0.002201,0.007709,-0.001073,0.075928,0.214557,-0.973756
1762617128.610094,-0.099542,0.057202,-0.179008,0.977126,-0.028126,0.011313,-0.002729,0.001998,0.005596,-0.001309,0.076150,0.215010,-0.973639
1762617128.640171,-0.099809,0.057389,-0.179037,0.977083,-0.029075,0.010025,-0.004608,0.002905,0.001886,0.001882,0.076409,0.215593,-0.973489
1762617128.669618,-0.100051,0.057513,-0.179094,0.977040,-0.015595,0.005271,-0.011959,0.004395,-0.000391,0.001530,0.076549,0.216108,-0.973364
1762617128.670061,-0.100177,0.057531,-0.179259,0.976996,-0.001696,-0.003066,-0.014509,0.003297,0.000901,0.002355,0.076500,0.216371,-0.973310
1762617128.700507,-0.100175,0.057513,-0.179385,0.976974,0.011242,-0.003096,-0.013350,0.002718,0.002467,0.002360,0.076438,0.216371,-0.973314
1762617128.730913,-0.100019,0.057423,-0.179496,0.976975,0.025087,-0.008255,-0.009923,0.000910,0.003290,0.003246,0.076295,0.216046,-0.973398
1762617128.731222,-0.099756,0.057233,-0.179577,0.976998,0.032849,-0.013399,0.001126,-0.000198,0.004925,0.000827,0.076006,0.215478,-0.973546
1762617128.759793,-0.099451,0.057110,-0.179541,0.977043,0.032364,-0.012414,0.006058,0.001430,0.003970,-0.002170,0.075887,0.214844,-0.973696
1762617128.790450,-0.099149,0.056987,-0.179454,0.977097,0.032127,-0.010979,0.010289,0.000397,0.000552,-0.001487,0.075779,0.214210,-0.973844
1762617128.791526,-0.098910,0.056863,-0.179354,0.977147,0.029536,-0.008669,0.009257,-0.000214,-0.000443,0.000351,0.075646,0.213697,-0.973967
1762617128.821862,-0.098706,0.056721,-0.179284,0.977188,0.021988,-0.009639,0.006879,-0.000809,0.000193,-0.000079,0.075461,0.213247,-0.974080
1762617128.852368,-0.098579,0.056646,-0.179230,0.977215,0.013616,-0.006128,0.004036,-0.000314,-0.001145,-0.001174,0.075375,0.212971,-0.974147
1762617128.853103,-0.098483,0.056590,-0.179160,0.977241,0.008241,-0.002983,0.001655,-0.000710,-0.003050,-0.001921,0.075315,0.212760,-0.974198
1762617128.883531,-0.098405,0.056583,-0.179155,0.977250,0.003933,-0.003833,-0.001562,-0.000492,-0.002799,-0.002613,0.075332,0.212607,-0.974230
1762617128.889573,-0.098429,0.056583,-0.179201,0.977239,-0.008284,0.003653,-0.002990,0.000109,-0.000459,-0.001543,0.075314,0.212658,-0.974220
1762617128.918468,-0.098508,0.056600,-0.179219,0.977227,-0.010095,-0.006500,-0.003845,-0.002255,-0.003060,0.001984,0.075314,0.212817,-0.974185
1762617128.950201,-0.098617,0.056507,-0.179297,0.977207,-0.010219,-0.011731,-0.012180,-0.000871,-0.001496,0.001449,0.075074,0.213001,-0.974164
1762617128.950663,-0.098718,0.056378,-0.179368,0.977192,-0.010762,-0.011041,-0.007470,0.000127,-0.002164,-0.005091,0.074771,0.213158,-0.974152
1762617128.982314,-0.098810,0.056407,-0.179439,0.977167,-0.006377,0.007686,-0.007064,0.003472,-0.001439,-0.007356,0.074777,0.213352,-0.974109
1762617129.013348,-0.098851,0.056574,-0.179499,0.977143,-0.009973,0.022975,0.000188,0.002145,0.003031,-0.004525,0.075075,0.213493,-0.974056
1762617129.014086,-0.098927,0.056873,-0.179489,0.977120,-0.020237,0.025765,0.006907,0.000250,0.002940,-0.000733,0.075631,0.213742,-0.973958
1762617129.044713,-0.099069,0.057091,-0.179497,0.977091,-0.014708,0.012467,-0.006264,-0.000794,0.000023,0.004051,0.076000,0.214094,-0.973852
1762617129.049604,-0.099169,0.057195,-0.179611,0.977054,-0.016170,0.007653,-0.011830,0.003064,0.002747,0.003309,0.076142,0.214333,-0.973788
1762617129.078552,-0.099363,0.057256,-0.179732,0.977008,-0.015891,0.004330,-0.009902,0.001884,0.004293,0.004727,0.076161,0.214738,-0.973698
1762617129.110382,-0.099490,0.057263,-0.179791,0.976984,-0.005451,-0.011032,-0.003643,-0.001132,0.004807,0.006287,0.076116,0.214990,-0.973646
1762617129.110870,-0.099471,0.057055,-0.179782,0.977000,0.011426,-0.021996,0.006115,-0.002647,0.005891,0.004419,0.075720,0.214882,-0.973700
1762617129.139908,-0.099376,0.056850,-0.179598,0.977055,0.017665,-0.019644,0.022517,-0.000629,0.007215,-0.001061,0.075395,0.214612,-0.973785
1762617129.173101,-0.099292,0.056720,-0.179290,0.977128,0.010277,-0.010248,0.036356,0.000742,0.005080,-0.002059,0.075242,0.214380,-0.973848
1762617129.175057,-0.099257,0.056690,-0.178948,0.977196,0.002231,-0.008001,0.028230,-0.001205,-0.000893,-0.000984,0.075271,0.214277,-0.973868
1762617129.203598,-0.099300,0.056576,-0.178732,0.977238,0.009729,-0.014388,0.007883,0.001009,-0.006273,-0.002721,0.075080,0.214303,-0.973877
1762617129.208074,-0.099227,0.056476,-0.178780,0.977242,0.015176,0.000126,-0.013131,0.001803,-0.003210,-0.004264,0.074902,0.214131,-0.973929
1762617129.237259,-0.099117,0.056511,-0.178930,0.977224,0.011499,0.014844,-0.008164,0.000575,-0.000482,-0.002900,0.074977,0.213942,-0.973965
1762617129.268493,-0.098974,0.056634,-0.179061,0.977207,0.015154,0.009974,-0.011629,-0.002324,-0.000554,0.001825,0.075241,0.213719,-0.973993
1762617129.268811,-0.098776,0.056646,-0.179157,0.977209,0.011049,0.004444,-0.006224,-0.000152,0.000554,0.000807,0.075318,0.213346,-0.974069
1762617129.301273,-0.098609,0.056717,-0.179212,0.977212,0.007945,0.008623,-0.002533,0.000800,-0.000213,0.000225,0.075506,0.213053,-0.974119
1762617129.330557,-0.098498,0.056830,-0.179243,0.977210,0.009144,0.011172,-0.007014,0.000902,-0.000296,0.000163,0.075760,0.212880,-0.974137
1762617129.331172,-0.098393,0.056878,-0.179357,0.977197,0.008282,0.007855,-0.008714,0.000811,-0.000922,-0.000456,0.075866,0.212701,-0.974168
1762617129.362515,-0.098349,0.056871,-0.179510,0.977174,0.004087,0.003655,-0.014357,0.001383,0.000129,-0.001743,0.075837,0.212627,-0.974186
1762617129.367412,-0.098297,0.056897,-0.179651,0.977152,0.001637,0.003901,-0.012754,0.000822,0.001752,-0.000785,0.075875,0.212546,-0.974201
1762617129.397303,-0.098333,0.056932,-0.179768,0.977125,-0.003248,0.004153,-0.007004,0.001781,0.001577,-0.001780,0.075905,0.212636,-0.974179
1762617129.405324,-0.098336,0.057022,-0.179832,0.977107,-0.004104,0.004300,-0.003977,0.002236,0.002091,0.002581,0.076065,0.212678,-0.974157
1762617129.435932,-0.098348,0.057050,-0.179856,0.977100,-0.000384,0.000402,-0.000372,0.002902,0.000615,0.001902,0.076110,0.212713,-0.974146
1762617129.482674,-0.098335,0.056978,-0.179857,0.977106,0.003831,-0.003214,-0.001405,0.002807,0.001279,0.001146,0.075974,0.212662,-0.974168
1762617129.482952,-0.098321,0.056905,-0.179858,0.977111,0.008047,-0.006831,-0.002437,0.002712,0.001944,0.000389,0.075838,0.212611,-0.974189
1762617129.486604,-0.098258,0.056787,-0.179861,0.977124,0.008914,-0.009979,0.000239,0.002061,0.002220,-0.001065,0.075630,0.212448,-0.974241
1762617129.517660,-0.098178,0.056644,-0.179847,0.977142,0.012825,-0.014202,0.003818,0.001708,0.001677,-0.000570,0.075385,0.212243,-0.974305
1762617129.547299,-0.098059,0.056498,-0.179782,0.977175,0.015712,-0.018085,0.004692,-0.000295,0.001621,-0.000189,0.075159,0.211956,-0.974385
1762617129.547686,-0.097936,0.056352,-0.179712,0.977209,0.014517,-0.013928,0.010745,-0.000864,0.000413,-0.000158,0.074934,0.211662,-0.974466
1762617129.576771,-0.097795,0.056211,-0.179571,0.977257,0.018800,-0.011032,0.013073,-0.001225,-0.001589,-0.002040,0.074743,0.211330,-0.974553
1762617129.606196,-0.097605,0.056081,-0.179410,0.977313,0.020544,-0.007238,0.012006,-0.000813,-0.003238,-0.002049,0.074595,0.210905,-0.974656
1762617129.621752,-0.097390,0.056033,-0.179322,0.977353,0.024971,-0.001641,0.008437,0.000258,-0.003712,-0.003166,0.074599,0.210465,-0.974751
1762617129.648362,-0.097181,0.055996,-0.179346,0.977371,0.021495,0.004111,-0.004329,0.000356,-0.002410,-0.000727,0.074599,0.210050,-0.974840
1762617129.648647,-0.096994,0.056057,-0.179414,0.977374,0.014629,0.005403,-0.010237,-0.000784,-0.002605,-0.000056,0.074774,0.209714,-0.974899
1762617129.683008,-0.096892,0.056014,-0.179587,0.977355,0.006198,0.006801,-0.018449,0.001377,-0.000658,-0.003659,0.074690,0.209515,-0.974949
1762617129.684953,-0.096824,0.056107,-0.179766,0.977323,-0.000078,0.010142,-0.013555,-0.001146,0.000365,0.002141,0.074859,0.209428,-0.974954
1762617129.713553,-0.096815,0.056099,-0.179869,0.977306,-0.002987,-0.006466,-0.008840,-0.001427,-0.000207,0.001906,0.074823,0.209418,-0.974959
1762617129.744833,-0.096827,0.055955,-0.179928,0.977302,-0.002317,-0.020128,-0.003841,-0.001339,0.000399,0.002528,0.074527,0.209394,-0.974987
1762617129.746589,-0.096892,0.055807,-0.179907,0.977308,-0.003174,-0.007085,0.006139,0.002094,-0.002739,-0.006579,0.074219,0.209466,-0.974995
1762617129.779651,-0.096914,0.055865,-0.179887,0.977306,0.000049,0.010431,-0.002759,0.002221,-0.002226,-0.005231,0.074327,0.209528,-0.974974
1762617129.784559,-0.096952,0.056093,-0.179904,0.977286,-0.017191,0.026901,0.002470,0.001455,0.002856,-0.002228,0.074754,0.209682,-0.974908
1762617129.815851,-0.097153,0.056337,-0.179894,0.977254,-0.025994,0.015364,0.000886,-0.001175,0.000578,0.002299,0.075157,0.210156,-0.974775
1762617129.845156,-0.097339,0.056468,-0.179938,0.977220,-0.020217,-0.002509,-0.011929,0.000099,-0.000716,0.003494,0.075333,0.210565,-0.974673
1762617129.847126,-0.097493,0.056430,-0.180076,0.977181,-0.016435,-0.004644,-0.012040,0.003304,0.005067,0.002423,0.075172,0.210860,-0.974622
1762617129.876245,-0.097677,0.056453,-0.180071,0.977162,-0.014025,-0.006900,0.005671,-0.000904,0.006134,0.006307,0.075151,0.211223,-0.974545
1762617129.906860,-0.097853,0.056309,-0.179984,0.977169,-0.003704,-0.021508,0.011517,-0.001204,0.001372,0.003401,0.074823,0.211508,-0.974508
1762617129.908669,-0.097838,0.056077,-0.179832,0.977212,0.008790,-0.027606,0.012576,-0.000056,0.000063,0.000157,0.074410,0.211386,-0.974566
1762617129.937390,-0.097776,0.055872,-0.179679,0.977258,0.010962,-0.017285,0.012341,0.001634,0.002247,-0.005203,0.074067,0.211182,-0.974636
1762617129.967890,-0.097721,0.055748,-0.179545,0.977295,0.003970,-0.008883,0.010846,0.000997,0.001879,-0.002175,0.073875,0.211023,-0.974685
1762617129.969728,-0.097760,0.055728,-0.179443,0.977311,-0.004597,-0.001565,0.002448,-0.002704,0.000292,-0.001190,0.073842,0.211083,-0.974675
1762617129.998675,-0.097755,0.055586,-0.179420,0.977324,0.006656,-0.014934,-0.010235,0.000651,-0.002338,-0.003178,0.073573,0.211023,-0.974708
1762617130.006332,-0.097695,0.055528,-0.179534,0.977312,0.008348,0.008010,-0.007639,0.001840,0.001420,-0.001933,0.073457,0.210895,-0.974745
1762617130.038219,-0.097592,0.055639,-0.179565,0.977311,0.005163,0.016929,0.003723,0.000114,0.002143,-0.002189,0.073705,0.210737,-0.974760
1762617130.078191,-0.097469,0.055639,-0.179584,0.977320,0.007650,0.007629,0.000641,0.000986,0.001855,-0.002040,0.073747,0.210500,-0.974808
1762617130.078402,-0.097346,0.055639,-0.179602,0.977329,0.010136,-0.001671,-0.002441,0.001858,0.001566,-0.001891,0.073789,0.210263,-0.974856
1762617130.109436,-0.097256,0.055714,-0.179647,0.977325,0.004302,0.011367,-0.001377,0.000049,0.000042,-0.000050,0.073957,0.210120,-0.974874
1762617130.109786,-0.097241,0.055789,-0.179688,0.977315,0.003036,0.004991,-0.008008,0.000632,0.001213,-0.001330,0.074100,0.210120,-0.974864
1762617130.141274,-0.097215,0.055766,-0.179804,0.977297,0.004463,-0.001350,-0.004901,0.001652,0.001617,-0.000541,0.074041,0.210070,-0.974879
1762617130.145027,-0.097154,0.055788,-0.179830,0.977297,0.006021,0.005130,-0.000815,0.001300,0.002467,-0.002680,0.074102,0.209961,-0.974898
1762617130.173485,-0.097066,0.055864,-0.179875,0.977293,0.009342,0.008453,-0.001762,0.003036,-0.000246,-0.000257,0.074272,0.209822,-0.974915
1762617130.203430,-0.096988,0.055928,-0.179882,0.977296,0.005691,0.005444,0.001937,0.002748,-0.000906,0.000456,0.074425,0.209693,-0.974931
1762617130.205452,-0.096887,0.055984,-0.179908,0.977298,0.007403,0.001941,-0.003085,-0.000000,-0.000725,0.004868,0.074564,0.209520,-0.974957
1762617130.236101,-0.096828,0.055946,-0.179932,0.977302,0.008675,-0.005725,-0.001195,0.002826,-0.000232,0.001190,0.074507,0.209394,-0.974989
1762617130.266545,-0.096734,0.055876,-0.179957,0.977311,0.008463,-0.007175,-0.002528,0.002424,-0.001526,0.001148,0.074401,0.209189,-0.975041
1762617130.266960,-0.096679,0.055774,-0.179979,0.977318,0.007177,-0.009656,0.000168,0.001285,-0.002603,-0.000364,0.074219,0.209048,-0.975085
1762617130.298007,-0.096607,0.055713,-0.179983,0.977327,0.006861,-0.005216,-0.001479,0.001051,-0.003982,-0.001733,0.074125,0.208889,-0.975126
1762617130.305156,-0.096603,0.055601,-0.180021,0.977327,0.000135,-0.014580,-0.004843,-0.000299,-0.004991,-0.001895,0.073900,0.208845,-0.975153
1762617130.396971,-0.096681,0.055537,-0.180015,0.977324,-0.013097,-0.010184,-0.004300,0.001623,-0.006360,-0.003630,0.073747,0.208973,-0.975137
1762617130.432745,-0.097093,0.055505,-0.179855,0.977315,-0.022832,-0.010230,0.003672,0.001040,-0.010727,-0.002625,0.073567,0.209746,-0.974984
1762617130.433029,-0.097504,0.055474,-0.179696,0.977305,-0.032566,-0.010276,0.011645,0.000456,-0.015094,-0.001619,0.073388,0.210519,-0.974831
1762617130.433358,-0.097915,0.055443,-0.179536,0.977295,-0.042301,-0.010323,0.019617,-0.000127,-0.019461,-0.000615,0.073209,0.211292,-0.974677
1762617130.433741,-0.098310,0.055422,-0.179317,0.977297,-0.040502,-0.012564,0.023314,-0.001048,-0.024358,0.001332,0.073069,0.212033,-0.974527
1762617130.461027,-0.098620,0.055390,-0.179044,0.977317,-0.032321,-0.010246,0.026101,0.000069,-0.030617,0.000972,0.072952,0.212601,-0.974412
1762617130.462740,-0.098796,0.055357,-0.178780,0.977350,-0.019308,-0.006935,0.022405,0.002154,-0.037174,0.000494,0.072880,0.212910,-0.974350
1762617130.492373,-0.098810,0.055350,-0.178605,0.977381,-0.006549,0.002174,0.010574,0.004373,-0.043029,0.000569,0.072900,0.212922,-0.974346
1762617130.525542,-0.098659,0.055388,-0.178550,0.977404,0.004766,0.002819,0.004959,0.002549,-0.046433,0.004423,0.073042,0.212639,-0.974397
1762617130.527438,-0.098353,0.055370,-0.178528,0.977440,0.018197,0.000530,0.000679,0.001422,-0.046937,0.003762,0.073124,0.212039,-0.974522
1762617130.556328,-0.097901,0.055287,-0.178508,0.977494,0.025074,-0.002902,0.005090,0.003129,-0.043880,-0.000279,0.073134,0.211134,-0.974717
1762617130.586831,-0.097372,0.055258,-0.178411,0.977566,0.027132,0.006917,0.012873,0.006706,-0.044016,-0.006031,0.073292,0.210093,-0.974930
1762617130.587923,-0.096784,0.055352,-0.178309,0.977637,0.026995,0.025457,0.013013,0.008238,-0.042528,-0.007562,0.073714,0.208979,-0.975138
1762617130.621850,-0.096191,0.055582,-0.178242,0.977695,0.022163,0.035446,0.011597,0.006725,-0.037712,-0.005668,0.074394,0.207904,-0.975316
1762617130.622178,-0.095673,0.055885,-0.178139,0.977747,0.014559,0.030985,0.016973,0.004233,-0.031057,-0.001658,0.075197,0.206998,-0.975447
1762617130.678506,-0.095373,0.056093,-0.177874,0.977813,-0.002597,0.024577,0.029006,0.006811,-0.028546,0.001098,0.075768,0.206470,-0.975515
1762617130.678735,-0.095074,0.056301,-0.177609,0.977878,-0.019753,0.018169,0.041040,0.009390,-0.026034,0.003853,0.076339,0.205941,-0.975582
1762617130.683916,-0.094983,0.056550,-0.177171,0.977952,-0.028204,0.014289,0.051974,0.011329,-0.029492,0.007685,0.076949,0.205817,-0.975561
1762617130.712946,-0.094939,0.056714,-0.176671,0.978038,-0.017180,0.005115,0.047868,0.010510,-0.033197,0.009746,0.077391,0.205747,-0.975540
1762617130.741399,-0.094795,0.056749,-0.176237,0.978128,0.001974,-0.004699,0.036073,0.010690,-0.032598,0.008937,0.077603,0.205447,-0.975587
1762617130.743456,-0.094573,0.056710,-0.175925,0.978208,0.006585,-0.007903,0.023762,0.010160,-0.027251,0.006403,0.077673,0.204977,-0.975680
1762617130.772972,-0.094358,0.056702,-0.175662,0.978276,0.000797,-0.011272,0.023772,0.008427,-0.024151,0.008499,0.077791,0.204538,-0.975763
1762617130.806035,-0.094225,0.056699,-0.175337,0.978347,-0.008714,-0.009202,0.032615,0.006468,-0.023385,0.008312,0.077900,0.204252,-0.975814
1762617130.811966,-0.094114,0.056649,-0.174983,0.978424,-0.004521,-0.015614,0.027152,0.006431,-0.021823,0.008302,0.077918,0.203992,-0.975867
1762617130.842069,-0.093999,0.056597,-0.174676,0.978493,-0.006563,-0.006894,0.027592,0.006234,-0.017257,0.007360,0.077922,0.203727,-0.975922
1762617130.843693,-0.093984,0.056659,-0.174376,0.978545,-0.023056,0.002517,0.028050,0.007003,-0.016078,0.009248,0.078110,0.203695,-0.975914
1762617130.872470,-0.094116,0.056825,-0.174132,0.978566,-0.032637,0.004628,0.013728,0.007399,-0.018894,0.012862,0.078438,0.203987,-0.975826
1762617130.903402,-0.094338,0.057006,-0.174123,0.978535,-0.042197,0.023106,-0.018672,0.008787,-0.018017,0.005660,0.078713,0.204479,-0.975701
1762617130.906115,-0.094660,0.057468,-0.174457,0.978418,-0.053853,0.052475,-0.048032,0.002437,-0.009995,0.010836,0.079428,0.205286,-0.975474
1762617130.939584,-0.095068,0.058197,-0.175017,0.978235,-0.069073,0.071376,-0.053808,-0.004954,0.000208,0.025753,0.080584,0.206368,-0.975151
1762617130.940594,-0.095582,0.058938,-0.175550,0.978045,-0.074613,0.057269,-0.049363,-0.008423,-0.000550,0.030724,0.081729,0.207661,-0.974781
1762617130.981748,-0.096092,0.059570,-0.176013,0.977874,-0.061516,0.042934,-0.046598,-0.006983,-0.005346,0.028380,0.082677,0.208902,-0.974436
1762617130.982143,-0.096504,0.059982,-0.176596,0.977703,-0.046424,0.033883,-0.069234,-0.007452,-0.001964,0.016618,0.083204,0.209890,-0.974178
1762617131.014257,-0.096970,0.060314,-0.177373,0.977496,-0.054842,0.027948,-0.080276,-0.013180,0.009819,0.015422,0.083513,0.210972,-0.973918
1762617131.042143,-0.097648,0.060563,-0.178108,0.977279,-0.079502,0.022094,-0.066028,-0.017520,0.017519,0.021784,0.083591,0.212433,-0.973594
1762617131.042793,-0.098441,0.060759,-0.178652,0.977088,-0.079404,0.009981,-0.051788,-0.019882,0.020927,0.025904,0.083560,0.214081,-0.973235
1762617131.074633,-0.099206,0.060745,-0.179086,0.976932,-0.075318,-0.028311,-0.049287,-0.024232,0.032762,0.018847,0.083155,0.215593,-0.972936
1762617131.104200,-0.100228,0.060498,-0.179408,0.976784,-0.111614,-0.030110,-0.027751,-0.022087,0.045798,-0.010921,0.082223,0.217511,-0.972589
1762617131.105709,-0.101649,0.060360,-0.179519,0.976625,-0.137841,-0.024965,-0.017650,-0.023783,0.053710,-0.031511,0.081403,0.220218,-0.972048
1762617131.134476,-0.103297,0.060323,-0.179689,0.976423,-0.157416,-0.015554,-0.034765,-0.021987,0.067667,-0.036689,0.080679,0.223402,-0.971382
1762617131.166129,-0.105245,0.060432,-0.179958,0.976159,-0.201408,0.002770,-0.030605,-0.020178,0.082015,-0.036094,0.080103,0.227222,-0.970543
1762617131.179218,-0.107617,0.060872,-0.180128,0.975842,-0.243081,0.019926,-0.019009,-0.018902,0.084878,-0.026735,0.080032,0.231964,-0.969426
1762617131.183287,-0.110227,0.061419,-0.180238,0.975496,-0.255235,0.021720,-0.025965,-0.017253,0.084743,-0.021678,0.080094,0.237192,-0.968155
1762617131.214486,-0.112893,0.061925,-0.180375,0.975133,-0.260964,0.015655,-0.023765,-0.010323,0.091064,-0.026746,0.080044,0.242511,-0.966841
1762617131.240909,-0.115599,0.062583,-0.180395,0.974771,-0.265762,0.035689,-0.004287,-0.005405,0.090826,-0.022475,0.080302,0.247945,-0.965440
1762617131.242335,-0.118196,0.063360,-0.180277,0.974431,-0.241911,0.034162,0.004338,-0.002436,0.084728,-0.010094,0.080863,0.253192,-0.964031
1762617131.308123,-0.120247,0.063933,-0.180114,0.974172,-0.198851,0.025316,0.005648,0.001771,0.074686,-0.003403,0.081248,0.257313,-0.962906
1762617131.308849,-0.122297,0.064507,-0.179951,0.973909,-0.155792,0.016470,0.006958,0.005979,0.064649,0.003271,0.081633,0.261429,-0.961764
1762617131.313663,-0.123901,0.064910,-0.179827,0.973703,-0.112669,0.013937,0.006552,0.008343,0.051698,0.004294,0.081844,0.264632,-0.960870
1762617131.339601,-0.125005,0.065243,-0.179749,0.973554,-0.053810,0.011471,-0.001745,0.006878,0.039893,0.008740,0.082096,0.266854,-0.960234
1762617131.345059,-0.125509,0.065420,-0.179775,0.973472,0.007687,0.005216,-0.006145,0.005090,0.031228,0.011188,0.082242,0.267881,-0.959935
1762617131.370026,-0.125519,0.065439,-0.179893,0.973448,0.048244,0.002259,-0.011624,0.003582,0.026219,0.011167,0.082243,0.267917,-0.959925
1762617131.398721,-0.125235,0.065385,-0.180026,0.973464,0.068564,-0.009630,-0.009754,0.003027,0.022661,0.007893,0.082209,0.267365,-0.960082
1762617131.400745,-0.124822,0.065242,-0.180177,0.973498,0.068319,-0.003409,-0.013201,0.006438,0.019396,-0.005291,0.082046,0.266539,-0.960326
1762617131.431957,-0.124462,0.065233,-0.180361,0.973511,0.049143,0.012073,-0.015384,0.004562,0.016695,-0.009698,0.082114,0.265862,-0.960508
1762617131.461679,-0.124330,0.065353,-0.180560,0.973483,0.016068,0.011804,-0.013757,0.000217,0.018136,-0.005704,0.082342,0.265667,-0.960542
1762617131.462908,-0.124496,0.065442,-0.180681,0.973433,-0.012202,-0.004279,-0.008190,-0.002266,0.016232,0.000332,0.082419,0.266025,-0.960436
1762617131.492577,-0.124845,0.065439,-0.180679,0.973389,-0.026109,-0.013877,0.001135,0.000177,0.011419,0.000524,0.082282,0.266692,-0.960263
1762617131.523116,-0.125241,0.065403,-0.180570,0.973361,-0.029134,-0.014822,0.011826,0.002143,0.006952,0.001227,0.082093,0.267429,-0.960074
1762617131.525508,-0.125635,0.065386,-0.180382,0.973346,-0.029053,-0.007166,0.017369,0.003712,0.002312,0.002533,0.081961,0.268161,-0.959881
1762617131.578351,-0.125982,0.065385,-0.180230,0.973330,-0.022669,-0.014091,0.010696,0.002037,-0.000665,0.003899,0.081870,0.268812,-0.959707
1762617131.578373,-0.126329,0.065384,-0.180079,0.973313,-0.016285,-0.021017,0.004023,0.000361,-0.003642,0.005265,0.081780,0.269463,-0.959532
1762617131.580301,-0.126568,0.065319,-0.180023,0.973296,-0.013524,-0.013177,-0.002659,0.001060,-0.003548,0.003414,0.081579,0.269894,-0.959428
1762617131.621708,-0.126769,0.065187,-0.180054,0.973273,-0.013203,-0.024146,-0.008936,0.000304,-0.002750,0.000469,0.081240,0.270236,-0.959360
1762617131.624733,-0.126988,0.064978,-0.180110,0.973248,-0.019530,-0.032546,-0.013415,0.001137,-0.001986,-0.003748,0.080735,0.270588,-0.959304
1762617131.655682,-0.127261,0.064723,-0.180155,0.973221,-0.026812,-0.031823,-0.007305,0.002510,-0.001964,-0.005523,0.080125,0.271026,-0.959231
1762617131.660274,-0.127594,0.064493,-0.180162,0.973192,-0.033525,-0.028005,-0.004427,0.002737,-0.000242,-0.007244,0.079553,0.271586,-0.959121
1762617131.688889,-0.127985,0.064276,-0.180107,0.973165,-0.038009,-0.028943,-0.000154,0.001481,-0.000185,-0.004796,0.079001,0.272255,-0.958977
1762617131.744617,-0.128394,0.064084,-0.180031,0.973138,-0.039830,-0.025469,-0.001606,0.002542,-0.000645,-0.004808,0.078495,0.272964,-0.958817
1762617131.745421,-0.128802,0.063891,-0.179955,0.973111,-0.041651,-0.021995,-0.003058,0.003603,-0.001106,-0.004820,0.077990,0.273673,-0.958656
1762617131.745978,-0.129222,0.063802,-0.179948,0.973062,-0.044254,-0.009520,-0.005298,0.003831,-0.002422,-0.002147,0.077660,0.274445,-0.958462
1762617131.780228,-0.129622,0.063785,-0.179996,0.973001,-0.036689,-0.009104,-0.014642,0.001826,-0.004312,0.002253,0.077463,0.275207,-0.958259
1762617131.780581,-0.129947,0.063719,-0.180146,0.972934,-0.025794,-0.011399,-0.020681,0.002036,-0.002758,0.002394,0.077170,0.275817,-0.958107
1762617131.808702,-0.130185,0.063628,-0.180356,0.972869,-0.018909,-0.011490,-0.026235,0.001909,0.002806,-0.000115,0.076845,0.276257,-0.958007
1762617131.843399,-0.130383,0.063569,-0.180542,0.972812,-0.022450,-0.006131,-0.019313,0.001390,0.007476,-0.001047,0.076603,0.276630,-0.957919
1762617131.844295,-0.130592,0.063560,-0.180672,0.972761,-0.023508,-0.003890,-0.013016,0.001679,0.007817,-0.001300,0.076469,0.277036,-0.957812
1762617131.879301,-0.130804,0.063555,-0.180745,0.972719,-0.021601,-0.001277,-0.007579,0.000817,0.005905,-0.003001,0.076358,0.277446,-0.957702
1762617131.881241,-0.131009,0.063575,-0.180782,0.972683,-0.013528,-0.004911,-0.003009,0.000430,0.003035,-0.000975,0.076308,0.277847,-0.957590
1762617131.915841,-0.131135,0.063569,-0.180786,0.972666,-0.001585,-0.003701,-0.003670,0.000141,0.001780,0.000689,0.076249,0.278087,-0.957525
1762617131.921384,-0.131129,0.063545,-0.180845,0.972657,0.011387,0.002347,-0.010791,0.000314,0.002319,0.001815,0.076187,0.278071,-0.957534
1762617131.954382,-0.130998,0.063525,-0.180985,0.972650,0.019779,0.004201,-0.010460,-0.002092,0.005400,0.002184,0.076157,0.277825,-0.957608
1762617131.960499,-0.130806,0.063556,-0.181132,0.972647,0.022400,0.008642,-0.016857,-0.004349,0.004357,0.001129,0.076249,0.277480,-0.957701
1762617131.989094,-0.130579,0.063513,-0.181376,0.972635,0.026005,0.000958,-0.025836,-0.003153,0.000337,-0.002314,0.076182,0.277051,-0.957831
1762617132.019578,-0.130327,0.063416,-0.181708,0.972613,0.031648,-0.001388,-0.037816,-0.002237,-0.002393,-0.004522,0.075995,0.276561,-0.957987
1762617132.021904,-0.130090,0.063279,-0.182142,0.972572,0.032306,-0.004240,-0.042579,-0.002267,0.002999,-0.003574,0.075696,0.276096,-0.958145
1762617132.051207,-0.129910,0.063123,-0.182543,0.972531,0.018347,-0.004009,-0.032964,0.000702,0.009262,-0.002887,0.075350,0.275728,-0.958278
1762617132.081911,-0.129876,0.063053,-0.182783,0.972495,-0.004440,-0.002451,-0.010280,0.000444,0.010947,0.001125,0.075160,0.275658,-0.958313
1762617132.082679,-0.130014,0.063033,-0.182805,0.972474,-0.020181,-0.002323,0.004413,0.001214,0.006538,-0.002160,0.075061,0.275916,-0.958246
1762617132.112246,-0.130232,0.063061,-0.182709,0.972461,-0.019949,-0.002232,0.009686,0.000018,0.000216,0.000271,0.075060,0.276334,-0.958126
1762617132.120047,-0.130453,0.063013,-0.182625,0.972450,-0.011472,-0.014734,-0.000143,0.000734,-0.002594,0.004275,0.074905,0.276734,-0.958023
1762617132.179410,-0.130598,0.062813,-0.182601,0.972448,-0.005361,-0.020039,-0.001769,0.001874,-0.003176,0.002528,0.074470,0.276939,-0.957997
1762617132.179986,-0.130743,0.062613,-0.182577,0.972446,0.000751,-0.025344,-0.003395,0.003014,-0.003758,0.000782,0.074035,0.277144,-0.957972
1762617132.180928,-0.130737,0.062403,-0.182580,0.972460,0.008391,-0.016260,-0.003921,0.003789,-0.000015,-0.004070,0.073629,0.277060,-0.958027
1762617132.209845,-0.130694,0.062279,-0.182583,0.972473,0.002351,-0.009141,0.002110,0.001004,0.003896,-0.004044,0.073404,0.276935,-0.958081
1762617132.243059,-0.130738,0.062228,-0.182494,0.972487,-0.010237,-0.011720,0.010598,-0.000999,0.004641,-0.001349,0.073314,0.276994,-0.958071
1762617132.244788,-0.130866,0.062137,-0.182360,0.972501,-0.012552,-0.014735,0.012536,-0.000372,0.002414,-0.000204,0.073127,0.277197,-0.958026
1762617132.299450,-0.130995,0.062064,-0.182219,0.972515,-0.010081,-0.011885,0.010848,-0.001729,0.001250,0.001423,0.072976,0.277407,-0.957977
1762617132.300045,-0.131124,0.061991,-0.182078,0.972528,-0.007610,-0.009036,0.009159,-0.003086,0.000086,0.003049,0.072826,0.277617,-0.957928
1762617132.300936,-0.131248,0.061911,-0.181957,0.972539,-0.006534,-0.007795,0.008424,-0.002319,-0.002109,0.002864,0.072659,0.277818,-0.957882
1762617132.329887,-0.131365,0.061836,-0.181867,0.972545,-0.005912,-0.011427,0.005958,-0.001467,-0.003237,0.002872,0.072495,0.278009,-0.957839
1762617132.359855,-0.131453,0.061754,-0.181814,0.972548,-0.006250,-0.009493,0.001446,-0.000958,-0.003355,-0.000693,0.072317,0.278144,-0.957813
1762617132.360424,-0.131557,0.061715,-0.181820,0.972535,-0.008541,-0.006281,-0.004136,-0.002068,-0.002552,0.000296,0.072202,0.278330,-0.957768
1762617132.401027,-0.131702,0.061618,-0.181860,0.972515,-0.013968,-0.010864,-0.006138,-0.003286,-0.001543,-0.000615,0.071947,0.278576,-0.957716
1762617132.401561,-0.131881,0.061484,-0.181936,0.972485,-0.016814,-0.010181,-0.012790,0.000949,-0.000615,-0.007075,0.071596,0.278876,-0.957654
1762617132.434342,-0.132061,0.061482,-0.182051,0.972439,-0.018878,0.006166,-0.014194,0.000636,-0.001167,-0.006151,0.071491,0.279229,-0.957560
1762617132.441280,-0.132215,0.061563,-0.182208,0.972383,-0.018374,0.011910,-0.018514,-0.000348,0.000125,-0.004762,0.071546,0.279561,-0.957458
1762617132.484013,-0.132334,0.061655,-0.182439,0.972318,-0.011358,0.008780,-0.022246,-0.002295,0.001185,-0.001225,0.071612,0.279838,-0.957373
1762617132.484341,-0.132423,0.061728,-0.182680,0.972256,-0.007718,0.009728,-0.023063,-0.001494,0.001509,0.000950,0.071649,0.280052,-0.957307
1762617132.515654,-0.132444,0.061791,-0.182940,0.972200,-0.000045,0.010598,-0.023298,-0.000442,0.001829,0.001579,0.071688,0.280133,-0.957281
1762617132.517620,-0.132406,0.061857,-0.183199,0.972152,0.004283,0.010618,-0.023220,-0.000277,0.002063,0.000193,0.071756,0.280101,-0.957285
1762617132.548126,-0.132364,0.061905,-0.183456,0.972107,0.004772,0.008563,-0.019271,-0.000941,0.003663,-0.000183,0.071790,0.280058,-0.957295
1762617132.581903,-0.132354,0.061947,-0.183666,0.972066,-0.001075,0.011385,-0.017093,0.000409,0.005481,-0.004177,0.071815,0.280068,-0.957290
1762617132.583640,-0.132416,0.062072,-0.183853,0.972014,-0.006832,0.014512,-0.014347,-0.000102,0.003252,-0.001858,0.071979,0.280245,-0.957226
1762617132.621234,-0.132499,0.062191,-0.184041,0.971959,-0.008502,0.012225,-0.017729,0.000461,0.002887,-0.000783,0.072124,0.280458,-0.957153
1762617132.623096,-0.132589,0.062308,-0.184231,0.971904,-0.008572,0.013568,-0.018370,0.000976,0.001799,-0.000239,0.072261,0.280686,-0.957075
1762617132.654453,-0.132691,0.062436,-0.184431,0.971844,-0.006484,0.013429,-0.018280,0.001525,-0.000034,-0.001105,0.072411,0.280941,-0.956990
1762617132.683637,-0.132741,0.062567,-0.184651,0.971787,-0.000924,0.015188,-0.020858,0.001482,-0.001985,0.001385,0.072582,0.281098,-0.956930
1762617132.685095,-0.132709,0.062668,-0.184916,0.971734,0.005706,0.015350,-0.026941,0.000579,-0.002931,0.000273,0.072714,0.281092,-0.956922
1762617132.714956,-0.132641,0.062812,-0.185235,0.971673,0.008085,0.024019,-0.031614,-0.000652,-0.004313,-0.000682,0.072927,0.281038,-0.956922
1762617132.719528,-0.132532,0.063020,-0.185634,0.971598,0.010122,0.029861,-0.042482,-0.002421,-0.004898,-0.000868,0.073256,0.280934,-0.956927
1762617132.779287,-0.132391,0.063294,-0.186200,0.971492,0.007921,0.033397,-0.047940,-0.003115,-0.003100,-0.000275,0.073676,0.280804,-0.956933
1762617132.779699,-0.132250,0.063567,-0.186765,0.971384,0.005720,0.036934,-0.053398,-0.003809,-0.001303,0.000317,0.074097,0.280676,-0.956938
1762617132.780257,-0.132160,0.063828,-0.187333,0.971270,0.001999,0.037631,-0.047887,-0.003276,0.001302,-0.000629,0.074472,0.280640,-0.956920
1762617132.810604,-0.132075,0.064105,-0.187824,0.971169,0.002618,0.034629,-0.036090,-0.002162,0.002511,0.001155,0.074899,0.280616,-0.956893
1762617132.818986,-0.131967,0.064314,-0.188182,0.971100,0.004197,0.028669,-0.026653,-0.000350,0.003846,-0.000808,0.075244,0.280512,-0.956897
1762617132.852562,-0.131910,0.064527,-0.188446,0.971043,-0.001671,0.032641,-0.015008,0.001387,0.005357,-0.001931,0.075601,0.280501,-0.956872
1762617132.882237,-0.131937,0.064818,-0.188578,0.970994,-0.012276,0.030145,-0.006311,0.001524,0.001882,0.000193,0.076115,0.280666,-0.956783
1762617132.882545,-0.132043,0.065055,-0.188709,0.970938,-0.013128,0.015938,-0.013086,0.001907,-0.000520,0.004466,0.076494,0.280965,-0.956665
1762617132.911122,-0.132198,0.065137,-0.188847,0.970885,-0.013925,0.006807,-0.012468,0.005484,-0.000922,0.001759,0.076550,0.281300,-0.956562
1762617132.941728,-0.132305,0.065233,-0.189028,0.970829,-0.003624,0.010728,-0.023377,0.008301,-0.001101,-0.003693,0.076641,0.281553,-0.956480
1762617132.943437,-0.132344,0.065364,-0.189288,0.970764,-0.006750,0.021675,-0.024462,0.007724,0.003283,-0.005169,0.076803,0.281696,-0.956425
1762617132.972499,-0.132424,0.065636,-0.189497,0.970694,-0.017016,0.022223,-0.016130,0.004584,0.006897,0.000331,0.077237,0.281961,-0.956312
1762617132.978603,-0.132612,0.065830,-0.189643,0.970626,-0.027028,0.010556,-0.016362,0.002899,0.005913,0.000139,0.077495,0.282403,-0.956161
1762617133.008138,-0.132872,0.065956,-0.189796,0.970552,-0.035970,0.005708,-0.017199,0.003427,0.005109,-0.000566,0.077590,0.282956,-0.955989
1762617133.039915,-0.133253,0.066114,-0.189925,0.970464,-0.043116,0.004914,-0.016471,0.001849,0.004077,0.000993,0.077706,0.283747,-0.955745
1762617133.040373,-0.133707,0.066228,-0.190041,0.970371,-0.045439,0.002665,-0.015992,0.001780,0.001732,0.001807,0.077711,0.284663,-0.955473
1762617133.079333,-0.134165,0.066314,-0.190177,0.970276,-0.040412,-0.000230,-0.018128,0.001423,-0.000410,0.001727,0.077656,0.285576,-0.955205
1762617133.081055,-0.134572,0.066399,-0.190347,0.970180,-0.034241,0.003319,-0.019424,0.000435,-0.000989,-0.000123,0.077608,0.286396,-0.954963
1762617133.110525,-0.134895,0.066490,-0.190570,0.970085,-0.027794,0.012150,-0.021383,0.000630,0.000761,-0.000456,0.077588,0.287062,-0.954765
1762617133.140581,-0.135132,0.066620,-0.190748,0.970008,-0.019850,0.008656,-0.015958,-0.001441,0.002176,0.002403,0.077692,0.287574,-0.954602
1762617133.142304,-0.135260,0.066684,-0.190864,0.969963,-0.007368,-0.000227,-0.009461,-0.003255,0.002200,0.000901,0.077730,0.287850,-0.954516
1762617133.177990,-0.135248,0.066678,-0.190948,0.969949,0.003553,0.003007,-0.006293,-0.000323,0.002745,-0.001690,0.077698,0.287832,-0.954524
1762617133.179744,-0.135175,0.066699,-0.190987,0.969950,0.003453,0.004898,0.000159,0.000684,0.003895,-0.003638,0.077756,0.287703,-0.954558
1762617133.207578,-0.135132,0.066750,-0.190956,0.969958,0.004588,0.003496,0.006392,-0.001017,0.002410,0.000429,0.077881,0.287638,-0.954567
1762617133.238714,-0.135072,0.066736,-0.190946,0.969970,0.010727,0.001051,0.001375,-0.000529,0.000994,0.000994,0.077881,0.287517,-0.954604
1762617133.239379,-0.134985,0.066699,-0.190981,0.969978,0.012077,-0.004841,-0.003920,-0.000555,0.001829,0.001538,0.077833,0.287341,-0.954661
1762617133.270582,-0.134933,0.066649,-0.191030,0.969979,0.005792,-0.000482,-0.004848,0.000080,0.002829,-0.000727,0.077744,0.287228,-0.954702
1762617133.277490,-0.134953,0.066654,-0.191107,0.969960,-0.003627,0.001788,-0.008006,0.001024,0.003875,-0.000696,0.077722,0.287275,-0.954690
1762617133.307707,-0.135034,0.066671,-0.191203,0.969929,-0.011642,0.005004,-0.009175,0.001744,0.002843,-0.001834,0.077695,0.287443,-0.954641
1762617133.337136,-0.135173,0.066754,-0.191296,0.969886,-0.014116,0.008701,-0.008800,0.002943,0.001688,-0.001677,0.077772,0.287744,-0.954544
1762617133.337431,-0.135328,0.066870,-0.191410,0.969833,-0.015084,0.010148,-0.008653,0.003146,0.000437,-0.001616,0.077899,0.288090,-0.954430
1762617133.379210,-0.135474,0.067031,-0.191546,0.969775,-0.015723,0.015254,-0.013136,0.004598,-0.000508,-0.003068,0.078111,0.288437,-0.954307
1762617133.381088,-0.135622,0.067212,-0.191762,0.969699,-0.020007,0.020381,-0.022506,0.003135,0.001136,-0.002762,0.078337,0.288802,-0.954179
1762617133.412937,-0.135808,0.067442,-0.192031,0.969604,-0.025899,0.023787,-0.028582,0.002274,0.002765,-0.002737,0.078626,0.289262,-0.954015
1762617133.416316,-0.136049,0.067696,-0.192343,0.969491,-0.030307,0.020452,-0.027599,0.002082,0.002004,0.001227,0.078926,0.289838,-0.953816
1762617133.445188,-0.136294,0.067914,-0.192611,0.969388,-0.029458,0.014731,-0.028324,0.001387,0.002362,0.003922,0.079168,0.290405,-0.953623
1762617133.487018,-0.136545,0.067944,-0.192753,0.969322,-0.022810,0.002870,-0.016848,0.000726,0.002892,0.003669,0.079081,0.290906,-0.953478
1762617133.487197,-0.136797,0.067974,-0.192895,0.969256,-0.016161,-0.008992,-0.005373,0.000066,0.003421,0.003415,0.078994,0.291407,-0.953332
1762617133.524249,-0.136962,0.067884,-0.192872,0.969244,-0.010356,-0.020034,0.005041,-0.000199,0.002732,0.001633,0.078760,0.291686,-0.953266
1762617133.526114,-0.137078,0.067723,-0.192762,0.969261,-0.005048,-0.021697,0.011107,0.000489,0.000854,0.000720,0.078435,0.291838,-0.953246
1762617133.554613,-0.137173,0.067572,-0.192620,0.969286,-0.002459,-0.014402,0.010517,0.001048,-0.000864,0.000466,0.078149,0.291952,-0.953235
1762617133.556376,-0.137210,0.067456,-0.192528,0.969307,0.001220,-0.012505,0.000339,0.001582,-0.004335,0.000559,0.077938,0.291971,-0.953246
1762617133.586645,-0.137266,0.067329,-0.192575,0.969299,-0.001335,-0.007742,-0.010424,0.002114,-0.003047,-0.003830,0.077657,0.292035,-0.953250
1762617133.623193,-0.137331,0.067326,-0.192687,0.969267,-0.007166,-0.000691,-0.013776,-0.000540,-0.001158,-0.001218,0.077590,0.292167,-0.953215
1762617133.625477,-0.137426,0.067310,-0.192822,0.969228,-0.010504,-0.009435,-0.015521,-0.003038,-0.000857,0.003920,0.077479,0.292352,-0.953167
1762617133.679309,-0.137567,0.067160,-0.192859,0.969211,-0.012936,-0.009809,-0.007656,-0.001035,-0.000802,-0.000673,0.077123,0.292568,-0.953129
1762617133.679781,-0.137708,0.067011,-0.192897,0.969194,-0.015368,-0.010183,0.000209,0.000968,-0.000747,-0.005267,0.076766,0.292784,-0.953092
1762617133.681093,-0.137857,0.067018,-0.192882,0.969175,-0.021204,0.004989,0.000768,0.002697,-0.000140,-0.007748,0.076723,0.293068,-0.953008
1762617133.710199,-0.138105,0.067205,-0.192856,0.969132,-0.038584,0.021215,0.003380,0.001269,-0.000138,-0.004601,0.076992,0.293605,-0.952821
1762617133.716138,-0.138532,0.067469,-0.192854,0.969053,-0.049641,0.016021,-0.006320,-0.001331,-0.003107,-0.000959,0.077330,0.294513,-0.952513
1762617133.746347,-0.139022,0.067633,-0.193007,0.968941,-0.054285,0.004211,-0.026235,-0.001069,-0.000962,-0.000453,0.077400,0.295516,-0.952197
1762617133.776205,-0.139550,0.067714,-0.193264,0.968808,-0.058963,0.001714,-0.028022,-0.000676,0.004779,-0.000026,0.077263,0.296567,-0.951881
1762617133.776432,-0.140121,0.067823,-0.193475,0.968676,-0.057455,0.003366,-0.019493,-0.000829,0.005626,0.003238,0.077178,0.297707,-0.951532
1762617133.804919,-0.140586,0.067892,-0.193600,0.968579,-0.039426,-0.000937,-0.012527,-0.000932,0.003657,0.004110,0.077082,0.298626,-0.951252
1762617133.848196,-0.140750,0.067872,-0.193662,0.968544,-0.020070,-0.004185,-0.010120,-0.000150,0.003228,0.001989,0.076959,0.298933,-0.951166
1762617133.848407,-0.140913,0.067853,-0.193724,0.968509,-0.000714,-0.007433,-0.007712,0.000631,0.002800,-0.000133,0.076836,0.299241,-0.951079
1762617133.878073,-0.140946,0.067856,-0.193811,0.968487,0.006022,-0.001114,-0.005485,0.000895,0.002184,0.002215,0.076802,0.299311,-0.951060
1762617133.879825,-0.140949,0.067794,-0.193891,0.968475,0.004813,-0.006825,-0.006611,-0.000836,0.001184,0.000609,0.076657,0.299301,-0.951074
1762617133.908591,-0.140944,0.067670,-0.193969,0.968469,0.006481,-0.008681,-0.011162,0.003684,0.000033,-0.004489,0.076394,0.299252,-0.951111
1762617133.916247,-0.140907,0.067622,-0.194049,0.968461,0.003162,-0.001538,-0.005763,0.003519,0.000683,-0.005341,0.076293,0.299169,-0.951145
1762617133.946476,-0.140906,0.067709,-0.194103,0.968445,-0.002314,0.010856,0.001313,0.001104,0.002163,-0.001143,0.076444,0.299204,-0.951122
1762617133.981590,-0.140889,0.067775,-0.194137,0.968436,0.004112,0.000377,-0.003983,-0.000557,0.000152,0.003965,0.076568,0.299198,-0.951114
1762617133.981862,-0.140863,0.067762,-0.194187,0.968430,-0.000000,-0.001245,-0.003378,0.000743,0.001143,0.001956,0.076537,0.299150,-0.951132
1762617134.009903,-0.140871,0.067783,-0.194229,0.968419,-0.004441,0.001042,-0.003760,0.000619,0.001694,0.001137,0.076561,0.299175,-0.951122
1762617134.013897,-0.140916,0.067794,-0.194267,0.968404,-0.003197,-0.001903,-0.004177,0.000367,0.001490,0.001284,0.076554,0.299267,-0.951093
1762617134.042313,-0.140950,0.067785,-0.194305,0.968392,-0.001426,-0.002454,-0.003242,0.000412,0.001374,0.000456,0.076509,0.299332,-0.951076
1762617134.072985,-0.140982,0.067767,-0.194342,0.968382,-0.002452,0.000728,-0.002428,0.001721,0.002786,-0.000617,0.076452,0.299388,-0.951064
1762617134.074924,-0.141009,0.067787,-0.194380,0.968369,-0.000791,0.003067,-0.003704,0.001727,0.003440,-0.001981,0.076467,0.299451,-0.951043
1762617134.103632,-0.141034,0.067860,-0.194418,0.968352,-0.002433,0.005579,-0.003671,0.001655,0.003222,-0.002905,0.076586,0.299528,-0.951009
1762617134.134281,-0.141057,0.067952,-0.194457,0.968335,-0.000683,0.009472,-0.003453,0.001642,0.004087,-0.001455,0.076741,0.299609,-0.950971
1762617134.136042,-0.141040,0.068067,-0.194512,0.968318,0.003901,0.008568,-0.007210,0.001180,0.002168,0.001371,0.076952,0.299623,-0.950949
1762617134.164787,-0.140959,0.068081,-0.194598,0.968311,0.012513,0.004962,-0.008194,0.000844,0.002507,0.001368,0.076986,0.299482,-0.950991
1762617134.195466,-0.140799,0.068050,-0.194685,0.968319,0.021065,0.000900,-0.006629,0.000441,0.001769,0.001366,0.076966,0.299174,-0.951089
1762617134.197356,-0.140603,0.067991,-0.194761,0.968337,0.025581,-0.002935,-0.003896,-0.000223,0.002164,0.001711,0.076909,0.298786,-0.951216
1762617134.229783,-0.140366,0.067923,-0.194796,0.968369,0.025245,-0.004586,-0.000474,-0.000002,0.001197,0.001037,0.076863,0.298315,-0.951367
1762617134.234522,-0.140148,0.067822,-0.194789,0.968409,0.025332,-0.008094,0.001803,-0.000001,0.000411,0.000356,0.076759,0.297863,-0.951518
1762617134.279387,-0.139945,0.067722,-0.194781,0.968447,0.018292,-0.005982,0.002255,-0.000640,0.001315,-0.001876,0.076653,0.297440,-0.951659
1762617134.294219,-0.139841,0.067697,-0.194767,0.968467,0.007113,0.001504,0.002571,0.000421,0.001676,-0.001986,0.076651,0.297232,-0.951724
1762617134.294467,-0.139842,0.067752,-0.194748,0.968466,-0.003619,0.002526,-0.000154,0.000143,0.000570,-0.000675,0.076764,0.297253,-0.951708
1762617134.322223,-0.139943,0.067785,-0.194775,0.968444,-0.012285,0.001666,-0.006416,0.000352,-0.001831,-0.001931,0.076778,0.297460,-0.951642
1762617134.352929,-0.140108,0.067831,-0.194893,0.968393,-0.015659,0.005383,-0.014367,-0.000032,-0.001531,-0.001556,0.076761,0.297800,-0.951537
1762617134.354853,-0.140287,0.067867,-0.195029,0.968337,-0.017731,0.002115,-0.012332,-0.000654,-0.001751,0.000831,0.076716,0.298163,-0.951427
1762617134.383541,-0.140449,0.067841,-0.195172,0.968287,-0.011839,-0.009890,-0.014739,-0.000966,-0.000339,0.001082,0.076555,0.298470,-0.951344
1762617134.414307,-0.140529,0.067757,-0.195283,0.968259,-0.003679,-0.003397,-0.006742,0.000655,-0.002859,-0.002611,0.076326,0.298600,-0.951321
1762617134.416733,-0.140475,0.067722,-0.195350,0.968256,0.011416,0.007283,-0.010987,0.003801,-0.004081,-0.007627,0.076260,0.298490,-0.951361
1762617134.446111,-0.140289,0.067882,-0.195475,0.968246,0.011759,0.029909,-0.004731,0.004314,0.000062,-0.005405,0.076607,0.298208,-0.951422
1762617134.476967,-0.140167,0.068207,-0.195563,0.968223,0.001296,0.037061,0.001361,0.000931,-0.000304,0.000492,0.077257,0.298103,-0.951402
1762617134.477850,-0.140130,0.068474,-0.195647,0.968193,-0.003767,0.019488,-0.009935,-0.000267,-0.000887,0.001989,0.077759,0.298140,-0.951350
1762617134.515461,-0.140159,0.068617,-0.195803,0.968147,-0.013419,0.012443,-0.018586,0.001037,0.000800,0.000302,0.077975,0.298261,-0.951294
1762617134.517332,-0.140258,0.068757,-0.195982,0.968086,-0.019802,0.016081,-0.015637,0.001439,0.003323,-0.000355,0.078150,0.298515,-0.951200
1762617134.580227,-0.140378,0.068907,-0.196099,0.968034,-0.012944,0.011149,-0.009586,0.000980,0.003996,0.000552,0.078353,0.298808,-0.951091
1762617134.580585,-0.140499,0.069057,-0.196217,0.967983,-0.006087,0.006217,-0.003535,0.000522,0.004668,0.001459,0.078555,0.299100,-0.950983
1762617134.581071,-0.140540,0.069181,-0.196230,0.967965,0.001116,0.004915,0.002967,-0.000836,0.003323,0.001646,0.078773,0.299226,-0.950925
1762617134.636337,-0.140454,0.069229,-0.196277,0.967964,0.005929,0.004707,-0.000905,-0.000406,0.002537,0.001533,0.078886,0.299086,-0.950960
1762617134.637304,-0.140369,0.069277,-0.196325,0.967964,0.010741,0.004498,-0.004777,0.000024,0.001751,0.001419,0.079000,0.298946,-0.950994
1762617134.637758,-0.140315,0.069262,-0.196407,0.967956,0.010100,-0.007695,-0.008608,-0.000175,0.001613,-0.000576,0.078968,0.298844,-0.951029
1762617134.666901,-0.140259,0.069201,-0.196554,0.967939,0.008350,0.006750,-0.014801,0.004804,0.001873,-0.005219,0.078827,0.298728,-0.951077
1762617134.674196,-0.140175,0.069307,-0.196699,0.967914,0.005917,0.015962,-0.013482,0.004904,0.001457,-0.003093,0.079021,0.298619,-0.951095
1762617134.705638,-0.140121,0.069491,-0.196829,0.967882,0.006341,0.017494,-0.006119,0.001502,0.001967,0.002281,0.079358,0.298596,-0.951074
1762617134.734877,-0.140034,0.069535,-0.196954,0.967866,0.008365,0.000419,-0.007401,-0.000363,0.005375,0.006577,0.079441,0.298459,-0.951110
1762617134.736336,-0.139933,0.069492,-0.196997,0.967875,0.007857,-0.004608,-0.000330,0.001094,0.008774,0.000462,0.079386,0.298255,-0.951179
1762617134.766026,-0.139848,0.069460,-0.196973,0.967894,0.008797,-0.007558,0.001174,-0.000910,0.015670,-0.005015,0.079368,0.298080,-0.951236
1762617134.771905,-0.139761,0.069322,-0.196980,0.967915,0.011532,-0.015292,-0.009186,-0.001524,0.029860,-0.016955,0.079135,0.297863,-0.951323
1762617134.802890,-0.139787,0.069123,-0.197111,0.967899,0.001753,-0.015155,-0.020934,-0.001688,0.047341,-0.029046,0.078702,0.297849,-0.951363
1762617134.879287,-0.139929,0.069161,-0.197364,0.967824,0.008518,-0.004722,-0.017289,-0.006439,0.059234,-0.024930,0.078638,0.298153,-0.951273
1762617134.879629,-0.140072,0.069199,-0.197618,0.967749,0.015282,0.005711,-0.013644,-0.011190,0.071128,-0.020814,0.078574,0.298458,-0.951183
1762617134.880514,-0.140214,0.069237,-0.197871,0.967674,0.022046,0.016144,-0.010000,-0.015941,0.083022,-0.016698,0.078509,0.298763,-0.951093
1762617134.880988,-0.140020,0.069090,-0.198014,0.967683,0.055346,-0.016317,-0.007158,-0.016856,0.095093,-0.019164,0.078263,0.298353,-0.951242
1762617134.912156,-0.139561,0.068777,-0.198076,0.967759,0.077582,-0.027263,0.006306,-0.015795,0.110500,-0.026133,0.077832,0.297368,-0.951585
1762617134.912421,-0.138954,0.068412,-0.197955,0.967897,0.085478,-0.015786,0.024461,-0.014505,0.117919,-0.024352,0.077419,0.296071,-0.952023
1762617134.940933,-0.138194,0.068115,-0.197677,0.968084,0.107053,-0.029872,0.036732,-0.016790,0.114450,-0.010760,0.077247,0.294496,-0.952526
1762617134.974215,-0.137300,0.067566,-0.197393,0.968307,0.131005,-0.046035,0.026120,-0.017095,0.110731,-0.009872,0.076645,0.292572,-0.953167
1762617134.975173,-0.136304,0.066752,-0.197190,0.968546,0.141579,-0.070367,0.016568,-0.016179,0.114889,-0.018037,0.075549,0.290360,-0.953931
1762617135.005185,-0.135354,0.065851,-0.196967,0.968786,0.128337,-0.062026,0.037834,-0.011251,0.119173,-0.020413,0.074271,0.288200,-0.954686
1762617135.013655,-0.134539,0.065133,-0.196339,0.969076,0.111669,-0.052284,0.089999,-0.008582,0.104723,-0.007400,0.073408,0.286334,-0.955314
1762617135.043836,-0.133780,0.064553,-0.195288,0.969432,0.108441,-0.064309,0.126273,-0.011946,0.084371,0.015332,0.072908,0.284594,-0.955872
1762617135.074198,-0.133107,0.063871,-0.193900,0.969848,0.108391,-0.063085,0.149776,-0.008185,0.058272,0.023831,0.072271,0.282956,-0.956406
1762617135.074462,-0.132428,0.063266,-0.192416,0.970276,0.123989,-0.072018,0.141846,-0.006814,0.033495,0.034640,0.071809,0.281330,-0.956921
1762617135.102194,-0.131720,0.062561,-0.191150,0.970668,0.127012,-0.051468,0.116360,-0.002935,0.020918,0.028744,0.071095,0.279630,-0.957472
1762617135.132952,-0.131050,0.062098,-0.190143,0.970987,0.125083,-0.031069,0.092866,-0.003000,0.010395,0.038057,0.070755,0.278110,-0.957940
1762617135.133819,-0.130318,0.061645,-0.189477,0.971244,0.131575,-0.040833,0.057108,-0.002871,0.007266,0.039817,0.070360,0.276502,-0.958434
1762617135.180722,-0.129399,0.061257,-0.188950,0.971494,0.136828,-0.011732,0.063492,-0.001067,-0.002512,0.043031,0.070122,0.274571,-0.959007
1762617135.181601,-0.128066,0.060924,-0.188320,0.971814,0.182526,-0.029422,0.068455,-0.001942,-0.019390,0.046441,0.070180,0.271860,-0.959774
1762617135.212532,-0.126121,0.060234,-0.187825,0.972207,0.248681,-0.039724,0.054345,0.003383,-0.025592,0.033891,0.069742,0.267858,-0.960931
1762617135.214886,-0.123522,0.059439,-0.187440,0.972664,0.312403,-0.038882,0.048965,0.011099,-0.023194,0.024031,0.069322,0.262574,-0.962418
1762617135.248015,-0.120373,0.058663,-0.187169,0.973158,0.355755,-0.008477,0.046771,0.015690,-0.018606,0.014875,0.069117,0.256244,-0.964138
1762617135.250089,-0.116786,0.058206,-0.186773,0.973699,0.375359,0.031116,0.081807,0.007160,-0.018727,0.023359,0.069726,0.249171,-0.965946
1762617135.279901,-0.112851,0.057922,-0.186096,0.974309,0.417828,0.032109,0.109982,-0.000926,-0.030995,0.035052,0.070865,0.241461,-0.967820
1762617135.294702,-0.108337,0.057504,-0.185290,0.974999,0.490365,0.011148,0.117230,-0.005054,-0.045364,0.036609,0.071986,0.232567,-0.969913
1762617135.324608,-0.103130,0.056839,-0.184444,0.975763,0.564782,0.006111,0.121471,-0.005239,-0.054438,0.025861,0.072880,0.222229,-0.972267
1762617135.354203,-0.097299,0.056015,-0.183580,0.976572,0.625340,0.017717,0.127098,-0.002609,-0.060496,0.017890,0.073681,0.210605,-0.974791
1762617135.354496,-0.090926,0.055188,-0.182691,0.977400,0.666091,0.029829,0.129865,-0.003008,-0.060224,0.012873,0.074659,0.197907,-0.977374
1762617135.383150,-0.084251,0.054463,-0.181803,0.978204,0.667948,0.043716,0.135752,-0.003507,-0.056334,0.016809,0.075918,0.184633,-0.979871
1762617135.413774,-0.077672,0.053764,-0.180785,0.978976,0.641960,0.034182,0.151235,-0.004293,-0.058211,0.015911,0.077183,0.171517,-0.982153
1762617135.416024,-0.071345,0.053152,-0.179667,0.979696,0.605778,0.051842,0.152052,-0.001639,-0.065496,0.007794,0.078510,0.158892,-0.984169
1762617135.480703,-0.065675,0.052761,-0.178576,0.980313,0.557519,0.057181,0.143755,0.001632,-0.072215,0.004646,0.079989,0.147607,-0.985806
1762617135.481036,-0.060002,0.052367,-0.177478,0.980897,0.509261,0.062521,0.135458,0.004935,-0.078912,0.001370,0.081436,0.136300,-0.987315
1762617135.481334,-0.054935,0.052199,-0.176579,0.981365,0.458762,0.073280,0.111690,0.007907,-0.081955,-0.000679,0.083053,0.126256,-0.988515
1762617135.517705,-0.050361,0.052251,-0.175840,0.981740,0.398091,0.102528,0.092631,0.010646,-0.081816,-0.010702,0.084883,0.117258,-0.989467
1762617135.517988,-0.046286,0.052566,-0.175261,0.982027,0.342556,0.091522,0.074226,0.004827,-0.074802,-0.006057,0.087019,0.109334,-0.990189
1762617135.545936,-0.042766,0.052767,-0.174804,0.982258,0.265468,0.073015,0.062568,0.005785,-0.063063,-0.018259,0.088709,0.102462,-0.990774
1762617135.552061,-0.040068,0.053023,-0.174240,0.982458,0.175731,0.053675,0.077313,0.007310,-0.052865,-0.019621,0.090223,0.097208,-0.991166
1762617135.581908,-0.038188,0.053341,-0.173554,0.982637,0.087184,0.066923,0.073466,0.012790,-0.049169,-0.020801,0.091573,0.093566,-0.991393
1762617135.612430,-0.037194,0.053794,-0.172836,0.982777,-0.000372,0.052087,0.078992,0.012384,-0.044899,-0.012793,0.092878,0.091702,-0.991446
1762617135.614688,-0.037038,0.054443,-0.172031,0.982888,-0.070520,0.059605,0.080909,0.013129,-0.052674,-0.005979,0.094279,0.091540,-0.991328
1762617135.644532,-0.037407,0.055149,-0.171291,0.982964,-0.092711,0.067204,0.051540,0.015461,-0.065119,-0.005420,0.095604,0.092432,-0.991119
1762617135.674421,-0.037814,0.055977,-0.171021,0.982949,-0.086112,0.061881,-0.006755,0.012467,-0.066635,0.010170,0.097110,0.093486,-0.990873
1762617135.674693,-0.038199,0.056559,-0.171303,0.982852,-0.078538,0.043442,-0.053353,0.014162,-0.058652,0.011566,0.098092,0.094465,-0.990684
1762617135.703810,-0.038538,0.057112,-0.171948,0.982694,-0.077791,0.051038,-0.079687,0.016536,-0.053438,0.002172,0.098994,0.095382,-0.990506
1762617135.710786,-0.038681,0.057727,-0.172876,0.982489,-0.048110,0.047526,-0.115017,0.013794,-0.053710,0.007158,0.100058,0.095966,-0.990343
1762617135.740724,-0.038477,0.058104,-0.174203,0.982241,-0.009920,0.034276,-0.154236,0.014482,-0.043897,0.001352,0.100738,0.095831,-0.990287
1762617135.781881,-0.038057,0.058451,-0.175832,0.981946,-0.002558,0.036111,-0.158030,0.011617,-0.026821,0.001373,0.101408,0.095294,-0.990270
1762617135.782130,-0.037636,0.058798,-0.177461,0.981649,0.004805,0.037947,-0.161824,0.008749,-0.009747,0.001393,0.102079,0.094759,-0.990253
1762617135.812589,-0.037251,0.059045,-0.179027,0.981364,0.001222,0.024881,-0.148215,0.007929,-0.002704,0.002821,0.102552,0.094254,-0.990252
1762617135.816157,-0.036953,0.059229,-0.180368,0.981119,0.006159,0.017461,-0.122658,0.009649,-0.004880,0.002615,0.102890,0.093877,-0.990253
1762617135.851467,-0.036549,0.059354,-0.181445,0.980928,0.040574,0.011116,-0.098346,0.007233,-0.007769,0.005410,0.103180,0.093243,-0.990283
1762617135.851696,-0.035885,0.059290,-0.182373,0.980784,0.078765,-0.001483,-0.075618,0.002802,-0.000045,0.003503,0.103212,0.092017,-0.990394
1762617135.879293,-0.035107,0.059114,-0.182960,0.980713,0.079124,-0.010441,-0.028773,0.001510,0.010183,0.002058,0.103101,0.090491,-0.990546
1762617135.910045,-0.034425,0.058953,-0.183042,0.980732,0.059621,-0.006131,0.017496,0.004232,0.008900,-0.000292,0.103032,0.089106,-0.990679
1762617135.911266,-0.033921,0.058902,-0.182738,0.980809,0.038139,0.000483,0.044974,0.004072,-0.000544,0.000002,0.103146,0.088067,-0.990760
1762617135.941705,-0.033540,0.058880,-0.182290,0.980907,0.038433,-0.008596,0.035906,0.004433,-0.013480,0.000133,0.103284,0.087266,-0.990816
1762617135.970592,-0.033253,0.058694,-0.182110,0.980961,0.034989,-0.019558,0.009090,0.005270,-0.011264,-0.003187,0.103041,0.086616,-0.990899
1762617135.972476,-0.033135,0.058504,-0.182070,0.980984,0.014553,-0.031203,0.006576,0.001404,-0.005494,0.002089,0.102718,0.086313,-0.990959
1762617136.001720,-0.033216,0.058207,-0.181944,0.981022,-0.009846,-0.030777,0.014604,0.000711,-0.005872,-0.001366,0.102118,0.086353,-0.991017
1762617136.095317,-0.033206,0.057941,-0.181678,0.981088,-0.006881,-0.024190,0.017522,-0.000171,-0.006126,-0.002867,0.101625,0.086208,-0.991080
1762617136.095734,-0.033195,0.057675,-0.181411,0.981153,-0.003916,-0.017603,0.020440,-0.001053,-0.006382,-0.004368,0.101133,0.086064,-0.991143
1762617136.096049,-0.033184,0.057409,-0.181144,0.981218,-0.000951,-0.011017,0.023358,-0.001936,-0.006637,-0.005869,0.100640,0.085919,-0.991206
1762617136.096464,-0.033173,0.057143,-0.180878,0.981284,0.002014,-0.004430,0.026275,-0.002818,-0.006893,-0.007370,0.100148,0.085775,-0.991268
1762617136.096803,-0.033183,0.057098,-0.180636,0.981330,-0.011576,-0.008238,0.015313,-0.006267,-0.005878,-0.000717,0.100076,0.085756,-0.991277
1762617136.128745,-0.033348,0.056945,-0.180580,0.981344,-0.030673,-0.012755,-0.004604,-0.003763,-0.005046,-0.007903,0.099722,0.086018,-0.991290
1762617136.129070,-0.033643,0.056889,-0.180619,0.981330,-0.041516,-0.007103,-0.014803,-0.003429,-0.004217,-0.006901,0.099500,0.086580,-0.991264
1762617136.156728,-0.033997,0.056845,-0.180797,0.981288,-0.039333,-0.006229,-0.026144,-0.005438,0.000045,-0.000688,0.099270,0.087277,-0.991226
1762617136.187784,-0.034359,0.056766,-0.181036,0.981235,-0.037947,-0.015388,-0.023742,-0.006189,0.006191,0.003122,0.098960,0.087983,-0.991194
1762617136.189025,-0.034805,0.056653,-0.181192,0.981197,-0.049948,-0.008810,-0.010278,-0.005648,0.010166,0.000141,0.098563,0.088831,-0.991158
1762617136.220833,-0.035362,0.056614,-0.181217,0.981175,-0.066304,-0.011873,-0.002621,-0.003970,0.012801,-0.001460,0.098281,0.089912,-0.991089
1762617136.249711,-0.036109,0.056720,-0.181154,0.981154,-0.088317,0.003824,0.005263,-0.001215,0.009171,-0.000144,0.098219,0.091407,-0.990958
1762617136.251197,-0.037034,0.056897,-0.181090,0.981121,-0.099733,0.011754,-0.003010,-0.002906,0.005723,-0.001170,0.098232,0.093277,-0.990782
1762617136.280731,-0.037991,0.057037,-0.181133,0.981068,-0.084250,0.001792,-0.017929,0.000895,0.004157,-0.003456,0.098152,0.095206,-0.990607
1762617136.293977,-0.038806,0.057199,-0.181334,0.980989,-0.074510,0.012386,-0.024103,0.002836,0.007449,-0.003410,0.098150,0.096881,-0.990445
1762617136.324152,-0.039479,0.057537,-0.181520,0.980908,-0.061663,0.028263,-0.023353,0.000956,0.011207,0.001604,0.098545,0.098338,-0.990262
1762617136.333204,-0.039973,0.057791,-0.181745,0.980832,-0.041692,0.013262,-0.025148,-0.000300,0.009994,0.003744,0.098837,0.099420,-0.990125
1762617136.377637,-0.040312,0.057946,-0.181942,0.980772,-0.028737,0.011767,-0.015423,0.002896,0.012611,0.004031,0.098996,0.100159,-0.990034
1762617136.379577,-0.040485,0.058079,-0.182083,0.980731,-0.007518,0.005274,-0.008017,0.002438,0.009502,0.003547,0.099177,0.100560,-0.989976
1762617136.407919,-0.040503,0.058175,-0.182176,0.980707,0.013499,0.005314,-0.003996,0.001815,0.006721,0.002361,0.099347,0.100639,-0.989950
1762617136.412074,-0.040332,0.058137,-0.182209,0.980711,0.030484,-0.004687,0.000388,0.001216,0.006882,0.001451,0.099333,0.100293,-0.989987
1762617136.439487,-0.040080,0.058076,-0.182219,0.980723,0.034877,-0.001251,0.006726,-0.000408,0.005674,0.002767,0.099307,0.099780,-0.990041
1762617136.470706,-0.039823,0.058015,-0.182115,0.980756,0.031733,-0.005020,0.013203,0.000750,0.005517,-0.000649,0.099293,0.099244,-0.990097
1762617136.472478,-0.039593,0.057980,-0.181985,0.980792,0.024911,-0.003720,0.015698,0.000423,0.002758,0.001508,0.099321,0.098768,-0.990141
1762617136.501753,-0.039454,0.057889,-0.181873,0.980823,0.012707,-0.005665,0.006798,-0.000098,-0.000556,-0.000794,0.099207,0.098452,-0.990184
1762617136.532351,-0.039486,0.057874,-0.181846,0.980828,-0.005540,-0.000769,0.000087,-0.000754,0.000135,-0.000282,0.099168,0.098507,-0.990183
1762617136.533733,-0.039698,0.057893,-0.181900,0.980808,-0.024069,0.001674,-0.009230,-0.000484,-0.001610,-0.006215,0.099122,0.098934,-0.990145
1762617136.563367,-0.040018,0.057967,-0.182028,0.980767,-0.035621,0.001281,-0.015611,-0.001459,-0.002788,-0.002983,0.099136,0.099599,-0.990077
1762617136.570780,-0.040382,0.058038,-0.182200,0.980716,-0.041004,0.001078,-0.018457,-0.001126,-0.002014,-0.003454,0.099122,0.100355,-0.990002
1762617136.600923,-0.040794,0.058152,-0.182392,0.980657,-0.042879,0.008388,-0.019501,-0.002265,0.000302,-0.002140,0.099173,0.101222,-0.989908
1762617136.629368,-0.041189,0.058339,-0.182560,0.980598,-0.041820,0.014034,-0.019695,-0.001170,0.000305,-0.000531,0.099375,0.102081,-0.989800
1762617136.630557,-0.041568,0.058430,-0.182740,0.980543,-0.037335,-0.002883,-0.020449,-0.003439,0.001720,0.002165,0.099394,0.102873,-0.989716
1762617136.678981,-0.041902,0.058431,-0.182861,0.980506,-0.034507,-0.004370,-0.008982,-0.000487,0.003823,0.001390,0.099259,0.103539,-0.989660
1762617136.680861,-0.042214,0.058369,-0.182909,0.980487,-0.023286,-0.011782,-0.003707,-0.002828,0.005773,0.001295,0.099017,0.104134,-0.989622
1762617136.712880,-0.042415,0.058242,-0.182841,0.980499,-0.015541,-0.018634,0.013276,-0.001921,0.006872,0.004876,0.098703,0.104474,-0.989618
1762617136.713343,-0.042556,0.058045,-0.182611,0.980547,-0.005605,-0.019168,0.027968,0.000991,0.004971,0.000329,0.098289,0.104656,-0.989640
1762617136.740514,-0.042594,0.057920,-0.182282,0.980614,0.006540,-0.015544,0.027444,-0.000699,0.002978,-0.000754,0.098066,0.104652,-0.989662
1762617136.771150,-0.042564,0.057708,-0.182032,0.980674,0.009134,-0.019815,0.025358,0.001860,0.007048,0.000996,0.097689,0.104493,-0.989716
1762617136.773332,-0.042565,0.057538,-0.181731,0.980740,0.009693,-0.023013,0.029733,-0.000601,0.006342,0.005541,0.097389,0.104404,-0.989755
1762617136.801719,-0.042530,0.057239,-0.181438,0.980813,0.014236,-0.038275,0.026147,-0.002373,0.006665,0.004961,0.096848,0.104198,-0.989830
1762617136.810744,-0.042487,0.056836,-0.181098,0.980902,0.005977,-0.025895,0.037265,0.002877,0.006690,-0.007594,0.096112,0.103938,-0.989929
1762617136.849961,-0.042492,0.056740,-0.180670,0.980986,0.003964,-0.001842,0.044965,0.003807,0.000047,-0.007693,0.095968,0.103871,-0.989950
1762617136.851332,-0.042376,0.056810,-0.180366,0.981043,0.018504,0.016700,0.017642,0.005980,-0.007200,-0.011163,0.096179,0.103639,-0.989954
1762617136.881219,-0.042195,0.057089,-0.180299,0.981047,0.015441,0.037465,-0.001533,0.002623,-0.005984,-0.005461,0.096798,0.103377,-0.989921
1762617136.910827,-0.042034,0.057474,-0.180448,0.981004,0.013529,0.034170,-0.030298,-0.001816,-0.005712,0.003066,0.097594,0.103214,-0.989860
1762617136.912554,-0.041941,0.057712,-0.180917,0.980907,0.004176,0.023278,-0.053491,0.000767,0.001742,0.004625,0.098045,0.103162,-0.989821
1762617136.944104,-0.041934,0.057895,-0.181448,0.980799,-0.016979,0.020698,-0.046226,0.003357,0.007130,0.000321,0.098350,0.103268,-0.989779
1762617136.979175,-0.042062,0.058063,-0.181769,0.980724,-0.015487,0.010679,-0.028602,0.001404,0.006670,0.002526,0.098597,0.103611,-0.989719
1762617136.979455,-0.042190,0.058232,-0.182090,0.980649,-0.013996,0.000659,-0.010977,-0.000548,0.006210,0.004732,0.098845,0.103954,-0.989658
1762617137.011806,-0.042278,0.058238,-0.182184,0.980627,-0.002520,-0.007148,-0.003773,-0.001018,0.002511,0.004062,0.098814,0.104139,-0.989642
1762617137.012252,-0.042402,0.058102,-0.182155,0.980635,-0.007264,-0.014804,0.002584,0.000849,0.006207,-0.004227,0.098507,0.104328,-0.989652
1762617137.040792,-0.042594,0.058095,-0.182070,0.980643,-0.020034,-0.002138,0.008138,0.000097,0.003431,-0.000780,0.098430,0.104693,-0.989622
1762617137.071306,-0.042884,0.058095,-0.182002,0.980643,-0.023941,-0.002002,0.006417,-0.001729,-0.000128,-0.001540,0.098331,0.105254,-0.989572
1762617137.072430,-0.043071,0.058014,-0.181995,0.980641,-0.009070,-0.005885,-0.009102,0.001343,-0.003638,-0.006341,0.098105,0.105591,-0.989559
1762617137.102492,-0.043159,0.058073,-0.182121,0.980610,0.001040,0.010737,-0.013475,0.000362,-0.001830,-0.004426,0.098173,0.105797,-0.989530
1762617137.107289,-0.043141,0.058299,-0.182294,0.980566,-0.003731,0.022756,-0.010794,-0.002713,0.005619,0.001018,0.098603,0.105860,-0.989480
1762617137.138389,-0.043191,0.058480,-0.182399,0.980533,-0.009542,0.015024,-0.009512,-0.003816,0.005066,0.002401,0.098928,0.106033,-0.989429
1762617137.168636,-0.043292,0.058619,-0.182457,0.980509,-0.015376,0.010574,-0.007529,-0.000253,0.002496,0.002098,0.099156,0.106287,-0.989379
1762617137.168947,-0.043392,0.058762,-0.182543,0.980481,-0.013336,0.012729,-0.008144,0.000422,0.000827,-0.001459,0.099389,0.106543,-0.989328
1762617137.196965,-0.043517,0.058891,-0.182664,0.980445,-0.004621,0.011476,-0.008063,0.000893,0.001719,-0.001961,0.099581,0.106846,-0.989276
1762617137.228952,-0.043534,0.058992,-0.182731,0.980425,0.003564,0.007714,-0.003184,0.000383,0.004542,0.001365,0.099764,0.106923,-0.989250
1762617137.230034,-0.043498,0.059055,-0.182695,0.980430,0.002687,0.006592,0.008093,0.004940,0.001503,-0.000318,0.099905,0.106871,-0.989241
1762617137.279925,-0.043429,0.059129,-0.182612,0.980444,0.006225,0.011525,0.008723,0.004984,-0.001239,-0.001730,0.100083,0.106754,-0.989236
1762617137.280198,-0.043338,0.059224,-0.182592,0.980446,0.004093,0.004226,-0.002123,0.004726,-0.000890,0.001039,0.100305,0.106609,-0.989229
1762617137.328124,-0.043423,0.059275,-0.182737,0.980412,-0.004131,0.003027,-0.013870,0.004078,-0.001334,0.001162,0.100359,0.106808,-0.989202
1762617137.328454,-0.043507,0.059327,-0.182881,0.980378,-0.012355,0.001827,-0.025617,0.003430,-0.001777,0.001285,0.100413,0.107007,-0.989175
1762617137.328708,-0.043658,0.059389,-0.183176,0.980313,-0.015903,-0.006398,-0.028329,0.001749,-0.001301,0.001029,0.100446,0.107355,-0.989134
1762617137.365246,-0.043832,0.059334,-0.183453,0.980257,-0.013845,-0.015925,-0.027865,-0.000367,0.002578,0.003576,0.100243,0.107703,-0.989116
1762617137.365586,-0.044009,0.059180,-0.183677,0.980216,-0.016088,-0.021411,-0.010795,-0.000718,0.006926,0.001233,0.099852,0.108016,-0.989122
1762617137.405029,-0.044235,0.059006,-0.183685,0.980215,-0.022292,-0.020117,-0.002324,0.000498,0.003200,0.001351,0.099427,0.108397,-0.989123
1762617137.407650,-0.044456,0.058895,-0.183703,0.980208,-0.016533,-0.020839,-0.008882,0.000865,0.000112,0.000298,0.099125,0.108791,-0.989110
1762617137.436550,-0.044614,0.058664,-0.183811,0.980195,-0.007876,-0.021009,-0.013377,-0.001043,0.001040,-0.002045,0.098604,0.109026,-0.989136
1762617137.467355,-0.044780,0.058484,-0.183912,0.980179,-0.005112,-0.015172,-0.012690,-0.000445,0.005387,-0.004262,0.098178,0.109297,-0.989149
1762617137.469473,-0.044885,0.058405,-0.183984,0.980165,-0.003549,-0.004601,-0.000508,-0.001623,0.003074,-0.002708,0.097977,0.109481,-0.989148
1762617137.498357,-0.044917,0.058406,-0.183973,0.980166,-0.002667,0.004126,0.000606,-0.000318,0.002330,-0.001043,0.097967,0.109543,-0.989142
1762617137.528652,-0.044953,0.058435,-0.183970,0.980163,-0.005584,-0.000372,-0.003197,0.000067,0.000868,0.000494,0.098011,0.109622,-0.989129
1762617137.529860,-0.045077,0.058439,-0.184080,0.980136,-0.011313,0.000950,-0.012027,0.000584,0.001202,-0.001162,0.097961,0.109879,-0.989106
1762617137.577753,-0.045319,0.058544,-0.184205,0.980096,-0.019038,-0.001321,-0.014210,-0.001546,0.000218,0.000777,0.098061,0.110402,-0.989038
1762617137.578077,-0.045561,0.058648,-0.184330,0.980055,-0.026763,-0.003593,-0.016392,-0.003676,-0.000766,0.002715,0.098160,0.110926,-0.988969
1762617137.607107,-0.045864,0.058549,-0.184509,0.980013,-0.026970,-0.019722,-0.018248,-0.000888,0.002054,0.001976,0.097833,0.111501,-0.988937
1762617137.610786,-0.046192,0.058407,-0.184623,0.979984,-0.027580,-0.012003,-0.007657,0.001076,0.002441,-0.002256,0.097421,0.112101,-0.988910
1762617137.639160,-0.046458,0.058431,-0.184615,0.979972,-0.021635,0.002526,-0.003840,0.003095,0.000562,-0.006090,0.097368,0.112629,-0.988855
1762617137.647024,-0.046639,0.058535,-0.184637,0.979953,-0.018303,0.010933,-0.005924,0.001741,0.001554,-0.006129,0.097500,0.113023,-0.988797
1762617137.677183,-0.046846,0.058706,-0.184713,0.979918,-0.029176,0.018110,-0.005624,0.001005,0.004486,-0.002563,0.097748,0.113499,-0.988718
1762617137.705411,-0.047100,0.058934,-0.184808,0.979875,-0.022615,0.014941,-0.013136,0.000005,0.001098,0.001624,0.098086,0.114088,-0.988617
1762617137.707538,-0.047217,0.059115,-0.184952,0.979831,-0.008691,0.010203,-0.011558,0.000536,0.004552,0.005737,0.098380,0.114397,-0.988552
1762617137.739204,-0.047266,0.059222,-0.185069,0.979800,-0.001149,0.007674,-0.007792,-0.001243,0.006140,0.002570,0.098558,0.114542,-0.988517
1762617137.744794,-0.047223,0.059239,-0.185065,0.979802,0.008091,-0.000752,0.004501,-0.001540,0.008325,0.001529,0.098606,0.114463,-0.988522
1762617137.772984,-0.047116,0.059249,-0.184932,0.979832,0.014087,-0.000562,0.021695,-0.001653,0.009206,0.003316,0.098681,0.114245,-0.988539
1762617137.803805,-0.047013,0.059160,-0.184696,0.979886,0.008224,-0.007786,0.023800,-0.000806,0.008334,-0.003425,0.098573,0.113987,-0.988580
1762617137.806259,-0.046990,0.059085,-0.184464,0.979936,0.001429,-0.003588,0.025339,0.001915,0.004028,-0.005288,0.098463,0.113893,-0.988602
1762617137.835265,-0.047016,0.059119,-0.184247,0.979973,0.005987,-0.006282,0.012194,0.000097,-0.001690,0.001621,0.098545,0.113935,-0.988589
1762617137.882025,-0.046961,0.058996,-0.184278,0.979977,0.012450,-0.001461,-0.003769,0.002442,-0.002373,-0.001409,0.098321,0.113785,-0.988628
1762617137.882290,-0.046906,0.058872,-0.184310,0.979981,0.018912,0.003361,-0.019732,0.004788,-0.003055,-0.004439,0.098097,0.113636,-0.988668
1762617137.885402,-0.046811,0.058867,-0.184482,0.979954,0.007735,0.011652,-0.016584,0.001841,0.002669,-0.003477,0.098102,0.113465,-0.988687
1762617137.915914,-0.046795,0.059055,-0.184642,0.979913,-0.002567,0.014054,-0.014002,-0.001649,0.002804,0.003918,0.098457,0.113518,-0.988645
1762617137.945373,-0.046823,0.059010,-0.184830,0.979879,-0.008131,-0.008616,-0.018653,-0.001481,0.004036,0.004429,0.098336,0.113575,-0.988651
1762617137.945652,-0.046945,0.058961,-0.184995,0.979845,-0.015917,-0.006300,-0.013749,0.001025,0.003292,-0.000348,0.098175,0.113813,-0.988640
1762617137.975153,-0.047123,0.058978,-0.185083,0.979819,-0.012211,0.003360,-0.008013,0.001882,0.003699,-0.003852,0.098133,0.114175,-0.988602
1762617138.004624,-0.047231,0.059055,-0.185172,0.979792,-0.006216,0.003409,-0.008058,0.000220,0.000870,0.000410,0.098232,0.114423,-0.988564
1762617138.007525,-0.047267,0.059075,-0.185266,0.979772,0.002331,-0.002060,-0.009166,-0.000240,0.001508,-0.001406,0.098245,0.114511,-0.988552
1762617138.036903,-0.047275,0.059049,-0.185326,0.979762,0.000130,-0.000115,-0.000511,0.000972,0.005256,-0.001506,0.098185,0.114523,-0.988557
1762617138.072597,-0.047309,0.059078,-0.185326,0.979758,-0.000605,-0.001182,0.001261,0.001922,0.006545,0.001218,0.098229,0.114601,-0.988543
1762617138.074686,-0.047379,0.059051,-0.185265,0.979768,-0.009967,0.001852,0.015696,0.000998,0.006251,0.000569,0.098157,0.114721,-0.988537
1762617138.102936,-0.047414,0.059032,-0.185057,0.979807,0.005355,-0.014342,0.019682,-0.001634,-0.000518,0.002471,0.098131,0.114762,-0.988534
1762617138.104977,-0.047312,0.058890,-0.184851,0.979859,0.024696,-0.013016,0.019959,0.002247,-0.000111,0.003810,0.097916,0.114490,-0.988587
1762617138.134189,-0.047052,0.058656,-0.184638,0.979926,0.037990,-0.028215,0.022635,0.002391,0.002703,0.003728,0.097581,0.113874,-0.988691
1762617138.188652,-0.046809,0.058319,-0.184374,0.980007,0.031335,-0.029812,0.025118,0.003123,0.001456,0.002876,0.097045,0.113252,-0.988816
1762617138.188976,-0.046567,0.057982,-0.184110,0.980088,0.024680,-0.031408,0.027600,0.003856,0.000208,0.002023,0.096509,0.112630,-0.988939
1762617138.189390,-0.046449,0.057626,-0.183881,0.980158,0.018441,-0.036474,0.017600,0.003336,-0.003159,-0.001297,0.095882,0.112248,-0.989043
1762617138.218561,-0.046374,0.057256,-0.183800,0.980198,0.012466,-0.030513,0.003887,0.003260,-0.001856,-0.004201,0.095198,0.111958,-0.989142
1762617138.225635,-0.046343,0.056999,-0.183741,0.980226,0.007610,-0.024532,0.006468,0.001467,0.003010,-0.002111,0.094713,0.111799,-0.989207
1762617138.255842,-0.046358,0.056765,-0.183641,0.980257,-0.000156,-0.026043,0.012253,0.000169,0.005699,-0.001681,0.094263,0.111735,-0.989257
1762617138.294267,-0.046395,0.056596,-0.183444,0.980302,-0.001837,-0.022676,0.016075,0.000180,0.002139,-0.002871,0.093941,0.111726,-0.989289
1762617138.294567,-0.046431,0.056426,-0.183246,0.980347,-0.003519,-0.019308,0.019898,0.000191,-0.001421,-0.004061,0.093618,0.111717,-0.989320
1762617138.323993,-0.046546,0.056318,-0.183079,0.980379,-0.008706,-0.008960,0.010494,0.000080,-0.002185,-0.004758,0.093383,0.111888,-0.989323
1762617138.325212,-0.046727,0.056320,-0.183003,0.980385,-0.013904,-0.004163,0.001049,-0.003016,-0.004745,0.002412,0.093329,0.112234,-0.989289
1762617138.355385,-0.046902,0.056198,-0.183062,0.980372,-0.014676,-0.019543,-0.013582,-0.003700,-0.001017,0.001591,0.093019,0.112538,-0.989284
1762617138.386144,-0.047146,0.055966,-0.183154,0.980357,-0.021694,-0.026092,-0.009108,-0.000919,-0.002595,0.000022,0.092463,0.112941,-0.989290
1762617138.387354,-0.047345,0.055850,-0.183195,0.980346,-0.014155,-0.007214,-0.004670,-0.002603,-0.004191,-0.005020,0.092158,0.113291,-0.989279
1762617138.418546,-0.047357,0.055759,-0.183252,0.980340,0.006283,-0.003658,-0.008568,-0.002401,-0.002850,-0.003739,0.091969,0.113287,-0.989297
1762617138.424468,-0.047292,0.055761,-0.183373,0.980321,-0.000782,0.007469,-0.004738,-0.002478,0.002965,-0.004026,0.091983,0.113173,-0.989308
1762617138.478827,-0.047496,0.055897,-0.183445,0.980290,-0.019767,0.008042,-0.014639,-0.002438,0.000071,-0.003875,0.092165,0.113629,-0.989239
1762617138.479112,-0.047701,0.056034,-0.183516,0.980258,-0.038752,0.008616,-0.024539,-0.002398,-0.002823,-0.003725,0.092347,0.114084,-0.989170
1762617138.483579,-0.048081,0.056168,-0.183815,0.980176,-0.041679,0.006677,-0.036094,-0.000876,-0.002620,-0.000009,0.092432,0.114905,-0.989067
1762617138.523687,-0.048481,0.056295,-0.184189,0.980079,-0.031782,0.009200,-0.040313,-0.003544,0.001910,0.000060,0.092488,0.115768,-0.988961
1762617138.556284,-0.048726,0.056340,-0.184383,0.980028,-0.024691,0.004615,-0.017258,-0.004253,0.005064,0.001196,0.092461,0.116283,-0.988903
1762617138.607837,-0.048871,0.056367,-0.184358,0.980024,-0.018551,0.007667,-0.006426,-0.002360,0.004432,0.000114,0.092463,0.116573,-0.988869
1762617138.608225,-0.049016,0.056395,-0.184333,0.980020,-0.012411,0.010718,0.004405,-0.000467,0.003799,-0.000969,0.092466,0.116864,-0.988834
1762617138.609756,-0.049111,0.056458,-0.184251,0.980027,-0.007475,0.012350,0.005157,-0.000969,0.001036,-0.000904,0.092564,0.117066,-0.988801
1762617138.647701,-0.049159,0.056490,-0.184210,0.980030,0.002547,0.003315,-0.002682,-0.000596,-0.000180,-0.001136,0.092613,0.117166,-0.988785
1762617138.649463,-0.049141,0.056488,-0.184291,0.980016,0.008653,0.007997,-0.007567,0.000683,0.001790,-0.002623,0.092606,0.117138,-0.988789
1762617138.678149,-0.049073,0.056580,-0.184366,0.980000,0.006698,0.016382,0.000244,-0.000107,0.004343,-0.001186,0.092802,0.117046,-0.988781
1762617138.684327,-0.048974,0.056699,-0.184351,0.980001,0.009321,0.009034,0.003826,-0.001863,0.002748,0.001935,0.093074,0.116895,-0.988773
1762617138.714690,-0.048860,0.056744,-0.184310,0.980012,0.009734,0.002744,0.005595,-0.000400,0.001551,0.001380,0.093208,0.116684,-0.988786
1762617138.744373,-0.048774,0.056784,-0.184252,0.980024,0.004334,0.004457,0.005369,0.000237,0.001360,-0.000701,0.093325,0.116525,-0.988793
1762617138.744627,-0.048766,0.056868,-0.184222,0.980026,0.000062,0.006586,-0.001443,0.000514,-0.000569,-0.001997,0.093496,0.116537,-0.988776
1762617138.777773,-0.048805,0.056962,-0.184293,0.980005,-0.003250,0.013226,-0.011664,0.002151,-0.002020,-0.003092,0.093658,0.116654,-0.988747
1762617138.782403,-0.048855,0.057105,-0.184454,0.979964,-0.004395,0.014852,-0.016541,0.001550,-0.000044,-0.002558,0.093900,0.116818,-0.988704
1762617138.813735,-0.048906,0.057287,-0.184631,0.979917,-0.006687,0.018450,-0.015781,0.001419,0.001244,-0.002642,0.094213,0.117002,-0.988653
1762617138.852577,-0.048957,0.057550,-0.184767,0.979874,-0.008876,0.020592,-0.013439,0.000547,0.000706,0.000325,0.094692,0.117210,-0.988582
1762617138.852889,-0.049007,0.057813,-0.184902,0.979830,-0.011065,0.022733,-0.011097,-0.000325,0.000167,0.003292,0.095171,0.117417,-0.988512
1762617138.881640,-0.049078,0.058021,-0.185035,0.979789,-0.011627,0.017660,-0.012428,0.000611,-0.000548,0.002116,0.095535,0.117644,-0.988450
1762617138.884417,-0.049165,0.058213,-0.185176,0.979747,-0.010751,0.014795,-0.014315,0.001537,-0.001054,0.001620,0.095860,0.117898,-0.988388
1762617138.913192,-0.049245,0.058366,-0.185352,0.979700,-0.005653,0.010347,-0.017237,0.001276,-0.000317,0.001220,0.096107,0.118128,-0.988337
1762617138.943705,-0.049291,0.058461,-0.185527,0.979659,-0.003321,0.006728,-0.014306,0.000825,0.002020,0.000516,0.096254,0.118269,-0.988306
1762617138.945713,-0.049329,0.058515,-0.185660,0.979629,-0.003887,0.004780,-0.009535,0.001290,0.002932,-0.001148,0.096329,0.118377,-0.988285
1762617138.974382,-0.049373,0.058569,-0.185734,0.979610,-0.004827,0.002554,-0.005811,0.000685,0.001778,-0.000206,0.096410,0.118489,-0.988264
1762617139.005174,-0.049436,0.058583,-0.185795,0.979594,-0.007737,0.000041,-0.005027,0.001195,0.001699,-0.000370,0.096404,0.118623,-0.988248
1762617139.007803,-0.049550,0.058603,-0.185829,0.979581,-0.011961,0.001258,-0.002313,0.000745,0.001143,-0.000530,0.096398,0.118856,-0.988221
1762617139.037032,-0.049683,0.058633,-0.185868,0.979564,-0.009698,-0.000336,-0.005286,0.000527,0.000873,-0.000608,0.096401,0.119132,-0.988187
1762617139.043183,-0.049790,0.058635,-0.185914,0.979550,-0.008542,-0.002638,-0.003744,0.000815,0.001742,-0.000997,0.096358,0.119345,-0.988166
1762617139.081238,-0.049902,0.058680,-0.185912,0.979542,-0.008105,0.001561,0.001788,0.000866,0.000682,-0.000400,0.096404,0.119580,-0.988133
1762617139.082535,-0.049961,0.058695,-0.185890,0.979543,-0.002854,-0.000350,-0.001100,0.001771,-0.001254,-0.001719,0.096415,0.119699,-0.988118
1762617139.112720,-0.049987,0.058694,-0.185930,0.979534,0.000069,0.001625,-0.005481,0.001742,-0.001278,-0.001019,0.096398,0.119754,-0.988113
1762617139.145194,-0.050005,0.058696,-0.186009,0.979518,-0.001032,-0.005668,-0.009019,-0.000916,-0.000031,0.001394,0.096386,0.119797,-0.988109
1762617139.145474,-0.050048,0.058632,-0.186114,0.979499,-0.003045,-0.013983,-0.011436,-0.000548,0.000020,0.001378,0.096230,0.119869,-0.988115
1762617139.198991,-0.050070,0.058528,-0.186185,0.979491,0.002571,-0.009213,-0.009210,-0.000281,-0.001509,-0.000445,0.096011,0.119880,-0.988135
1762617139.199294,-0.050091,0.058424,-0.186257,0.979482,0.008187,-0.004443,-0.006984,-0.000014,-0.003039,-0.002269,0.095792,0.119891,-0.988155
1762617139.205407,-0.050001,0.058379,-0.186350,0.979472,0.011943,0.008134,-0.004806,0.001166,0.000065,-0.005000,0.095725,0.119707,-0.988184
1762617139.235777,-0.049909,0.058500,-0.186370,0.979466,0.003430,0.019861,0.003884,0.001352,0.002052,-0.003094,0.095994,0.119574,-0.988174
1762617139.266197,-0.049901,0.058716,-0.186358,0.979456,-0.006925,0.016118,0.000934,0.000313,0.001083,0.000674,0.096420,0.119636,-0.988125
1762617139.266444,-0.049992,0.058829,-0.186395,0.979437,-0.017692,0.006353,-0.007581,0.001339,0.000882,0.000484,0.096603,0.119859,-0.988080
1762617139.296592,-0.050210,0.058915,-0.186480,0.979404,-0.026836,-0.000011,-0.010690,0.001415,0.002069,0.002106,0.096677,0.120325,-0.988016
1762617139.300993,-0.050491,0.058904,-0.186556,0.979376,-0.024552,-0.009850,-0.006389,0.000208,0.002663,0.003789,0.096540,0.120877,-0.987962
1762617139.329229,-0.050745,0.058788,-0.186550,0.979371,-0.016332,-0.023044,0.001597,-0.001137,0.002052,0.004144,0.096217,0.121330,-0.987938
1762617139.382080,-0.050929,0.058535,-0.186417,0.979402,-0.015800,-0.024455,0.008468,-0.000092,0.001881,0.002059,0.095672,0.121583,-0.987960
1762617139.382417,-0.051112,0.058283,-0.186283,0.979433,-0.015268,-0.025865,0.015339,0.000952,0.001710,-0.000027,0.095126,0.121836,-0.987981
1762617139.382652,-0.051341,0.058078,-0.186125,0.979463,-0.015725,-0.025515,0.011758,0.000843,-0.000869,0.000872,0.094659,0.122193,-0.987982
1762617139.414508,-0.051573,0.057887,-0.186039,0.979479,-0.014752,-0.021879,0.003406,-0.000299,-0.002492,0.000407,0.094208,0.122567,-0.987979
1762617139.442928,-0.051759,0.057698,-0.186063,0.979475,-0.008170,-0.020651,-0.011440,0.000497,-0.002537,-0.002984,0.093767,0.122864,-0.987984
1762617139.444171,-0.051871,0.057554,-0.186185,0.979455,-0.009192,-0.012520,-0.011990,0.000292,0.001116,-0.003734,0.093428,0.123043,-0.987994
1762617139.475071,-0.052014,0.057486,-0.186276,0.979434,-0.016480,-0.010313,-0.008001,-0.001994,0.003168,-0.000345,0.093230,0.123304,-0.987980
1762617139.481102,-0.052185,0.057393,-0.186340,0.979418,-0.017315,-0.010917,-0.004910,-0.002393,0.001968,-0.000410,0.092975,0.123612,-0.987966
1762617139.519842,-0.052335,0.057313,-0.186374,0.979408,-0.012603,-0.012902,-0.004088,-0.002153,0.000876,-0.000721,0.092759,0.123877,-0.987953
1762617139.522022,-0.052458,0.057208,-0.186427,0.979398,-0.006823,-0.010354,-0.004823,-0.001156,0.000462,-0.002605,0.092499,0.124084,-0.987951
1762617139.550760,-0.052545,0.057121,-0.186459,0.979392,-0.004108,-0.007618,-0.002246,-0.001292,0.000469,-0.002836,0.092293,0.124225,-0.987952
1762617139.581204,-0.052614,0.057043,-0.186481,0.979389,-0.003867,-0.002883,-0.001376,-0.000836,0.001470,-0.004039,0.092112,0.124335,-0.987956
1762617139.583312,-0.052676,0.057063,-0.186479,0.979385,-0.006741,0.003440,-0.001636,0.000154,0.000111,-0.002886,0.092128,0.124463,-0.987938
1762617139.613730,-0.052742,0.057192,-0.186508,0.979368,-0.008470,0.012770,-0.006646,0.000206,-0.001556,-0.001986,0.092351,0.124640,-0.987895
1762617139.643086,-0.052823,0.057319,-0.186622,0.979335,-0.010461,0.016716,-0.015903,0.000577,-0.001661,-0.002302,0.092553,0.124858,-0.987848
1762617139.645287,-0.052936,0.057499,-0.186837,0.979277,-0.012612,0.017387,-0.021825,-0.000256,-0.001770,0.000038,0.092834,0.125163,-0.987783
1762617139.678821,-0.053055,0.057691,-0.187089,0.979211,-0.013852,0.016210,-0.026034,-0.000601,0.000129,0.001405,0.093132,0.125490,-0.987714
1762617139.680820,-0.053181,0.057822,-0.187356,0.979146,-0.018204,0.010630,-0.022260,0.000606,0.002518,0.000281,0.093305,0.125810,-0.987657
1762617139.709673,-0.053375,0.057980,-0.187553,0.979088,-0.028948,0.014906,-0.015396,-0.000300,0.002531,-0.000406,0.093513,0.126266,-0.987579
1762617139.746125,-0.053671,0.058156,-0.187670,0.979039,-0.037452,0.011748,-0.007986,-0.000808,0.000989,0.000098,0.093729,0.126920,-0.987475
1762617139.748293,-0.054042,0.058284,-0.187726,0.979000,-0.039181,0.002470,-0.006135,-0.000957,-0.000931,0.000783,0.093831,0.127696,-0.987365
1762617139.777318,-0.054443,0.058363,-0.187775,0.978964,-0.039148,0.000314,-0.006025,0.000059,-0.000591,0.000443,0.093825,0.128514,-0.987259
1762617139.778521,-0.054819,0.058418,-0.187824,0.978930,-0.032008,-0.001462,-0.009405,0.000524,-0.000436,0.000287,0.093782,0.129272,-0.987164
1762617139.808215,-0.055126,0.058428,-0.187908,0.978896,-0.025386,-0.001019,-0.008211,0.000591,0.000478,-0.000611,0.093673,0.129883,-0.987095
1762617139.839180,-0.055341,0.058441,-0.187962,0.978873,-0.018649,0.001116,-0.005666,0.000683,0.001270,-0.000648,0.093609,0.130314,-0.987044
1762617139.841169,-0.055454,0.058471,-0.188007,0.978856,-0.006534,0.001455,-0.005378,0.000487,0.000916,-0.000666,0.093618,0.130549,-0.987012
1762617139.860604,-0.055446,0.058484,-0.188064,0.978845,0.005512,0.003410,-0.006628,0.000221,0.000415,-0.000302,0.093639,0.130544,-0.987011
1762617139.890453,-0.055338,0.058495,-0.188152,0.978834,0.015612,0.000362,-0.008585,0.000870,0.001925,-0.001254,0.093689,0.130345,-0.987032
1762617139.927539,-0.055184,0.058504,-0.188253,0.978822,0.015151,0.005449,-0.007501,0.000935,0.002684,-0.000190,0.093753,0.130058,-0.987064
1762617139.929407,-0.055061,0.058501,-0.188314,0.978818,0.013842,-0.001477,-0.005182,-0.000425,0.001490,0.002074,0.093787,0.129823,-0.987092
1762617139.977598,-0.054889,0.058399,-0.188383,0.978820,0.015541,-0.001091,-0.003313,0.000469,0.001490,0.000184,0.093643,0.129455,-0.987154
1762617139.977942,-0.054716,0.058296,-0.188452,0.978823,0.017240,-0.000706,-0.001444,0.001363,0.001490,-0.001707,0.093500,0.129086,-0.987216
1762617139.979570,-0.054549,0.058235,-0.188480,0.978830,0.018551,-0.000719,0.002575,0.001997,0.001415,-0.004061,0.093442,0.128740,-0.987266
1762617140.008098,-0.054372,0.058284,-0.188480,0.978837,0.014673,0.012022,0.001514,0.002786,0.001212,-0.005033,0.093605,0.128414,-0.987293
1762617140.039961,-0.054234,0.058401,-0.188497,0.978834,0.005774,0.016103,-0.000752,0.001455,0.002084,-0.003842,0.093885,0.128189,-0.987296
1762617140.051968,-0.054195,0.058553,-0.188514,0.978824,-0.001769,0.010254,-0.002705,-0.000078,0.001975,0.001219,0.094192,0.128171,-0.987269
1762617140.082700,-0.054242,0.058623,-0.188549,0.978811,-0.006595,0.003282,-0.003584,0.000228,0.003210,0.003569,0.094308,0.128292,-0.987242
1762617140.082945,-0.054346,0.058658,-0.188558,0.978801,-0.013820,-0.002185,0.000799,0.000354,0.002958,0.003103,0.094334,0.128508,-0.987212
1762617140.112196,-0.054495,0.058640,-0.188521,0.978801,-0.012210,-0.007849,0.002099,-0.000551,0.000737,0.004409,0.094248,0.128789,-0.987183
1762617140.140462,-0.054613,0.058524,-0.188477,0.978810,-0.003496,-0.015465,0.000266,-0.000974,-0.001861,0.001952,0.093981,0.128973,-0.987185
1762617140.142270,-0.054680,0.058346,-0.188466,0.978819,0.002285,-0.020295,-0.000962,-0.000941,-0.000654,0.000777,0.093610,0.129037,-0.987212
1762617140.171638,-0.054719,0.058148,-0.188491,0.978824,-0.002390,-0.013517,-0.003063,0.001017,0.001677,-0.004220,0.093205,0.129041,-0.987249
1762617140.201498,-0.054799,0.058045,-0.188497,0.978824,-0.005714,-0.010102,-0.002642,0.000449,0.000740,-0.001861,0.092972,0.129160,-0.987256
1762617140.203650,-0.054907,0.057961,-0.188504,0.978822,-0.006706,-0.019343,-0.005761,-0.002179,-0.000514,0.001207,0.092767,0.129341,-0.987251
1762617140.234990,-0.054994,0.057818,-0.188579,0.978811,-0.005874,-0.007512,-0.010873,0.001144,0.000710,-0.003115,0.092445,0.129465,-0.987265
1762617140.239694,-0.055100,0.057777,-0.188671,0.978790,-0.008374,-0.000542,-0.006582,0.000265,0.002435,-0.002687,0.092312,0.129664,-0.987252
1762617140.278534,-0.055206,0.057814,-0.188708,0.978774,-0.008914,0.002330,-0.001457,-0.001106,0.003518,0.000480,0.092337,0.129888,-0.987220
1762617140.280674,-0.055284,0.057790,-0.188732,0.978767,-0.004235,-0.004603,-0.002771,-0.001836,0.003217,0.001100,0.092259,0.130033,-0.987208
1762617140.312016,-0.055319,0.057745,-0.188742,0.978765,-0.001976,-0.002785,-0.001978,-0.000200,0.002027,-0.001825,0.092155,0.130087,-0.987211
1762617140.340348,-0.055328,0.057767,-0.188769,0.978758,0.003003,0.004937,-0.004536,-0.000151,0.000487,-0.001178,0.092191,0.130114,-0.987204
1762617140.340930,-0.055246,0.057828,-0.188822,0.978749,0.013640,0.007117,-0.009050,-0.001039,0.000949,-0.000298,0.092334,0.129983,-0.987208
1762617140.372414,-0.055090,0.057853,-0.188921,0.978737,0.017465,0.009975,-0.009629,0.000351,0.002213,-0.001289,0.092431,0.129696,-0.987236
1762617140.410711,-0.054913,0.057968,-0.189007,0.978724,0.016036,0.015547,-0.004198,0.000703,0.002014,-0.001718,0.092711,0.129402,-0.987249
1762617140.411039,-0.054743,0.058092,-0.189074,0.978713,0.013053,0.015425,-0.006878,0.000694,-0.000094,-0.001428,0.093010,0.129122,-0.987257
1762617140.460023,-0.054593,0.058218,-0.189230,0.978684,0.013080,0.015646,-0.012077,0.001239,-0.001120,-0.000987,0.093293,0.128892,-0.987261
1762617140.460367,-0.054443,0.058344,-0.189385,0.978655,0.013106,0.015866,-0.017276,0.001784,-0.002147,-0.000547,0.093576,0.128661,-0.987264
1762617140.461182,-0.054288,0.058466,-0.189604,0.978614,0.017287,0.012905,-0.021918,0.001593,-0.002864,0.001594,0.093845,0.128424,-0.987269
1762617140.493367,-0.054098,0.058526,-0.189864,0.978570,0.019623,0.009785,-0.023727,0.001674,-0.001137,0.002032,0.094001,0.128101,-0.987296
1762617140.523553,-0.053875,0.058551,-0.190087,0.978538,0.023098,0.004274,-0.019089,0.000974,0.001100,0.002433,0.094106,0.127697,-0.987339
1762617140.523844,-0.053646,0.058518,-0.190270,0.978517,0.022981,-0.000062,-0.011624,0.000982,0.002371,0.001428,0.094107,0.127255,-0.987396
1762617140.551650,-0.053451,0.058459,-0.190367,0.978512,0.017247,-0.001695,-0.002883,0.001259,0.004083,-0.001838,0.094056,0.126863,-0.987451
1762617140.559614,-0.053328,0.058443,-0.190356,0.978522,0.008417,-0.002777,0.002285,0.001213,0.002762,-0.002743,0.094073,0.126615,-0.987481
1762617140.589716,-0.053281,0.058430,-0.190328,0.978531,0.003815,0.000421,0.002543,0.001900,-0.000558,-0.002071,0.094069,0.126516,-0.987494
1762617140.620231,-0.053235,0.058412,-0.190341,0.978532,0.007121,-0.003343,-0.002766,0.001045,-0.002426,0.000489,0.094050,0.126421,-0.987508
1762617140.620523,-0.053180,0.058370,-0.190416,0.978523,0.009001,-0.005088,-0.008167,0.001157,-0.000836,-0.000099,0.093980,0.126305,-0.987530
1762617140.662422,-0.053134,0.058323,-0.190506,0.978510,0.005587,-0.001046,-0.004825,0.001579,0.000554,-0.001137,0.093895,0.126206,-0.987550
1762617140.663794,-0.053043,0.058271,-0.190538,0.978512,0.011825,-0.007837,-0.001007,0.000817,-0.000668,0.000407,0.093824,0.126012,-0.987582
1762617140.693826,-0.052894,0.058142,-0.190548,0.978526,0.017211,-0.009066,0.001753,0.002159,0.000812,-0.001235,0.093630,0.125674,-0.987643
1762617140.700682,-0.052721,0.058028,-0.190492,0.978553,0.017022,-0.011318,0.006700,-0.000133,-0.000168,0.000984,0.093481,0.125287,-0.987707
1762617140.758666,-0.052599,0.057810,-0.190439,0.978583,0.015261,-0.018324,0.005479,0.000254,-0.000219,0.000679,0.093110,0.124963,-0.987783
1762617140.758826,-0.052477,0.057592,-0.190386,0.978612,0.013500,-0.025331,0.004258,0.000640,-0.000269,0.000373,0.092740,0.124638,-0.987859
1762617140.760430,-0.052388,0.057335,-0.190331,0.978643,0.015110,-0.025608,0.002340,-0.000338,-0.000336,-0.000337,0.092279,0.124364,-0.987936
1762617140.789373,-0.052249,0.057097,-0.190315,0.978668,0.017916,-0.015329,0.002175,0.001111,0.001159,-0.004939,0.091871,0.124002,-0.988020
1762617140.820572,-0.052081,0.057014,-0.190318,0.978681,0.014815,-0.001951,0.001819,-0.000339,0.002031,-0.005113,0.091772,0.123643,-0.988074
1762617140.822465,-0.051985,0.057013,-0.190287,0.978692,0.005552,0.002803,0.003780,-0.001778,0.003097,-0.002467,0.091813,0.123453,-0.988094
1762617140.860184,-0.051967,0.057032,-0.190273,0.978694,-0.001789,0.002510,-0.000791,-0.001360,0.002770,-0.001596,0.091859,0.123423,-0.988094
1762617140.862023,-0.052039,0.057087,-0.190284,0.978685,-0.011916,0.003900,-0.001358,-0.001053,0.003449,-0.000432,0.091935,0.123586,-0.988066
1762617140.890434,-0.052207,0.057163,-0.190289,0.978671,-0.019427,0.006449,0.000277,-0.002053,0.001951,-0.000453,0.092019,0.123942,-0.988014
1762617140.898155,-0.052415,0.057212,-0.190292,0.978657,-0.016808,0.000423,-0.002799,-0.001411,-0.000309,0.001026,0.092033,0.124367,-0.987959
1762617140.928310,-0.052583,0.057241,-0.190309,0.978642,-0.011446,-0.000014,-0.003497,-0.001116,0.000056,0.000325,0.092024,0.124707,-0.987917
1762617140.964832,-0.052730,0.057233,-0.190355,0.978626,-0.009284,-0.001911,-0.007025,-0.000228,0.001680,-0.001579,0.091945,0.124995,-0.987888
1762617140.967037,-0.052887,0.057266,-0.190412,0.978604,-0.014509,0.003681,-0.003884,0.000404,0.003981,-0.000728,0.091940,0.125320,-0.987847
1762617140.995539,-0.053069,0.057314,-0.190438,0.978587,-0.021304,0.004900,0.000894,-0.001950,0.002746,-0.000258,0.091961,0.125695,-0.987798
1762617140.997373,-0.053251,0.057336,-0.190405,0.978582,-0.013745,0.000222,-0.002016,0.000932,0.000539,-0.003989,0.091938,0.126055,-0.987754
1762617141.060065,-0.053315,0.057463,-0.190410,0.978570,-0.010285,0.007790,0.000719,0.000867,0.001060,-0.002749,0.092160,0.126228,-0.987711
1762617141.060392,-0.053379,0.057590,-0.190416,0.978558,-0.006826,0.015358,0.003453,0.000803,0.001582,-0.001509,0.092382,0.126401,-0.987668
1762617141.060701,-0.053430,0.057748,-0.190430,0.978543,-0.000589,0.013298,-0.004522,-0.002351,-0.000226,0.002386,0.092669,0.126560,-0.987621
1762617141.088301,-0.053403,0.057799,-0.190497,0.978529,0.005030,0.002685,-0.008431,-0.001327,-0.000837,0.001770,0.092770,0.126534,-0.987615
1762617141.118938,-0.053301,0.057806,-0.190590,0.978516,0.012294,0.002900,-0.008604,0.000572,-0.000701,0.000892,0.092812,0.126346,-0.987635
1762617141.119979,-0.053139,0.057763,-0.190683,0.978509,0.018684,-0.000815,-0.007103,0.000422,0.000096,-0.000056,0.092779,0.126023,-0.987679
1762617141.167673,-0.052953,0.057691,-0.190666,0.978526,0.018306,-0.002187,-0.000684,0.000464,0.000268,-0.000805,0.092712,0.125631,-0.987736
1762617141.168016,-0.052766,0.057619,-0.190650,0.978544,0.017927,-0.003559,0.005736,0.000505,0.000440,-0.001554,0.092646,0.125238,-0.987792
1762617141.202247,-0.052585,0.057541,-0.190593,0.978569,0.017777,-0.004102,0.008277,0.000061,-0.000661,-0.001440,0.092571,0.124850,-0.987848
1762617141.204993,-0.052441,0.057486,-0.190505,0.978597,0.014113,-0.004877,0.007058,0.000209,-0.000761,-0.002635,0.092531,0.124540,-0.987891
1762617141.234337,-0.052337,0.057443,-0.190439,0.978618,0.007506,-0.002573,0.004804,0.000245,-0.001239,-0.000112,0.092495,0.124315,-0.987922
1762617141.236070,-0.052281,0.057399,-0.190391,0.978633,0.002938,-0.001007,0.001880,0.001696,-0.001462,-0.000175,0.092437,0.124184,-0.987944
1762617141.265717,-0.052253,0.057389,-0.190396,0.978634,0.002495,-0.002611,-0.004065,0.000129,-0.002168,-0.000070,0.092428,0.124126,-0.987952
1762617141.297881,-0.052218,0.057354,-0.190459,0.978626,0.002716,-0.002480,-0.007221,-0.000019,-0.001265,-0.000444,0.092367,0.124051,-0.987968
1762617141.298941,-0.052194,0.057317,-0.190531,0.978615,0.001172,-0.001890,-0.005307,-0.000764,-0.000684,0.000149,0.092294,0.123997,-0.987981
1762617141.356654,-0.052160,0.057277,-0.190588,0.978609,0.000989,-0.004023,-0.005766,-0.000351,-0.000188,-0.000167,0.092221,0.123921,-0.987997
1762617141.357036,-0.052126,0.057237,-0.190644,0.978602,0.000806,-0.006157,-0.006225,0.000063,0.000308,-0.000482,0.092149,0.123844,-0.988014
1762617141.358344,-0.052130,0.057210,-0.190688,0.978595,-0.003201,-0.002095,-0.003813,0.000315,0.001368,-0.003212,0.092090,0.123847,-0.988019
1762617141.389518,-0.052170,0.057246,-0.190726,0.978583,-0.004535,0.002971,-0.004743,0.000473,-0.000925,-0.002403,0.092140,0.123941,-0.988002
1762617141.418760,-0.052203,0.057308,-0.190800,0.978563,-0.004519,0.011023,-0.011339,0.000113,-0.000780,-0.001346,0.092238,0.124036,-0.987981
1762617141.420667,-0.052227,0.057386,-0.190911,0.978536,-0.001604,0.009578,-0.009773,0.000242,0.000082,-0.000937,0.092367,0.124123,-0.987958
1762617141.449420,-0.052238,0.057495,-0.191027,0.978506,-0.000530,0.012625,-0.009357,0.000656,-0.000157,-0.000264,0.092561,0.124196,-0.987931
1762617141.457029,-0.052204,0.057608,-0.191123,0.978483,0.006091,0.008136,-0.011413,0.000745,-0.000673,-0.000426,0.092782,0.124182,-0.987912
1762617141.486710,-0.052113,0.057664,-0.191251,0.978459,0.006535,0.009807,-0.008371,0.000426,0.000594,0.000681,0.092911,0.124037,-0.987918
1762617141.522316,-0.052033,0.057705,-0.191339,0.978444,0.009327,0.002365,-0.008133,-0.000438,-0.000926,0.001523,0.093010,0.123906,-0.987925
1762617141.523492,-0.051921,0.057643,-0.191451,0.978431,0.011253,-0.014296,-0.009821,-0.000911,0.001245,0.004287,0.092919,0.123673,-0.987963
1762617141.557306,-0.051834,0.057471,-0.191520,0.978433,0.008316,-0.012196,-0.002765,0.001121,0.000436,0.000550,0.092608,0.123445,-0.988021
1762617141.559494,-0.051740,0.057338,-0.191526,0.978444,0.016791,-0.009169,0.001277,0.002805,-0.002435,-0.003645,0.092385,0.123213,-0.988071
1762617141.592484,-0.051540,0.057281,-0.191506,0.978462,0.017930,0.003543,0.007139,0.001923,0.000157,-0.004345,0.092353,0.122799,-0.988125
1762617141.594444,-0.051398,0.057357,-0.191420,0.978482,0.009400,0.014056,0.012057,0.000082,-0.000180,-0.002158,0.092568,0.122542,-0.988137
1762617141.656529,-0.051335,0.057434,-0.191426,0.978480,0.002659,0.009134,0.003144,0.000879,-0.000107,-0.001470,0.092743,0.122449,-0.988132
1762617141.656795,-0.051272,0.057511,-0.191432,0.978477,-0.004083,0.004212,-0.005769,0.001675,-0.000034,-0.000781,0.092917,0.122356,-0.988127
1762617141.657454,-0.051313,0.057590,-0.191490,0.978459,-0.013869,0.005696,-0.006008,0.000697,0.000419,0.000136,0.093048,0.122471,-0.988101
1762617141.687750,-0.051468,0.057685,-0.191537,0.978436,-0.017192,0.004309,-0.004193,-0.000349,-0.001013,0.001333,0.093165,0.122814,-0.988047
1762617141.716848,-0.051601,0.057685,-0.191585,0.978420,-0.010905,-0.006039,-0.005388,-0.002009,-0.000212,0.004156,0.093107,0.123078,-0.988020
1762617141.718646,-0.051712,0.057583,-0.191608,0.978415,-0.007485,-0.013003,-0.002868,-0.002568,0.001906,0.000720,0.092863,0.123258,-0.988020
1762617141.750756,-0.051847,0.057488,-0.191572,0.978421,-0.014965,-0.006250,0.005962,-0.000675,0.003831,-0.002936,0.092630,0.123482,-0.988014
1762617141.754664,-0.052018,0.057449,-0.191487,0.978431,-0.018378,-0.009973,0.008556,-0.000321,0.000976,-0.001513,0.092498,0.123793,-0.987988
1762617141.782915,-0.052214,0.057365,-0.191395,0.978443,-0.013755,-0.016066,0.004457,-0.000466,-0.000906,-0.000989,0.092270,0.124135,-0.987966
1762617141.813806,-0.052372,0.057273,-0.191402,0.978439,-0.010182,-0.005084,-0.005402,0.001446,-0.001328,-0.004053,0.092028,0.124410,-0.987954
1762617141.816247,-0.052485,0.057315,-0.191450,0.978421,-0.010111,0.008596,-0.006140,0.000806,0.000346,-0.001480,0.092060,0.124652,-0.987920
1762617141.856107,-0.052557,0.057426,-0.191516,0.978397,-0.004510,0.006190,-0.006963,-0.001910,0.001319,0.003065,0.092239,0.124840,-0.987880
1762617141.857438,-0.052581,0.057455,-0.191602,0.978378,-0.003289,0.003731,-0.005529,0.000068,0.002543,0.000682,0.092276,0.124906,-0.987868
1762617141.887798,-0.052563,0.057524,-0.191636,0.978368,0.000429,0.010095,-0.002191,0.000364,0.001274,-0.001056,0.092414,0.124900,-0.987856
1762617141.916941,-0.052509,0.057608,-0.191690,0.978355,0.006282,0.008117,-0.004541,-0.000075,0.000064,0.000053,0.092592,0.124831,-0.987848
1762617141.976385,-0.052429,0.057656,-0.191754,0.978344,0.006635,0.007587,-0.005386,0.000321,-0.000078,-0.000684,0.092708,0.124699,-0.987854
1762617141.976770,-0.052349,0.057704,-0.191818,0.978333,0.006987,0.007057,-0.006231,0.000717,-0.000220,-0.001422,0.092824,0.124568,-0.987860
1762617141.976997,-0.052270,0.057751,-0.191882,0.978322,0.007340,0.006527,-0.007076,0.001112,-0.000362,-0.002160,0.092940,0.124436,-0.987865
1762617141.978479,-0.052179,0.057821,-0.191961,0.978307,0.005946,0.008719,-0.009530,0.000617,0.001199,0.000545,0.093101,0.124292,-0.987868
1762617142.010373,-0.052131,0.057901,-0.192041,0.978289,0.001843,0.007890,-0.008179,0.001225,0.001030,-0.000582,0.093265,0.124237,-0.987860
1762617142.011997,-0.052124,0.057965,-0.192119,0.978271,-0.000307,0.006881,-0.005060,0.001406,-0.000429,0.000433,0.093382,0.124256,-0.987846
1762617142.041643,-0.052124,0.058009,-0.192184,0.978255,0.001562,0.005645,-0.005310,0.001532,-0.001436,-0.000527,0.093460,0.124278,-0.987836
1762617142.077457,-0.052078,0.058044,-0.192249,0.978243,0.007899,-0.002337,-0.005961,0.000652,-0.001018,0.002119,0.093539,0.124207,-0.987838
1762617142.079525,-0.052027,0.058010,-0.192325,0.978233,0.008211,-0.001689,-0.003941,0.000513,0.000491,0.000747,0.093483,0.124104,-0.987856
1762617142.112351,-0.051957,0.057964,-0.192381,0.978228,0.005580,-0.005272,-0.002551,0.000328,0.001067,0.001148,0.093413,0.123954,-0.987881
1762617142.113534,-0.051886,0.057905,-0.192404,0.978231,0.004034,-0.004430,-0.002263,-0.000095,-0.000031,0.000844,0.093324,0.123796,-0.987910
1762617142.144033,-0.051840,0.057824,-0.192413,0.978236,0.005033,-0.006548,0.000017,0.000388,0.000798,-0.000592,0.093181,0.123676,-0.987938
1762617142.173679,-0.051793,0.057760,-0.192406,0.978244,0.004064,-0.005902,0.003280,0.000794,-0.000416,-0.001439,0.093076,0.123558,-0.987963
1762617142.190744,-0.051774,0.057716,-0.192365,0.978256,0.003525,-0.002755,0.003325,0.000052,-0.001495,-0.001837,0.093002,0.123502,-0.987977
1762617142.194289,-0.051766,0.057679,-0.192313,0.978268,0.000521,-0.001676,0.003825,-0.000617,-0.001736,0.000702,0.092940,0.123466,-0.987987
1762617142.224868,-0.051769,0.057659,-0.192268,0.978278,-0.000370,-0.000399,0.004893,0.000864,-0.003819,-0.000349,0.092905,0.123461,-0.987991
1762617142.257286,-0.051737,0.057657,-0.192243,0.978285,0.004228,-0.004456,-0.000192,0.000637,-0.004293,0.000081,0.092917,0.123394,-0.987998
1762617142.259475,-0.051668,0.057588,-0.192290,0.978284,0.002476,-0.004735,-0.004348,0.000493,-0.001559,-0.001766,0.092804,0.123238,-0.988028
1762617142.288075,-0.051678,0.057559,-0.192316,0.978280,-0.006104,-0.004098,0.002182,-0.000887,0.000778,0.000092,0.092740,0.123250,-0.988033
1762617142.303384,-0.051788,0.057504,-0.192289,0.978282,-0.014713,-0.011586,-0.001613,-0.001872,-0.000652,-0.000626,0.092594,0.123442,-0.988022
1762617142.333714,-0.051984,0.057348,-0.192304,0.978278,-0.018170,-0.019737,-0.002706,0.000069,0.000510,-0.002915,0.092212,0.123767,-0.988018
1762617142.334897,-0.052201,0.057260,-0.192296,0.978273,-0.019985,-0.007830,-0.002982,0.001135,-0.002603,-0.004844,0.091955,0.124155,-0.987993
1762617142.364921,-0.052381,0.057311,-0.192337,0.978253,-0.014344,0.008602,-0.007374,0.002530,-0.003036,-0.006297,0.091979,0.124530,-0.987943
1762617142.394456,-0.052495,0.057490,-0.192400,0.978224,-0.016823,0.020436,-0.003336,0.001176,0.001292,-0.003573,0.092275,0.124826,-0.987878
1762617142.396047,-0.052650,0.057762,-0.192453,0.978189,-0.021333,0.023709,-0.006231,-0.000215,0.000635,-0.001299,0.092739,0.125236,-0.987783
1762617142.414409,-0.052801,0.057983,-0.192541,0.978150,-0.018976,0.012847,-0.012538,-0.000706,-0.000066,0.002747,0.093100,0.125622,-0.987700
1762617142.446551,-0.052958,0.058085,-0.192679,0.978108,-0.020219,0.004062,-0.012831,-0.000580,0.003010,0.000709,0.093220,0.125982,-0.987643
1762617142.482315,-0.053156,0.058154,-0.192778,0.978074,-0.020531,0.001083,-0.005400,-0.000856,0.002673,0.003333,0.093264,0.126404,-0.987585
1762617142.484365,-0.053348,0.058161,-0.192800,0.978059,-0.014867,-0.006719,-0.000785,-0.001562,0.002768,0.004093,0.093198,0.126781,-0.987543
1762617142.552726,-0.053409,0.058063,-0.192766,0.978068,-0.011612,-0.005287,0.000917,-0.000895,0.002527,0.002721,0.092989,0.126861,-0.987552
1762617142.553095,-0.053471,0.057966,-0.192732,0.978077,-0.008357,-0.003856,0.002620,-0.000227,0.002287,0.001350,0.092779,0.126940,-0.987562
1762617142.553527,-0.053532,0.057869,-0.192697,0.978086,-0.005102,-0.002424,0.004322,0.000440,0.002046,-0.000021,0.092570,0.127020,-0.987571
1762617142.554760,-0.053618,0.057846,-0.192668,0.978089,-0.010753,0.001270,0.000843,-0.001096,0.001074,-0.000218,0.092496,0.127176,-0.987558
1762617142.589992,-0.053753,0.057780,-0.192688,0.978081,-0.005443,-0.009781,-0.008064,0.000913,0.000421,-0.003200,0.092312,0.127416,-0.987544
