timestamp,quat_x,quat_y,quat_z,quat_w,rot_x,rot_y,rot_z,acc_x,acc_y,acc_z,grav_x,grav_y,grav_z
1762622944.929710,-0.056566,-0.059253,0.000000,0.996639,-0.007114,0.013065,-0.020134,-0.002304,-0.001005,0.001082,-0.118107,0.112752,-0.986579
1762622944.963886,-0.056599,-0.059216,-0.000158,0.996639,-0.007258,0.005932,-0.021875,-0.003742,-0.002382,0.002025,-0.118051,0.112799,-0.986580
1762622944.964202,-0.056632,-0.059178,-0.000316,0.996640,-0.007401,-0.001200,-0.023615,-0.005180,-0.003760,0.002967,-0.117995,0.112845,-0.986582
1762622944.991872,-0.056823,-0.058790,-0.000617,0.996652,0.006659,0.008539,-0.014526,-0.005092,-0.004988,0.004186,-0.117256,0.113194,-0.986630
1762622945.022494,-0.056638,-0.059116,-0.000705,0.996643,0.005442,0.008593,-0.011467,-0.006017,-0.003054,0.002079,-0.117916,0.112813,-0.986595
1762622945.022815,-0.056453,-0.059443,-0.000794,0.996634,0.004225,0.008646,-0.008408,-0.006941,-0.001119,-0.000028,-0.118576,0.112432,-0.986559
1762622945.052744,-0.055747,-0.060371,-0.001081,0.996617,-0.012619,0.005994,-0.009693,-0.004644,0.002020,-0.002185,-0.120454,0.110986,-0.986495
1762622945.060642,-0.055512,-0.060711,-0.001324,0.996610,-0.025716,0.003040,-0.012825,-0.002855,0.001276,-0.001745,-0.121158,0.110487,-0.986465
1762622945.090871,-0.055698,-0.060901,-0.001437,0.996587,-0.027025,0.001686,-0.013575,-0.002013,0.001055,-0.001394,-0.121547,0.110841,-0.986378
1762622945.121395,-0.055973,-0.061069,-0.001536,0.996562,-0.028090,-0.001737,-0.012148,-0.002681,0.000701,-0.001152,-0.121889,0.111373,-0.986275
1762622945.121789,-0.056248,-0.061236,-0.001634,0.996536,-0.029155,-0.005160,-0.010721,-0.003349,0.000348,-0.000909,-0.122231,0.111906,-0.986173
1762622945.152845,-0.056665,-0.061675,-0.001780,0.996485,-0.014712,-0.013641,-0.001748,-0.000854,-0.000284,-0.000441,-0.123119,0.112712,-0.985970
1762622945.198613,-0.056701,-0.061877,-0.001758,0.996470,-0.007095,-0.015577,0.001167,-0.000348,-0.000118,0.001106,-0.123517,0.112783,-0.985912
1762622945.198924,-0.056736,-0.062080,-0.001735,0.996456,0.000522,-0.017512,0.004081,0.000158,0.000049,0.002653,-0.123916,0.112855,-0.985854
1762622945.200538,-0.056606,-0.062501,-0.001657,0.996437,0.019570,-0.017978,0.010145,0.000922,-0.000400,0.004694,-0.124745,0.112601,-0.985779
1762622945.229480,-0.056461,-0.062596,-0.001601,0.996439,0.020297,-0.016910,0.005431,0.001414,0.003232,0.002102,-0.124927,0.112319,-0.985788
1762622945.259880,-0.056376,-0.062708,-0.001562,0.996437,0.021019,-0.018670,0.003646,0.000541,0.001920,0.000704,-0.125145,0.112155,-0.985779
1762622945.261466,-0.056240,-0.063005,-0.001477,0.996426,0.011202,-0.033325,-0.004909,-0.002030,0.002162,-0.002357,-0.125725,0.111892,-0.985735
1762622945.294203,-0.056258,-0.063204,-0.001525,0.996413,-0.002226,-0.031378,-0.011650,-0.000041,0.003301,-0.002446,-0.126125,0.111919,-0.985681
1762622945.327339,-0.056603,-0.063534,-0.001742,0.996372,-0.024470,-0.027419,-0.027821,0.003642,0.001652,0.000128,-0.126805,0.112573,-0.985519
1762622945.327692,-0.056785,-0.063650,-0.001914,0.996354,-0.023902,-0.012029,-0.019907,0.005005,-0.001951,0.001073,-0.127053,0.112911,-0.985448
1762622945.359908,-0.056951,-0.063689,-0.002032,0.996341,-0.024392,-0.010147,-0.017620,0.002664,-0.002009,-0.000494,-0.127144,0.113227,-0.985400
1762622945.372023,-0.057252,-0.063775,-0.002178,0.996318,-0.021860,-0.014426,-0.010224,0.001482,-0.002867,-0.001469,-0.127330,0.113805,-0.985310
1762622945.405228,-0.057426,-0.063837,-0.002214,0.996304,-0.020277,-0.019150,-0.004487,0.001211,-0.002757,-0.000816,-0.127456,0.114145,-0.985254
1762622945.405465,-0.057600,-0.063899,-0.002249,0.996290,-0.018693,-0.023874,0.001250,0.000941,-0.002647,-0.000164,-0.127582,0.114485,-0.985198
1762622945.435381,-0.057835,-0.064068,-0.002202,0.996266,-0.021650,-0.019134,0.006832,-0.001709,-0.000702,0.003095,-0.127913,0.114956,-0.985101
1762622945.500705,-0.058003,-0.064378,-0.002033,0.996236,-0.016494,-0.026940,0.017224,-0.006217,-0.001924,0.001313,-0.128507,0.115308,-0.984982
1762622945.501031,-0.058059,-0.064535,-0.001895,0.996223,-0.011363,-0.021991,0.021977,-0.004810,-0.000299,0.003019,-0.128802,0.115436,-0.984929
1762622945.501438,-0.058116,-0.064691,-0.001757,0.996210,-0.006233,-0.017042,0.026730,-0.003403,0.001327,0.004725,-0.129096,0.115563,-0.984875
1762622945.501579,-0.058172,-0.064848,-0.001618,0.996197,-0.001102,-0.012094,0.031483,-0.001996,0.002952,0.006431,-0.129390,0.115691,-0.984822
1762622945.530037,-0.058110,-0.065197,-0.001151,0.996178,0.014341,-0.022866,0.015301,-0.005141,0.005560,0.003279,-0.130029,0.115626,-0.984745
1762622945.559266,-0.057914,-0.065375,-0.001040,0.996178,0.030588,-0.012255,0.012494,-0.004148,0.006631,0.005946,-0.130370,0.115249,-0.984744
1762622945.560479,-0.057281,-0.065550,-0.000865,0.996203,0.051694,0.001107,-0.009011,-0.005319,0.011217,0.003115,-0.130702,0.114014,-0.984844
1762622945.591325,-0.057000,-0.065643,-0.000964,0.996213,0.056801,0.001046,-0.020802,-0.003370,0.009130,0.006470,-0.130898,0.113442,-0.984884
1762622945.628809,-0.056532,-0.065597,-0.001232,0.996243,0.059426,0.015278,-0.027319,-0.002962,0.008340,0.006401,-0.130840,0.112477,-0.985003
1762622945.629123,-0.056063,-0.065551,-0.001500,0.996272,0.062050,0.029510,-0.033835,-0.002553,0.007549,0.006331,-0.130781,0.111511,-0.985120
1762622945.658175,-0.055748,-0.065420,-0.001766,0.996298,0.057753,0.028836,-0.039534,-0.004087,0.004911,0.004846,-0.130553,0.110851,-0.985225
1762622945.690038,-0.055093,-0.065080,-0.002415,0.996355,0.053626,0.032499,-0.037835,-0.004517,-0.003695,0.002976,-0.129952,0.109469,-0.985459
1762622945.719408,-0.054826,-0.064910,-0.002591,0.996381,0.051630,0.031340,-0.031406,-0.004505,-0.004659,0.001157,-0.129635,0.108918,-0.985562
1762622945.719704,-0.054558,-0.064740,-0.002766,0.996406,0.049634,0.030180,-0.024977,-0.004492,-0.005624,-0.000663,-0.129317,0.108366,-0.985664
1762622945.721366,-0.053992,-0.064411,-0.003049,0.996457,0.037199,0.024258,-0.013486,-0.004152,-0.004409,-0.001830,-0.128695,0.107209,-0.985872
1762622945.750444,-0.053767,-0.064268,-0.003133,0.996478,0.028451,0.026817,-0.006265,-0.002469,-0.005175,-0.001672,-0.128420,0.106752,-0.985958
1762622945.798758,-0.053393,-0.064026,-0.003167,0.996514,0.011336,0.016945,0.004600,-0.002544,-0.005974,-0.002713,-0.127944,0.106007,-0.986100
1762622945.799044,-0.053327,-0.063966,-0.003146,0.996521,0.006992,0.016199,0.007340,-0.001398,-0.005946,-0.001872,-0.127822,0.105880,-0.986129
1762622945.800837,-0.053195,-0.063839,-0.003070,0.996537,-0.000879,0.015550,0.009109,-0.000621,-0.007353,0.000284,-0.127563,0.105630,-0.986190
1762622945.829606,-0.053169,-0.063771,-0.003016,0.996543,0.000487,0.014189,0.008995,0.000226,-0.006681,0.002547,-0.127422,0.105586,-0.986213
1762622945.866195,-0.053037,-0.063535,-0.002883,0.996565,0.004011,0.014942,0.008923,0.000707,-0.007130,0.000986,-0.126939,0.105344,-0.986301
1762622945.866493,-0.052933,-0.063449,-0.002840,0.996576,0.009560,0.019655,0.010589,0.002668,-0.006959,0.004805,-0.126765,0.105143,-0.986345
1762622945.895748,-0.052801,-0.063257,-0.002788,0.996596,0.011485,0.027267,0.008895,0.001857,-0.004909,0.002529,-0.126378,0.104889,-0.986421
1762622945.927798,-0.052462,-0.062746,-0.002683,0.996646,0.010352,0.030037,0.005216,-0.002292,-0.003495,-0.002443,-0.125352,0.104236,-0.986621
1762622945.928086,-0.052375,-0.062616,-0.002682,0.996659,0.001642,0.018639,-0.004682,-0.002328,-0.002087,-0.003870,-0.125095,0.104065,-0.986672
1762622945.964625,-0.052331,-0.062458,-0.002868,0.996671,-0.005816,0.012329,-0.015771,0.001162,-0.004444,0.004240,-0.124800,0.103955,-0.986721
1762622945.964914,-0.052336,-0.062366,-0.002989,0.996676,-0.004032,0.017786,-0.019118,0.001746,-0.006192,0.004238,-0.124630,0.103952,-0.986743
1762622945.993036,-0.052329,-0.062178,-0.003152,0.996687,-0.001146,0.033312,-0.019114,0.002670,-0.008345,0.005447,-0.124273,0.103919,-0.986791
1762622946.029997,-0.052346,-0.061600,-0.003436,0.996721,-0.011632,0.034224,-0.011355,-0.000964,-0.004558,-0.004404,-0.123156,0.103925,-0.986931
1762622946.030324,-0.052393,-0.061450,-0.003498,0.996728,-0.018202,0.028080,-0.015364,-0.000745,-0.001714,-0.004199,-0.122865,0.104013,-0.986958
1762622946.060607,-0.052722,-0.061144,-0.003703,0.996729,-0.037641,0.011110,-0.006318,0.002155,-0.004195,-0.001696,-0.122278,0.104646,-0.986964
1762622946.060946,-0.052924,-0.061042,-0.003790,0.996724,-0.041941,0.010697,-0.006618,0.002541,-0.005596,-0.002176,-0.122085,0.105038,-0.986946
1762622946.100321,-0.053076,-0.060984,-0.003825,0.996719,-0.038436,0.009752,-0.005080,0.001973,-0.006554,-0.001370,-0.121974,0.105338,-0.986928
1762622946.100597,-0.053229,-0.060926,-0.003860,0.996714,-0.034932,0.008808,-0.003541,0.001405,-0.007511,-0.000564,-0.121863,0.105638,-0.986909
1762622946.133424,-0.053567,-0.060851,-0.003781,0.996701,-0.019107,0.001586,0.013394,0.000130,-0.006116,-0.002168,-0.121706,0.106321,-0.986855
1762622946.167206,-0.053796,-0.060771,-0.003514,0.996695,-0.012994,0.013250,0.019773,0.002661,-0.002894,0.004384,-0.121519,0.106808,-0.986826
1762622946.167495,-0.053866,-0.060682,-0.003345,0.996697,-0.019450,0.001542,0.023184,-0.000259,0.000438,-0.002217,-0.121324,0.106970,-0.986832
1762622946.195780,-0.053949,-0.060718,-0.003225,0.996691,-0.019187,-0.000395,0.014377,0.002005,0.001705,0.000918,-0.121383,0.107149,-0.986806
1762622946.226365,-0.054151,-0.060705,-0.003005,0.996681,-0.013734,0.006788,0.013371,0.003202,0.000770,-0.000573,-0.121332,0.107578,-0.986765
1762622946.226683,-0.054245,-0.060668,-0.002912,0.996679,-0.017678,-0.004044,0.009028,-0.001119,0.001714,-0.004073,-0.121248,0.107777,-0.986754
1762622946.259145,-0.054500,-0.060851,-0.002812,0.996654,-0.013816,-0.018144,0.003677,0.001267,-0.001974,-0.000760,-0.121602,0.108292,-0.986654
1762622946.296517,-0.054549,-0.060925,-0.002758,0.996647,-0.008820,-0.014287,0.006910,0.001276,-0.002153,0.000463,-0.121742,0.108397,-0.986625
1762622946.296880,-0.054599,-0.060998,-0.002703,0.996640,-0.003825,-0.010430,0.010143,0.001285,-0.002332,0.001686,-0.121882,0.108502,-0.986596
1762622946.327560,-0.054653,-0.061146,-0.002490,0.996628,-0.001072,-0.008858,0.014515,-0.000844,0.000528,0.002202,-0.122152,0.108633,-0.986548
1762622946.327889,-0.054682,-0.061178,-0.002387,0.996625,-0.004528,-0.007096,0.014024,-0.001136,0.001402,0.002203,-0.122204,0.108703,-0.986534
1762622946.361184,-0.054805,-0.061252,-0.002154,0.996614,-0.009568,0.001598,0.011876,-0.000150,0.001840,0.002729,-0.122326,0.108975,-0.986489
1762622946.361490,-0.054866,-0.061225,-0.002071,0.996613,-0.011706,0.001830,0.007679,-0.000432,0.002686,0.002730,-0.122263,0.109106,-0.986483
1762622946.409210,-0.054993,-0.061218,-0.002070,0.996606,-0.013021,0.001427,0.004366,-0.000304,0.001881,0.001905,-0.122248,0.109360,-0.986456
1762622946.409484,-0.055121,-0.061210,-0.002069,0.996600,-0.014337,0.001024,0.001053,-0.000175,0.001076,0.001080,-0.122232,0.109614,-0.986430
1762622946.441092,-0.055386,-0.061209,-0.002077,0.996585,-0.014170,-0.005713,-0.000381,-0.000295,-0.000099,0.000050,-0.122230,0.110139,-0.986372
1762622946.441419,-0.055493,-0.061249,-0.002071,0.996577,-0.012899,-0.004375,0.001999,-0.000871,-0.000291,0.000148,-0.122308,0.110353,-0.986338
1762622946.471046,-0.055606,-0.061290,-0.002065,0.996568,-0.012838,-0.004311,0.002112,-0.000898,-0.000300,0.000153,-0.122389,0.110577,-0.986303
1762622946.499194,-0.055823,-0.061379,-0.001988,0.996550,-0.012300,-0.005378,0.004548,0.000029,-0.000510,0.002729,-0.122556,0.111018,-0.986233
1762622946.529796,-0.055867,-0.061402,-0.001969,0.996547,-0.007614,-0.002160,0.003829,0.000311,-0.000500,0.002997,-0.122599,0.111106,-0.986217
1762622946.530160,-0.055911,-0.061424,-0.001949,0.996543,-0.002928,0.001058,0.003110,0.000593,-0.000490,0.003266,-0.122642,0.111195,-0.986202
1762622946.563296,-0.055955,-0.061392,-0.001918,0.996542,-0.002416,0.002993,0.003019,-0.001332,0.001128,-0.001360,-0.122575,0.111287,-0.986200
1762622946.563611,-0.055987,-0.061383,-0.001909,0.996541,-0.005431,-0.003627,0.003813,-0.004133,0.002534,-0.003248,-0.122554,0.111352,-0.986195
1762622946.593587,-0.056065,-0.061462,-0.001910,0.996532,-0.013622,-0.012937,-0.001806,-0.003111,0.001866,-0.000773,-0.122712,0.111506,-0.986158
1762622946.632457,-0.056308,-0.061688,-0.001951,0.996504,-0.013124,-0.006261,0.003321,-0.001152,-0.001843,0.001870,-0.123164,0.111981,-0.986048
1762622946.632871,-0.056349,-0.061753,-0.001931,0.996498,-0.010052,-0.006739,0.001427,-0.001044,-0.001808,0.002575,-0.123292,0.112065,-0.986023
1762622946.664060,-0.056451,-0.061794,-0.001871,0.996489,-0.004442,0.006713,0.008232,-0.001165,0.000272,0.000929,-0.123365,0.112275,-0.985990
1762622946.664366,-0.056486,-0.061766,-0.001823,0.996489,-0.009014,0.003249,0.007242,-0.002852,0.002138,-0.001236,-0.123304,0.112350,-0.985989
1762622946.698837,-0.056631,-0.061797,-0.001767,0.996479,-0.011049,0.000136,0.005369,-0.001174,0.002606,0.000694,-0.123358,0.112645,-0.985948
1762622946.728290,-0.056716,-0.061811,-0.001731,0.996474,-0.008306,0.001272,0.005103,-0.000748,0.002413,0.001805,-0.123382,0.112818,-0.985925
1762622946.728583,-0.056801,-0.061825,-0.001694,0.996468,-0.005563,0.002407,0.004837,-0.000322,0.002221,0.002916,-0.123406,0.112991,-0.985903
1762622946.743103,-0.056854,-0.061813,-0.001650,0.996466,-0.000905,0.000392,0.000787,-0.002174,-0.000348,0.002007,-0.123377,0.113103,-0.985893
1762622946.796191,-0.056830,-0.061811,-0.001611,0.996467,0.000016,-0.000573,0.002429,-0.002320,0.000239,0.001171,-0.123368,0.113059,-0.985900
1762622946.796504,-0.056805,-0.061809,-0.001572,0.996469,0.000938,-0.001538,0.004071,-0.002466,0.000827,0.000335,-0.123360,0.113015,-0.985906
1762622946.830389,-0.056763,-0.061768,-0.001454,0.996474,0.006156,0.022430,0.013079,0.000031,0.001672,0.004895,-0.123266,0.112945,-0.985925
1762622946.831096,-0.056761,-0.061697,-0.001385,0.996479,0.000179,0.005119,0.012263,-0.003881,0.002628,-0.001046,-0.123117,0.112951,-0.985943
1762622946.858370,-0.056785,-0.061673,-0.001317,0.996479,0.000352,0.005472,-0.003589,0.000838,0.001487,0.003760,-0.123062,0.113007,-0.985944
1762622946.888837,-0.056762,-0.061611,-0.001339,0.996484,0.001909,0.005004,-0.003616,-0.000243,0.000637,0.002363,-0.122940,0.112961,-0.985964
1762622946.889236,-0.056740,-0.061548,-0.001361,0.996489,0.003465,0.004535,-0.003644,-0.001323,-0.000213,0.000965,-0.122818,0.112915,-0.985985
1762622946.920306,-0.056683,-0.061513,-0.001432,0.996494,0.004424,0.000915,-0.003210,-0.001785,-0.000537,0.001214,-0.122758,0.112792,-0.986006
1762622946.920609,-0.056672,-0.061500,-0.001445,0.996496,0.010497,0.004879,-0.000609,0.000551,-0.001214,0.001356,-0.122733,0.112769,-0.986012
1762622946.963838,-0.056523,-0.061365,-0.001369,0.996513,0.009920,0.012585,0.004844,-0.000387,0.000099,-0.000164,-0.122456,0.112484,-0.986079
1762622946.964141,-0.056469,-0.061309,-0.001346,0.996519,0.008354,0.010424,0.005192,-0.001083,0.000276,-0.000459,-0.122343,0.112381,-0.986105
1762622947.002353,-0.056378,-0.061168,-0.001340,0.996533,0.006102,0.009496,0.000862,0.000000,0.000000,0.000000,-0.122062,0.112201,-0.986160
1762622947.002619,-0.056330,-0.061106,-0.001338,0.996540,0.006271,0.011955,-0.000055,0.000000,-0.000000,0.000000,-0.121940,0.112106,-0.986186
1762622947.031488,-0.056286,-0.061034,-0.001350,0.996546,0.003298,0.008454,-0.002100,0.001067,0.000808,0.000231,-0.121799,0.112019,-0.986213
1762622947.060515,-0.056230,-0.060836,-0.001406,0.996562,0.001298,0.009465,-0.007292,0.001757,0.000196,0.000095,-0.121411,0.111902,-0.986274
1762622947.060810,-0.056230,-0.060802,-0.001475,0.996564,0.001085,0.006368,-0.006136,0.001572,-0.000875,0.001145,-0.121352,0.111893,-0.986283
1762622947.091452,-0.056199,-0.060763,-0.001513,0.996568,0.003031,0.005084,-0.004585,0.000588,-0.000327,0.000428,-0.121280,0.111828,-0.986299
1762622947.121636,-0.056133,-0.060710,-0.001647,0.996574,0.006212,0.002997,-0.009205,-0.000468,-0.000733,0.000662,-0.121189,0.111681,-0.986327
1762622947.121985,-0.056087,-0.060653,-0.001701,0.996580,0.006726,0.006259,-0.008456,-0.000049,-0.000077,0.000070,-0.121082,0.111583,-0.986351
1762622947.158619,-0.055990,-0.060660,-0.001867,0.996585,0.005044,-0.000829,-0.008754,0.000248,-0.002173,-0.000559,-0.121115,0.111371,-0.986371
1762622947.188935,-0.055941,-0.060667,-0.001938,0.996587,0.007818,-0.001243,-0.008176,0.000238,-0.003330,0.001174,-0.121137,0.111265,-0.986380
1762622947.189184,-0.055892,-0.060674,-0.002008,0.996590,0.010593,-0.001656,-0.007597,0.000229,-0.004487,0.002907,-0.121159,0.111158,-0.986390
1762622947.217054,-0.055648,-0.060681,-0.002118,0.996603,0.015086,0.005036,-0.002568,0.000282,-0.003910,0.002419,-0.121184,0.110661,-0.986442
1762622947.247531,-0.055551,-0.060667,-0.002137,0.996609,0.012008,0.000375,-0.003027,-0.002285,-0.003704,-0.000469,-0.121161,0.110467,-0.986467
1762622947.247927,-0.055455,-0.060654,-0.002157,0.996615,0.008931,-0.004285,-0.003486,-0.004852,-0.003497,-0.003357,-0.121137,0.110273,-0.986492
1762622947.317593,-0.055450,-0.060905,-0.002177,0.996600,-0.006605,-0.013918,-0.002186,-0.002755,-0.003213,-0.000771,-0.121636,0.110257,-0.986432
1762622947.317953,-0.055571,-0.061016,-0.002182,0.996586,-0.013690,-0.005260,0.001730,-0.001678,-0.003067,0.000483,-0.121857,0.110496,-0.986378
1762622947.318210,-0.055692,-0.061127,-0.002186,0.996573,-0.020775,0.003399,0.005646,-0.000602,-0.002922,0.001737,-0.122078,0.110735,-0.986324
1762622947.323944,-0.056065,-0.061124,-0.002103,0.996552,-0.037921,0.001092,0.010800,-0.004033,-0.000090,-0.001925,-0.122062,0.111485,-0.986241
1762622947.353116,-0.056370,-0.061152,-0.002040,0.996533,-0.045263,-0.006069,0.012619,-0.002690,0.000479,-0.002307,-0.122110,0.112099,-0.986166
1762622947.383964,-0.056681,-0.061203,-0.001973,0.996513,-0.045021,-0.004819,0.012623,-0.000932,0.000772,0.000194,-0.122203,0.112725,-0.986083
1762622947.384253,-0.056992,-0.061255,-0.001906,0.996492,-0.044779,-0.003570,0.012626,0.000826,0.001065,0.002695,-0.122296,0.113351,-0.986000
1762622947.414369,-0.057609,-0.061291,-0.001738,0.996454,-0.032740,-0.006494,0.010947,-0.000788,0.000500,0.002158,-0.122348,0.114597,-0.985849
1762622947.444930,-0.057795,-0.061339,-0.001663,0.996441,-0.026264,-0.007563,0.011234,-0.001846,0.001088,0.002614,-0.122434,0.114975,-0.985794
1762622947.445272,-0.057981,-0.061387,-0.001588,0.996427,-0.019788,-0.008631,0.011521,-0.002905,0.001677,0.003070,-0.122519,0.115352,-0.985740
1762622947.478604,-0.058182,-0.061438,-0.001375,0.996413,-0.006830,0.000423,0.013301,-0.001485,0.002857,0.004394,-0.122595,0.115777,-0.985681
1762622947.481024,-0.058256,-0.061368,-0.001174,0.996413,-0.000942,-0.006798,0.007904,-0.004529,0.003447,-0.002344,-0.122433,0.115950,-0.985680
1762622947.518650,-0.058241,-0.061435,-0.001171,0.996410,0.003173,-0.004344,-0.001590,-0.002026,0.002500,0.001616,-0.122565,0.115920,-0.985668
1762622947.521130,-0.058092,-0.061466,-0.001249,0.996416,0.020842,0.009167,-0.006330,-0.001322,0.001825,0.002153,-0.122637,0.115613,-0.985694
1762622947.550593,-0.057940,-0.061455,-0.001306,0.996426,0.021108,0.003171,-0.008846,-0.002649,0.000863,0.000197,-0.122622,0.115305,-0.985732
1762622947.599014,-0.057824,-0.061476,-0.001382,0.996431,0.017125,0.004126,-0.008332,-0.002232,0.000413,0.001152,-0.122673,0.115066,-0.985754
1762622947.599303,-0.057708,-0.061497,-0.001457,0.996437,0.013141,0.005081,-0.007818,-0.001816,-0.000037,0.002108,-0.122723,0.114826,-0.985776
1762622947.600807,-0.057498,-0.061430,-0.001558,0.996453,0.010989,0.010485,-0.001299,-0.001227,-0.001725,0.001704,-0.122603,0.114398,-0.985841
1762622947.631573,-0.057434,-0.061357,-0.001561,0.996461,0.009612,0.011214,0.000047,-0.002168,-0.001223,0.000936,-0.122459,0.114271,-0.985873
1762622947.662680,-0.057376,-0.061284,-0.001561,0.996469,0.008180,0.011075,-0.000692,-0.002011,-0.000939,0.000647,-0.122315,0.114155,-0.985905
1762622947.663040,-0.057317,-0.061211,-0.001561,0.996476,0.006748,0.010935,-0.001430,-0.001854,-0.000655,0.000357,-0.122170,0.114039,-0.985936
1762622947.694203,-0.057174,-0.061019,-0.001638,0.996496,0.010387,0.010796,-0.003577,0.000264,-0.000266,0.001033,-0.121797,0.113748,-0.986016
1762622947.725941,-0.057121,-0.060936,-0.001687,0.996505,0.008082,0.011265,-0.005640,-0.000293,0.000014,0.000949,-0.121638,0.113638,-0.986048
1762622947.726228,-0.057068,-0.060853,-0.001736,0.996513,0.005776,0.011733,-0.007702,-0.000850,0.000294,0.000865,-0.121479,0.113527,-0.986080
1762622947.755828,-0.057031,-0.060752,-0.001885,0.996521,0.002081,0.007519,-0.008882,-0.001325,-0.000582,0.000186,-0.121296,0.113437,-0.986113
1762622947.762041,-0.057033,-0.060672,-0.002046,0.996525,0.000279,-0.001658,-0.005863,-0.001284,-0.002369,-0.000307,-0.121155,0.113421,-0.986132
1762622947.792165,-0.057027,-0.060690,-0.002070,0.996524,0.001177,-0.003848,-0.002284,-0.000780,-0.002792,-0.001693,-0.121194,0.113406,-0.986129
1762622947.820558,-0.056992,-0.060730,-0.002074,0.996524,0.002602,-0.006272,0.002139,-0.001857,-0.003336,-0.001231,-0.121274,0.113337,-0.986127
1762622947.820853,-0.056958,-0.060770,-0.002077,0.996523,0.004027,-0.008697,0.006561,-0.002934,-0.003879,-0.000770,-0.121353,0.113267,-0.986126
1762622947.853795,-0.056870,-0.060912,-0.001964,0.996520,0.003406,-0.003682,0.005865,-0.001252,-0.001879,0.003875,-0.121624,0.113104,-0.986111
1762622947.860053,-0.056779,-0.060922,-0.001867,0.996525,0.002908,-0.000583,0.003834,-0.000981,-0.001787,0.003059,-0.121632,0.112935,-0.986129
1762622947.909097,-0.056713,-0.060850,-0.001857,0.996533,0.004702,0.009433,0.000769,-0.000214,-0.001529,0.001235,-0.121489,0.112806,-0.986162
1762622947.938569,-0.056647,-0.060760,-0.001859,0.996542,0.002055,0.003038,-0.000493,-0.004020,-0.001502,-0.002572,-0.121310,0.112676,-0.986199
1762622947.938895,-0.056652,-0.060810,-0.001859,0.996539,-0.004940,-0.007608,-0.000534,-0.004348,-0.001516,-0.000583,-0.121410,0.112686,-0.986185
1762622947.968985,-0.056740,-0.060925,-0.001850,0.996527,-0.009289,-0.009849,0.002076,-0.002076,-0.002457,0.001573,-0.121637,0.112860,-0.986137
1762622947.998022,-0.056849,-0.061002,-0.001815,0.996516,-0.012894,-0.004405,0.004774,-0.000972,-0.002345,0.004488,-0.121786,0.113080,-0.986094
1762622948.000058,-0.056970,-0.060942,-0.001752,0.996513,-0.010378,0.014846,0.011123,0.000377,-0.001560,0.005067,-0.121658,0.113329,-0.986081
1762622948.029256,-0.057106,-0.060792,-0.001691,0.996514,-0.015090,0.017155,0.006383,-0.001181,0.000694,0.000464,-0.121353,0.113609,-0.986086
1762622948.038478,-0.057272,-0.060638,-0.001666,0.996514,-0.016769,0.007575,-0.000093,-0.000073,0.001730,-0.002066,-0.121045,0.113943,-0.986086
1762622948.076636,-0.057432,-0.060558,-0.001688,0.996510,-0.015234,0.006277,0.000277,0.001765,0.001277,-0.000266,-0.120886,0.114259,-0.986069
1762622948.078479,-0.057586,-0.060514,-0.001703,0.996503,-0.014145,0.000600,0.000607,0.001049,0.001063,-0.000614,-0.120802,0.114562,-0.986044
1762622948.106873,-0.057726,-0.060520,-0.001702,0.996495,-0.011412,-0.003531,0.003046,-0.001203,-0.000570,-0.000370,-0.120812,0.114840,-0.986010
1762622948.137397,-0.057815,-0.060580,-0.001630,0.996486,-0.001969,-0.006829,0.012252,-0.001484,-0.002351,0.000980,-0.120923,0.115027,-0.985975
1762622948.139562,-0.057821,-0.060656,-0.001454,0.996482,0.002881,-0.010404,0.018334,-0.001074,-0.000622,0.001734,-0.121053,0.115059,-0.985955
1762622948.198987,-0.057776,-0.060685,-0.001237,0.996483,0.003393,-0.011463,0.015599,-0.001887,0.001721,0.000347,-0.121086,0.114995,-0.985959
1762622948.199328,-0.057730,-0.060714,-0.001020,0.996484,0.003905,-0.012523,0.012864,-0.002701,0.004064,-0.001039,-0.121118,0.114930,-0.985962
1762622948.200019,-0.057669,-0.060832,-0.000942,0.996480,0.004604,-0.009104,-0.000670,-0.001370,0.003678,0.001741,-0.121344,0.114817,-0.985948
1762622948.229294,-0.057588,-0.060887,-0.000957,0.996482,0.007524,0.000371,-0.004837,-0.000857,0.002625,0.001078,-0.121455,0.114655,-0.985953
1762622948.259901,-0.057505,-0.060908,-0.001032,0.996485,0.006431,-0.003218,-0.010109,-0.003986,0.001121,0.002276,-0.121507,0.114480,-0.985967
1762622948.262039,-0.057444,-0.060998,-0.001141,0.996483,0.003231,-0.006409,-0.008897,-0.005549,-0.001872,0.003347,-0.121698,0.114346,-0.985959
1762622948.298924,-0.057380,-0.061028,-0.001203,0.996485,0.010585,0.001716,-0.002237,-0.003566,-0.003974,0.005174,-0.121765,0.114210,-0.985966
1762622948.300237,-0.057306,-0.060989,-0.001187,0.996491,0.009087,0.006079,0.001675,-0.004074,-0.002372,0.003242,-0.121687,0.114066,-0.985993
1762622948.330061,-0.057223,-0.060951,-0.001153,0.996499,0.008541,0.007669,0.003101,-0.003674,-0.001592,0.002439,-0.121607,0.113905,-0.986021
1762622948.359513,-0.057158,-0.060842,-0.001142,0.996509,0.005070,0.013698,0.002949,-0.001560,-0.001121,0.002285,-0.121391,0.113778,-0.986062
1762622948.361380,-0.057133,-0.060698,-0.001129,0.996519,-0.000349,0.019169,0.000664,-0.001364,0.000738,0.002233,-0.121103,0.113730,-0.986103
1762622948.391241,-0.057168,-0.060504,-0.001184,0.996529,-0.010324,0.017503,-0.006888,-0.000690,0.000662,0.000346,-0.120724,0.113796,-0.986142
1762622948.399597,-0.057310,-0.060334,-0.001292,0.996531,-0.018535,0.017249,-0.012497,-0.000762,-0.000415,-0.000221,-0.120397,0.114066,-0.986151
1762622948.428943,-0.057492,-0.060179,-0.001483,0.996529,-0.020475,0.015582,-0.020013,-0.000862,-0.000343,0.000025,-0.120111,0.114407,-0.986146
1762622948.456976,-0.057673,-0.060076,-0.001662,0.996525,-0.013689,0.012709,-0.015412,-0.000636,-0.003095,0.000209,-0.119926,0.114746,-0.986129
1762622948.459706,-0.057822,-0.059983,-0.001809,0.996522,-0.009213,0.007627,-0.009339,-0.000420,-0.004002,0.001171,-0.119757,0.115024,-0.986117
1762622948.501331,-0.057891,-0.059887,-0.001863,0.996523,-0.004002,0.006139,-0.001359,-0.000094,-0.003746,0.000046,-0.119574,0.115155,-0.986124
1762622948.501602,-0.057931,-0.059841,-0.001858,0.996524,-0.003647,0.002259,0.002673,0.000195,-0.002632,-0.001344,-0.119481,0.115237,-0.986126
1762622948.530745,-0.057951,-0.059848,-0.001816,0.996522,-0.001877,0.000528,0.004734,0.000141,-0.001337,-0.000903,-0.119490,0.115281,-0.986120
1762622948.537473,-0.057969,-0.059846,-0.001752,0.996521,-0.001565,-0.000143,0.003599,-0.000349,-0.001062,0.000261,-0.119479,0.115325,-0.986116
1762622948.567503,-0.057953,-0.059869,-0.001728,0.996521,0.000228,-0.002735,0.000259,-0.000371,-0.000925,0.001565,-0.119521,0.115295,-0.986114
1762622948.593124,-0.057918,-0.059928,-0.001729,0.996520,0.004805,-0.002259,0.000371,-0.000264,-0.002809,0.003017,-0.119639,0.115226,-0.986108
1762622948.597195,-0.057841,-0.059949,-0.001711,0.996523,0.006791,0.001021,0.001124,0.001593,-0.001333,0.001683,-0.119680,0.115074,-0.986121
1762622948.633813,-0.057778,-0.059907,-0.001678,0.996529,0.002141,0.002295,0.004075,-0.001165,-0.000980,-0.002036,-0.119592,0.114954,-0.986146
1762622948.635973,-0.057775,-0.059930,-0.001614,0.996528,-0.006678,-0.007712,0.008579,-0.004392,-0.000150,-0.007210,-0.119631,0.114956,-0.986141
1762622948.664479,-0.057895,-0.060126,-0.001528,0.996509,-0.018044,-0.025743,0.006300,-0.004319,-0.001026,-0.004639,-0.120009,0.115201,-0.986066
1762622948.695383,-0.058070,-0.060380,-0.001450,0.996484,-0.011995,-0.025191,0.006690,-0.002368,-0.004682,0.000868,-0.120504,0.115556,-0.985964
1762622948.697280,-0.058173,-0.060609,-0.001343,0.996464,-0.005169,-0.016312,0.010466,-0.000439,-0.003871,0.005675,-0.120946,0.115772,-0.985885
1762622948.725671,-0.058186,-0.060648,-0.001188,0.996461,-0.000825,0.002370,0.013412,-0.002439,0.000584,0.004426,-0.121006,0.115815,-0.985872
1762622948.755520,-0.058282,-0.060667,-0.001092,0.996455,-0.014765,-0.003114,0.005478,-0.004218,0.005631,0.000128,-0.121031,0.116018,-0.985845
1762622948.756543,-0.058465,-0.060725,-0.001086,0.996440,-0.023770,-0.010453,-0.001796,-0.003541,0.004492,0.000740,-0.121144,0.116381,-0.985789
1762622948.800733,-0.058689,-0.060817,-0.001162,0.996421,-0.020733,-0.003548,-0.004318,-0.001393,0.001204,0.002251,-0.121335,0.116817,-0.985714
1762622948.801031,-0.058842,-0.060846,-0.001218,0.996411,-0.010524,-0.002525,-0.004461,-0.003836,-0.001827,0.002283,-0.121398,0.117113,-0.985671
1762622948.832404,-0.058937,-0.060920,-0.001250,0.996400,-0.001329,-0.005342,-0.000322,-0.005541,-0.004081,0.002512,-0.121549,0.117298,-0.985630
1762622948.832720,-0.058913,-0.060983,-0.001184,0.996398,0.007735,-0.001954,0.011686,-0.005967,-0.004193,0.004041,-0.121666,0.117256,-0.985621
1762622948.863789,-0.058856,-0.061004,-0.001008,0.996400,0.004691,-0.004961,0.018199,-0.005129,-0.001288,0.002678,-0.121687,0.117164,-0.985629
1762622948.893223,-0.058855,-0.060966,-0.000820,0.996403,0.001725,0.010291,0.021580,-0.003736,0.000969,0.003053,-0.121590,0.117187,-0.985638
1762622948.895160,-0.058924,-0.060960,-0.000603,0.996399,-0.009034,-0.008796,0.016091,-0.004656,0.002754,-0.002276,-0.121551,0.117349,-0.985624
1762622948.924348,-0.058995,-0.061060,-0.000486,0.996389,-0.004814,-0.003181,0.006813,-0.001196,0.001300,0.000871,-0.121737,0.117504,-0.985583
1762622948.955220,-0.059040,-0.061043,-0.000415,0.996388,-0.002125,0.004187,0.006822,-0.002731,0.001141,0.001076,-0.121693,0.117603,-0.985576
1762622948.971052,-0.059101,-0.061041,-0.000370,0.996384,-0.004447,-0.001292,0.001449,-0.006168,0.000093,-0.000427,-0.121685,0.117730,-0.985562
1762622948.973181,-0.059152,-0.061105,-0.000358,0.996377,-0.003860,-0.001239,0.000834,-0.003392,-0.000044,0.002776,-0.121810,0.117832,-0.985534
1762622949.003192,-0.059154,-0.061087,-0.000327,0.996378,0.005016,0.007125,0.004152,-0.001627,-0.002452,0.005126,-0.121770,0.117840,-0.985538
1762622949.032852,-0.059061,-0.060958,-0.000273,0.996391,0.014137,0.011538,0.003822,-0.001823,-0.002180,0.003672,-0.121509,0.117662,-0.985592
1762622949.033127,-0.058885,-0.060829,-0.000252,0.996410,0.015465,0.012331,-0.002440,-0.001639,0.001267,0.002048,-0.121250,0.117316,-0.985665
1762622949.061767,-0.058744,-0.060712,-0.000288,0.996425,0.013594,0.012902,-0.006847,-0.000495,0.001926,0.003083,-0.121024,0.117032,-0.985726
1762622949.098774,-0.058599,-0.060527,-0.000384,0.996445,0.010821,0.018934,-0.009986,-0.000117,0.000457,0.000731,-0.120668,0.116735,-0.985805
1762622949.100786,-0.058514,-0.060384,-0.000541,0.996459,0.006889,0.018169,-0.015485,0.000060,-0.000422,-0.000353,-0.120403,0.116549,-0.985860
1762622949.129680,-0.058451,-0.060220,-0.000700,0.996472,0.003408,0.012645,-0.013958,0.000189,-0.001159,-0.001133,-0.120097,0.116405,-0.985914
1762622949.144728,-0.058422,-0.060150,-0.000872,0.996478,0.001303,0.005299,-0.014187,-0.001197,-0.001802,-0.001072,-0.119978,0.116327,-0.985938
1762622949.175150,-0.058407,-0.060128,-0.001002,0.996480,0.000140,-0.000005,-0.006328,-0.001883,-0.003205,-0.000938,-0.119951,0.116283,-0.985946
1762622949.175379,-0.058365,-0.060135,-0.001043,0.996482,0.002651,-0.002545,-0.000558,-0.003050,-0.004428,0.000935,-0.119970,0.116194,-0.985955
1762622949.205035,-0.058368,-0.060212,-0.001004,0.996477,-0.002137,-0.008325,0.007286,-0.002719,-0.002208,0.000030,-0.120117,0.116203,-0.985936
1762622949.209835,-0.058401,-0.060287,-0.000919,0.996471,-0.003856,-0.007495,0.008972,-0.001850,-0.000891,0.001330,-0.120256,0.116278,-0.985910
1762622949.237992,-0.058461,-0.060345,-0.000795,0.996464,-0.006547,-0.004628,0.010662,-0.000774,-0.000317,0.002564,-0.120356,0.116412,-0.985882
1762622949.268102,-0.058540,-0.060355,-0.000681,0.996459,-0.008135,-0.002051,0.008835,-0.000461,-0.000749,0.002273,-0.120363,0.116584,-0.985861
1762622949.269173,-0.058603,-0.060373,-0.000598,0.996454,-0.005088,0.001935,0.005529,0.000154,0.000515,0.003186,-0.120387,0.116719,-0.985842
1762622949.300620,-0.058631,-0.060310,-0.000554,0.996456,-0.002392,0.004603,0.001071,-0.000062,0.000656,0.001165,-0.120258,0.116780,-0.985850
1762622949.329289,-0.058691,-0.060241,-0.000551,0.996457,-0.004183,0.012618,0.001324,0.000251,-0.000380,0.000772,-0.120119,0.116900,-0.985853
1762622949.331334,-0.058724,-0.060149,-0.000555,0.996460,-0.008387,-0.001402,-0.001825,-0.004817,0.000094,-0.003114,-0.119938,0.116966,-0.985867
1762622949.360956,-0.058830,-0.060196,-0.000561,0.996451,-0.011201,-0.009464,0.005063,-0.007740,-0.001079,-0.002892,-0.120030,0.117175,-0.985831
1762622949.399037,-0.058999,-0.060392,-0.000539,0.996429,-0.010395,-0.013203,0.006361,-0.006739,-0.004400,0.001214,-0.120417,0.117512,-0.985744
1762622949.399438,-0.059169,-0.060589,-0.000517,0.996407,-0.009590,-0.016943,0.007659,-0.005737,-0.007720,0.005319,-0.120803,0.117850,-0.985656
1762622949.428312,-0.059224,-0.060718,-0.000446,0.996396,0.001233,0.001759,0.006442,-0.004500,-0.006115,0.006335,-0.121052,0.117967,-0.985612
1762622949.430104,-0.059196,-0.060645,-0.000386,0.996403,0.001486,0.012916,0.002560,-0.004656,-0.001691,0.002249,-0.120899,0.117918,-0.985636
1762622949.459301,-0.059254,-0.060562,-0.000417,0.996404,-0.010873,0.002024,-0.013220,-0.005901,-0.000763,-0.000007,-0.120737,0.118031,-0.985642
1762622949.489848,-0.059389,-0.060612,-0.000659,0.996393,-0.018478,-0.006498,-0.031106,-0.002892,-0.007574,0.004827,-0.120864,0.118269,-0.985598
1762622949.491862,-0.059430,-0.060662,-0.001028,0.996387,0.004782,0.009031,-0.034862,-0.002248,-0.024077,0.012869,-0.121008,0.118305,-0.985576
1762622949.522526,-0.059256,-0.060609,-0.001356,0.996400,0.025209,0.007008,-0.028218,-0.007676,-0.035854,0.010581,-0.120943,0.117922,-0.985630
1762622949.527235,-0.058889,-0.060642,-0.001545,0.996420,0.039826,-0.000694,-0.015424,-0.013106,-0.043487,0.008249,-0.121031,0.117168,-0.985709
1762622949.555589,-0.058417,-0.060696,-0.001590,0.996444,0.044231,-0.002251,-0.000649,-0.015051,-0.047466,0.005828,-0.121145,0.116225,-0.985807
1762622949.586145,-0.057946,-0.060746,-0.001548,0.996469,0.039571,-0.006754,0.004791,-0.015414,-0.050578,0.010526,-0.121243,0.115295,-0.985904
1762622949.588239,-0.057463,-0.060756,-0.001461,0.996496,0.044257,0.007184,0.011315,-0.016849,-0.053991,0.007816,-0.121253,0.114346,-0.986013
1762622949.616698,-0.056978,-0.060825,-0.001331,0.996520,0.038679,-0.008539,0.006540,-0.017079,-0.055718,0.010020,-0.121379,0.113397,-0.986108
1762622949.647421,-0.056481,-0.060919,-0.001349,0.996542,0.042419,0.001410,-0.010182,-0.014930,-0.058436,0.018138,-0.121570,0.112407,-0.986198
1762622949.648787,-0.055883,-0.060867,-0.001453,0.996579,0.055870,0.015988,-0.018500,-0.016180,-0.057295,0.018595,-0.121480,0.111206,-0.986345
1762622949.701628,-0.055169,-0.060746,-0.001746,0.996626,0.057656,0.017177,-0.029769,-0.018537,-0.057644,0.016007,-0.121275,0.109753,-0.986533
1762622949.701918,-0.054455,-0.060625,-0.002039,0.996672,0.059442,0.018367,-0.041038,-0.020895,-0.057992,0.013418,-0.121069,0.108300,-0.986718
1762622949.733914,-0.053777,-0.060466,-0.002470,0.996718,0.055442,0.031629,-0.040888,-0.019552,-0.058159,0.011024,-0.120802,0.106903,-0.986904
1762622949.734210,-0.053199,-0.060159,-0.002821,0.996766,0.033261,0.040196,-0.031503,-0.019320,-0.055472,0.005540,-0.120228,0.105714,-0.987102
1762622949.761971,-0.052889,-0.059736,-0.003097,0.996807,-0.003389,0.048072,-0.017998,-0.020363,-0.049572,0.004299,-0.119419,0.105071,-0.987269
1762622949.767963,-0.053009,-0.059288,-0.003218,0.996827,-0.041525,0.050418,0.006520,-0.020852,-0.047879,0.004200,-0.118541,0.105300,-0.987350
1762622949.798415,-0.053495,-0.058843,-0.003133,0.996828,-0.076102,0.046784,0.019944,-0.021047,-0.045093,0.002782,-0.117648,0.106283,-0.987351
1762622949.828505,-0.054225,-0.058476,-0.002955,0.996811,-0.083499,0.039404,0.035097,-0.016748,-0.044144,0.006565,-0.116898,0.107758,-0.987281
1762622949.828770,-0.055044,-0.058054,-0.002666,0.996791,-0.094842,0.042156,0.036267,-0.010042,-0.033031,0.008563,-0.116028,0.109425,-0.987200
1762622949.869885,-0.055992,-0.057616,-0.002454,0.996764,-0.113761,0.050035,0.025501,-0.008562,-0.027882,0.012266,-0.115134,0.111338,-0.987091
1762622949.872146,-0.057161,-0.057259,-0.002369,0.996719,-0.136342,0.036319,0.022281,-0.008123,-0.030268,0.015207,-0.114414,0.113676,-0.986908
1762622949.901345,-0.058480,-0.056849,-0.002153,0.996666,-0.148474,0.043126,0.042243,-0.008503,-0.030511,0.012730,-0.113571,0.116326,-0.986696
1762622949.907139,-0.059985,-0.056377,-0.001738,0.996604,-0.163861,0.051056,0.065222,-0.005315,-0.023826,0.009101,-0.112580,0.119367,-0.986447
1762622949.937113,-0.061759,-0.055792,-0.001109,0.996530,-0.201137,0.061680,0.084739,-0.000641,-0.010041,0.002841,-0.111334,0.122965,-0.986146
1762622949.999200,-0.064767,-0.055012,-0.000040,0.996383,-0.261402,0.070293,0.120195,0.002262,-0.000504,0.005398,-0.109631,0.129061,-0.985558
1762622949.999508,-0.067774,-0.054231,0.001030,0.996225,-0.321666,0.078907,0.155652,0.005149,0.009040,0.007917,-0.107913,0.135148,-0.984931
1762622949.999796,-0.070780,-0.053449,0.002100,0.996057,-0.381931,0.087520,0.191108,0.008022,0.018593,0.010398,-0.106180,0.141227,-0.984267
1762622950.005750,-0.074665,-0.052498,0.003537,0.995820,-0.394367,0.076469,0.136663,0.012186,0.040382,0.010099,-0.104029,0.149077,-0.983338
1762622950.065313,-0.078413,-0.051588,0.004229,0.995576,-0.350425,0.091212,0.056247,0.018314,0.042490,0.013254,-0.102055,0.156569,-0.982380
1762622950.065601,-0.081472,-0.050906,0.003686,0.995368,-0.307966,0.065179,-0.022904,0.011308,0.033565,0.007049,-0.100739,0.162564,-0.981542
1762622950.094153,-0.084186,-0.050470,0.002829,0.995167,-0.260713,0.041059,-0.060853,0.007213,0.021560,0.007247,-0.099975,0.167843,-0.980731
1762622950.124258,-0.086536,-0.050254,0.001921,0.994979,-0.223397,0.019667,-0.066473,0.004087,0.013755,0.009728,-0.099670,0.172396,-0.979972
1762622950.124885,-0.088609,-0.050135,0.001151,0.994803,-0.198069,0.013561,-0.051330,0.006366,0.011168,0.011013,-0.099545,0.176413,-0.979270
1762622950.155030,-0.090512,-0.049961,0.000579,0.994641,-0.179949,0.028747,-0.031362,0.011904,0.013223,0.009732,-0.099281,0.180112,-0.978623
1762622950.188584,-0.092241,-0.049596,0.000245,0.994501,-0.166628,0.048100,-0.009930,0.013319,0.022747,0.002434,-0.098600,0.183492,-0.978064
1762622950.189649,-0.093931,-0.049124,0.000065,0.994366,-0.175739,0.045639,-0.001462,0.010528,0.034109,-0.008483,-0.097683,0.186809,-0.977528
1762622950.221765,-0.095772,-0.048751,-0.000123,0.994209,-0.193368,0.026553,-0.008827,0.009391,0.040098,-0.008463,-0.096961,0.190423,-0.976902
1762622950.223427,-0.097730,-0.048548,-0.000351,0.994028,-0.200686,0.012423,-0.014530,0.008934,0.041909,-0.003711,-0.096585,0.194259,-0.976184
1762622950.251830,-0.099726,-0.048473,-0.000657,0.993833,-0.199413,0.003408,-0.018652,0.009134,0.038767,0.002719,-0.096479,0.198157,-0.975410
1762622950.303123,-0.101698,-0.048428,-0.000890,0.993635,-0.191004,0.009689,-0.009651,0.007933,0.034595,0.005848,-0.096421,0.202015,-0.974624
1762622950.303403,-0.103670,-0.048383,-0.001123,0.993434,-0.182595,0.015969,-0.000649,0.006733,0.030426,0.008961,-0.096363,0.205870,-0.973823
1762622950.303848,-0.105588,-0.048304,-0.001233,0.993235,-0.178710,0.011296,0.007004,0.002813,0.026550,0.009594,-0.096214,0.209629,-0.973036
1762622950.332649,-0.107416,-0.048119,-0.001140,0.993048,-0.176272,0.015364,0.026441,-0.000159,0.025482,0.008187,-0.095814,0.213229,-0.972293
1762622950.366327,-0.109198,-0.047915,-0.000876,0.992864,-0.167213,0.019151,0.046932,0.000257,0.025964,0.010508,-0.095338,0.216753,-0.971560
1762622950.368520,-0.110887,-0.047569,-0.000469,0.992694,-0.159881,0.037373,0.061284,0.002427,0.031486,0.004374,-0.094547,0.220109,-0.970882
1762622950.412877,-0.112645,-0.046997,0.000087,0.992523,-0.172453,0.044129,0.065995,0.004159,0.040127,0.001006,-0.093272,0.223614,-0.970205
1762622950.413173,-0.114403,-0.046425,0.000643,0.992349,-0.185025,0.050885,0.070705,0.005886,0.048772,-0.002375,-0.091993,0.227115,-0.969513
1762622950.441850,-0.116267,-0.045848,0.001170,0.992158,-0.186515,0.046180,0.063645,0.005517,0.055939,-0.008050,-0.090706,0.230819,-0.968760
1762622950.443829,-0.118132,-0.045413,0.001546,0.991958,-0.172730,0.035556,0.036763,0.008791,0.060819,-0.007173,-0.089730,0.234505,-0.967965
1762622950.472920,-0.119739,-0.045087,0.001695,0.991780,-0.141593,0.023189,0.016323,0.008667,0.059014,-0.011211,-0.089027,0.237663,-0.967259
1762622950.503702,-0.121097,-0.044883,0.001726,0.991624,-0.121402,0.011519,0.009300,0.007135,0.056901,-0.014304,-0.088595,0.240321,-0.966642
1762622950.505794,-0.122344,-0.044752,0.001735,0.991477,-0.113329,0.017581,0.007959,0.006426,0.051969,-0.010217,-0.088316,0.242758,-0.966058
1762622950.534166,-0.123564,-0.044553,0.001750,0.991334,-0.123735,0.017244,0.005095,0.002281,0.047642,-0.011462,-0.087902,0.245142,-0.965494
1762622950.540607,-0.124924,-0.044342,0.001689,0.991173,-0.136272,0.024051,-0.001485,0.000279,0.040849,-0.008715,-0.087479,0.247793,-0.964855
1762622950.597927,-0.126590,-0.044039,0.001524,0.990976,-0.154579,0.032041,-0.007935,-0.001116,0.031335,-0.003425,-0.086897,0.251030,-0.964071
1762622950.598176,-0.128255,-0.043736,0.001359,0.990775,-0.172887,0.040032,-0.014384,-0.002510,0.021824,0.001853,-0.086316,0.254264,-0.963275
1762622950.600010,-0.130082,-0.043362,0.001129,0.990554,-0.182497,0.038356,-0.015277,-0.005564,0.011097,0.001063,-0.085611,0.257805,-0.962397
1762622950.637110,-0.131931,-0.043010,0.000852,0.990325,-0.180306,0.036541,-0.013520,-0.007223,0.003762,0.000878,-0.084963,0.261383,-0.961489
1762622950.640363,-0.133666,-0.042627,0.000623,0.990109,-0.161559,0.037598,-0.006990,-0.009270,-0.002384,0.001139,-0.084245,0.264740,-0.960633
1762622950.670956,-0.135186,-0.042294,0.000479,0.989917,-0.134324,0.032977,0.001084,-0.009617,-0.004525,0.002310,-0.083605,0.267686,-0.959872
1762622950.700704,-0.136362,-0.041971,0.000447,0.989769,-0.100304,0.030901,0.009920,-0.008049,-0.003263,0.000099,-0.082961,0.269972,-0.959288
1762622950.700993,-0.137230,-0.041701,0.000483,0.989661,-0.074891,0.021993,0.011041,-0.005910,-0.002636,0.000866,-0.082407,0.271663,-0.958858
1762622950.730150,-0.137861,-0.041494,0.000554,0.989582,-0.051408,0.020551,0.012677,-0.002626,-0.000349,0.005087,-0.081971,0.272895,-0.958545
1762622950.759287,-0.138290,-0.041305,0.000598,0.989530,-0.037374,0.015413,0.005899,-0.003717,0.001462,0.004105,-0.081579,0.273733,-0.958340
1762622950.761352,-0.138607,-0.041126,0.000599,0.989493,-0.027065,0.017899,0.002071,-0.000517,0.002231,0.004309,-0.081221,0.274351,-0.958194
1762622950.792477,-0.138834,-0.040873,0.000536,0.989472,-0.018205,0.026267,-0.001424,-0.000513,0.002530,-0.003780,-0.080736,0.274789,-0.958109
1762622950.799460,-0.139021,-0.040648,0.000435,0.989455,-0.017959,0.019504,-0.009082,-0.001626,0.002704,-0.006691,-0.080318,0.275146,-0.958042
1762622950.829514,-0.139176,-0.040493,0.000321,0.989439,-0.014548,0.011006,-0.010979,-0.003844,0.004292,-0.008149,-0.080042,0.275438,-0.957981
1762622950.859876,-0.139289,-0.040492,0.000148,0.989423,-0.007115,-0.002389,-0.017067,-0.003074,0.002595,-0.006894,-0.080086,0.275644,-0.957918
1762622950.860201,-0.139329,-0.040565,-0.000035,0.989415,-0.003168,-0.006114,-0.018245,-0.000363,0.002243,-0.002285,-0.080280,0.275705,-0.957884
1762622950.898724,-0.139321,-0.040570,-0.000203,0.989416,0.001015,0.010096,-0.011872,0.000370,0.001957,0.000543,-0.080337,0.275676,-0.957888
1762622950.900906,-0.139282,-0.040450,-0.000276,0.989426,0.000473,0.014415,0.001087,-0.002258,0.003419,-0.005256,-0.080122,0.275596,-0.957929
1762622950.929370,-0.139282,-0.040370,-0.000251,0.989429,-0.004725,0.000895,0.004740,-0.005130,0.005572,-0.007891,-0.079957,0.275599,-0.957942
1762622950.968900,-0.139316,-0.040434,-0.000113,0.989422,0.000013,-0.002238,0.010457,-0.004279,0.003687,-0.001688,-0.080043,0.275675,-0.957913
1762622950.969141,-0.139349,-0.040497,0.000026,0.989415,0.004751,-0.005372,0.016174,-0.003428,0.001801,0.004515,-0.080129,0.275751,-0.957883
1762622950.997904,-0.139288,-0.040567,0.000190,0.989421,0.013749,-0.007756,0.014171,-0.002152,0.000471,0.007776,-0.080222,0.275644,-0.957907
1762622951.000055,-0.139105,-0.040605,0.000321,0.989445,0.026532,0.004720,0.012951,-0.001767,0.000750,0.009921,-0.080263,0.275299,-0.958002
1762622951.029274,-0.138830,-0.040531,0.000425,0.989486,0.027388,0.004863,0.006673,-0.002406,0.002780,0.006216,-0.080091,0.274776,-0.958167
1762622951.059878,-0.138563,-0.040355,0.000491,0.989531,0.024544,0.022214,0.004606,-0.003773,0.004101,0.006546,-0.079728,0.274264,-0.958344
1762622951.061905,-0.138357,-0.040083,0.000504,0.989571,0.019431,0.030480,0.005165,-0.007970,0.006495,-0.000023,-0.079191,0.273869,-0.958501
1762622951.095910,-0.138212,-0.039687,0.000491,0.989607,0.008258,0.046666,-0.000650,-0.005135,0.012051,-0.000600,-0.078412,0.273591,-0.958645
1762622951.098132,-0.138178,-0.039089,0.000413,0.989636,-0.002964,0.067647,-0.006889,-0.003446,0.017093,0.000649,-0.077253,0.273524,-0.958758
1762622951.128517,-0.138245,-0.038390,0.000200,0.989654,-0.009853,0.079503,-0.016842,-0.002389,0.018308,0.001972,-0.075930,0.273644,-0.958829
1762622951.152089,-0.138379,-0.037689,-0.000162,0.989662,-0.013876,0.072949,-0.035435,-0.003221,0.015232,0.003286,-0.074644,0.273885,-0.958862
1762622951.199091,-0.138340,-0.037107,-0.000690,0.989689,0.003683,0.066414,-0.039277,-0.002638,0.009184,0.004817,-0.073639,0.273776,-0.958970
1762622951.199440,-0.138301,-0.036525,-0.001217,0.989716,0.021242,0.059879,-0.043119,-0.002054,0.003134,0.006347,-0.072635,0.273668,-0.959078
1762622951.200887,-0.138084,-0.036083,-0.001696,0.989762,0.032434,0.038938,-0.039129,-0.005354,-0.002158,0.003266,-0.071895,0.273218,-0.959262
1762622951.229543,-0.137686,-0.035820,-0.002064,0.989826,0.050244,0.027320,-0.026400,-0.003692,-0.008653,0.002749,-0.071479,0.272423,-0.959519
1762622951.236959,-0.137121,-0.035630,-0.002264,0.989911,0.066751,0.024370,-0.007378,-0.002873,-0.008292,0.001507,-0.071163,0.271314,-0.959856
1762622951.265371,-0.136460,-0.035439,-0.002277,0.990009,0.064539,0.016799,-0.000419,-0.004710,-0.002441,-0.004204,-0.070790,0.270032,-0.960246
1762622951.302415,-0.135872,-0.035350,-0.002282,0.990093,0.051779,0.007248,-0.003635,-0.003463,0.000833,-0.004462,-0.070620,0.268890,-0.960578
1762622951.304469,-0.135381,-0.035339,-0.002360,0.990160,0.044293,0.004659,-0.011554,-0.002763,0.000267,-0.002727,-0.070622,0.267930,-0.960846
1762622951.332895,-0.134935,-0.035337,-0.002516,0.990221,0.041310,0.001779,-0.019676,-0.001510,-0.000538,-0.001322,-0.070662,0.267053,-0.961088
1762622951.334885,-0.134504,-0.035374,-0.002774,0.990278,0.039567,-0.000413,-0.028745,-0.002508,-0.000382,-0.000611,-0.070805,0.266196,-0.961315
1762622951.364148,-0.134125,-0.035413,-0.003071,0.990327,0.033789,-0.000113,-0.028576,-0.002035,-0.001925,0.001398,-0.070965,0.265438,-0.961513
1762622951.396203,-0.133823,-0.035456,-0.003371,0.990365,0.022190,-0.000360,-0.029748,-0.004293,-0.003756,0.001196,-0.071130,0.264828,-0.961669
1762622951.398336,-0.133653,-0.035540,-0.003638,0.990384,0.009187,-0.006260,-0.022150,-0.004243,-0.006959,0.001121,-0.071370,0.264477,-0.961747
1762622951.427249,-0.133565,-0.035591,-0.003806,0.990393,0.005255,-0.005285,-0.009689,-0.003794,-0.012219,0.003516,-0.071515,0.264293,-0.961787
1762622951.434470,-0.133502,-0.035673,-0.003849,0.990399,0.005903,-0.004278,-0.000181,-0.003426,-0.014463,0.004799,-0.071689,0.264165,-0.961810
1762622951.464755,-0.133412,-0.035702,-0.003785,0.990410,0.008964,0.003714,0.010579,-0.001254,-0.013121,0.005283,-0.071729,0.263995,-0.961853
1762622951.498584,-0.133364,-0.035614,-0.003637,0.990420,0.002540,0.007815,0.013507,-0.001071,-0.009474,0.000293,-0.071515,0.263914,-0.961891
1762622951.500660,-0.133383,-0.035534,-0.003498,0.990421,-0.005416,0.005355,0.013725,-0.002968,-0.008885,-0.002002,-0.071320,0.263962,-0.961893
1762622951.529176,-0.133467,-0.035526,-0.003350,0.990411,-0.015806,-0.005810,0.013632,-0.005233,-0.006314,-0.003579,-0.071265,0.264136,-0.961849
1762622951.531197,-0.133661,-0.035638,-0.003264,0.990381,-0.026073,-0.014726,0.004596,-0.004985,-0.007072,-0.001370,-0.071464,0.264518,-0.961729
1762622951.560454,-0.133908,-0.035794,-0.003213,0.990342,-0.024992,-0.015205,-0.000156,-0.003032,-0.007193,0.002363,-0.071756,0.265000,-0.961575
1762622951.591200,-0.134120,-0.035880,-0.003200,0.990310,-0.017470,0.000791,0.005829,-0.002135,-0.009118,0.005536,-0.071923,0.265411,-0.961449
1762622951.592531,-0.134264,-0.035833,-0.003122,0.990293,-0.017144,0.002322,0.013036,-0.007050,-0.008014,0.000160,-0.071808,0.265697,-0.961379
1762622951.622863,-0.134457,-0.035844,-0.002902,0.990267,-0.023204,-0.007198,0.026347,-0.007712,-0.004377,0.001936,-0.071770,0.266088,-0.961273
1762622951.653758,-0.134722,-0.035885,-0.002598,0.990230,-0.028064,-0.012207,0.026356,-0.005664,0.000029,0.005349,-0.071770,0.266624,-0.961125
1762622951.655949,-0.135003,-0.035967,-0.002280,0.990190,-0.023961,-0.005908,0.032801,-0.006432,0.001951,0.007582,-0.071843,0.267194,-0.960961
1762622951.684173,-0.135231,-0.035932,-0.001985,0.990160,-0.020512,-0.000186,0.029465,-0.009412,0.001139,0.006355,-0.071694,0.267658,-0.960843
1762622951.714931,-0.135401,-0.035852,-0.001750,0.990140,-0.012587,0.006910,0.028084,-0.010629,-0.001741,0.007608,-0.071470,0.268007,-0.960762
1762622951.716338,-0.135489,-0.035673,-0.001466,0.990135,-0.007992,0.023008,0.033467,-0.010388,0.002152,0.008148,-0.071039,0.268201,-0.960740
1762622951.747456,-0.135583,-0.035332,-0.001144,0.990135,-0.009207,0.036209,0.036068,-0.008911,0.004315,0.005596,-0.070277,0.268410,-0.960738
1762622951.749892,-0.135741,-0.034908,-0.000869,0.990129,-0.020225,0.037656,0.029742,-0.008450,0.009085,-0.004247,-0.069363,0.268742,-0.960711
1762622951.801212,-0.136000,-0.034602,-0.000661,0.990104,-0.028492,0.025101,0.016409,-0.003879,0.010944,-0.001934,-0.068699,0.269263,-0.960613
1762622951.801473,-0.136271,-0.034257,-0.000600,0.990079,-0.020529,0.045590,0.007701,0.001631,0.008216,0.003740,-0.067997,0.269798,-0.960513
1762622951.829134,-0.136452,-0.033811,-0.000734,0.990069,-0.017161,0.039433,-0.012375,0.000825,0.009229,-0.000829,-0.067151,0.270145,-0.960475
1762622951.830381,-0.136569,-0.033446,-0.000991,0.990065,-0.005967,0.038999,-0.025798,-0.000297,0.007129,0.001128,-0.066498,0.270358,-0.960461
1762622951.861158,-0.136623,-0.033170,-0.001349,0.990067,-0.006182,0.023052,-0.036366,-0.000136,0.004594,0.000697,-0.066050,0.270442,-0.960468
1762622951.890444,-0.136640,-0.032993,-0.001734,0.990070,0.001598,0.021193,-0.032549,0.000431,0.000364,0.001179,-0.065805,0.270453,-0.960482
1762622951.892419,-0.136631,-0.032877,-0.002040,0.990074,0.004050,0.015465,-0.022110,0.000989,-0.002261,0.000814,-0.065660,0.270415,-0.960502
1762622951.921847,-0.136592,-0.032767,-0.002239,0.990083,0.004075,0.010480,-0.011823,-0.000154,-0.002343,-0.001166,-0.065496,0.270328,-0.960538
1762622951.952378,-0.136565,-0.032678,-0.002307,0.990089,0.003968,0.009087,-0.000801,-0.001372,-0.002132,-0.002086,-0.065338,0.270271,-0.960565
1762622951.953857,-0.136536,-0.032585,-0.002269,0.990097,-0.000175,0.003039,0.003045,-0.002228,0.001513,-0.002945,-0.065143,0.270220,-0.960592
1762622951.983875,-0.136547,-0.032542,-0.002231,0.990096,-0.000072,0.002930,0.004836,-0.001209,0.001261,-0.002782,-0.065049,0.270245,-0.960592
1762622951.990633,-0.136581,-0.032528,-0.002179,0.990092,-0.002266,-0.001095,0.002708,-0.000548,0.000783,-0.001214,-0.065006,0.270315,-0.960575
1762622952.020650,-0.136584,-0.032536,-0.002136,0.990092,0.002260,-0.002611,0.003507,-0.001509,-0.000262,-0.000070,-0.065010,0.270323,-0.960572
1762622952.050460,-0.136529,-0.032609,-0.002092,0.990097,0.006437,-0.008560,0.001410,-0.003215,-0.000466,0.000967,-0.065143,0.270218,-0.960593
1762622952.050788,-0.136442,-0.032696,-0.002033,0.990106,0.007381,-0.012273,0.005257,-0.003551,-0.001038,0.000706,-0.065299,0.270051,-0.960629
1762622952.101052,-0.136355,-0.032822,-0.001960,0.990114,0.007414,-0.012190,0.006382,-0.003299,-0.000388,0.001194,-0.065529,0.269886,-0.960660
1762622952.101334,-0.136268,-0.032948,-0.001887,0.990122,0.007446,-0.012107,0.007507,-0.003048,0.000263,0.001683,-0.065759,0.269720,-0.960691
1762622952.132220,-0.136210,-0.033092,-0.001776,0.990126,0.008860,-0.011618,0.007533,-0.004690,-0.000714,0.003730,-0.066013,0.269613,-0.960704
1762622952.133379,-0.136115,-0.033207,-0.001670,0.990135,0.008274,-0.012937,0.008833,-0.005690,-0.001709,0.003797,-0.066213,0.269434,-0.960740
1762622952.167068,-0.136006,-0.033268,-0.001565,0.990148,0.008984,0.000703,0.012682,-0.003997,-0.001300,0.006768,-0.066306,0.269228,-0.960791
1762622952.167318,-0.135964,-0.033256,-0.001481,0.990154,-0.001761,0.006935,0.004035,-0.002904,0.001898,0.003302,-0.066260,0.269153,-0.960815
1762622952.196585,-0.136015,-0.033157,-0.001453,0.990151,-0.007895,0.005843,0.003993,-0.005925,-0.000801,0.001014,-0.066056,0.269255,-0.960801
1762622952.227407,-0.136155,-0.033125,-0.001436,0.990133,-0.014821,0.002577,0.003889,-0.009042,0.000120,-0.001385,-0.065987,0.269528,-0.960729
1762622952.229577,-0.136415,-0.033149,-0.001455,0.990096,-0.028437,-0.012620,-0.008072,-0.009168,-0.000683,-0.000791,-0.066039,0.270032,-0.960584
1762622952.257963,-0.136698,-0.033292,-0.001542,0.990052,-0.025240,-0.009022,-0.011732,-0.004282,-0.002140,0.005947,-0.066344,0.270573,-0.960411
1762622952.288740,-0.136897,-0.033221,-0.001645,0.990027,-0.013321,0.023676,-0.002218,-0.002487,-0.002738,0.006600,-0.066230,0.270955,-0.960311
1762622952.290814,-0.137031,-0.033000,-0.001721,0.990016,-0.016445,0.017538,-0.006885,-0.007769,0.001787,-0.002304,-0.065813,0.271212,-0.960267
1762622952.319177,-0.137188,-0.032906,-0.001805,0.989997,-0.012593,0.004773,-0.004438,-0.008017,0.002890,-0.004109,-0.065649,0.271512,-0.960193
1762622952.349832,-0.137281,-0.032949,-0.001869,0.989982,-0.008945,-0.001379,-0.004249,-0.004496,0.002482,0.000215,-0.065751,0.271688,-0.960137
1762622952.351911,-0.137345,-0.032927,-0.001899,0.989974,-0.004443,0.008421,-0.000727,-0.002936,0.002717,0.001988,-0.065715,0.271810,-0.960105
1762622952.398766,-0.137357,-0.032822,-0.001905,0.989976,0.002388,0.011490,0.002343,-0.002657,0.001125,0.002537,-0.065509,0.271834,-0.960112
1762622952.399072,-0.137368,-0.032716,-0.001911,0.989978,0.009219,0.014560,0.005412,-0.002379,-0.000467,0.003086,-0.065302,0.271858,-0.960119
1762622952.430089,-0.137299,-0.032520,-0.001897,0.989994,0.009453,0.015996,0.002483,-0.003019,0.002716,0.000758,-0.064909,0.271728,-0.960183
1762622952.432090,-0.137222,-0.032384,-0.001928,0.990009,0.008975,0.014832,-0.003752,-0.000756,0.002167,0.001848,-0.064650,0.271576,-0.960243
1762622952.460351,-0.137162,-0.032261,-0.001984,0.990021,0.001250,0.005908,-0.004300,-0.002814,0.003761,-0.003643,-0.064422,0.271459,-0.960292
1762622952.468124,-0.137130,-0.032287,-0.002073,0.990025,0.000508,-0.000267,-0.011385,0.002200,0.002034,0.001989,-0.064498,0.271390,-0.960306
1762622952.498221,-0.137097,-0.032215,-0.002204,0.990031,0.011880,0.015183,-0.007774,-0.000154,-0.002378,0.002889,-0.064391,0.271318,-0.960333
1762622952.534723,-0.136974,-0.032085,-0.002323,0.990052,0.010079,0.009924,-0.010005,-0.003497,-0.000215,-0.003924,-0.064168,0.271073,-0.960418
1762622952.536799,-0.136905,-0.032080,-0.002455,0.990062,0.006306,-0.010965,-0.017283,-0.005360,-0.000394,-0.003390,-0.064194,0.270931,-0.960456
1762622952.565494,-0.136805,-0.032256,-0.002618,0.990069,0.012986,-0.013844,-0.019325,-0.001753,-0.002967,0.003566,-0.064587,0.270723,-0.960488
1762622952.567475,-0.136596,-0.032371,-0.002732,0.990094,0.023223,-0.004666,-0.010408,-0.002629,-0.004373,0.005310,-0.064847,0.270309,-0.960587
1762622952.596685,-0.136304,-0.032413,-0.002787,0.990133,0.028635,-0.003465,-0.006268,-0.004875,-0.002671,0.002035,-0.064946,0.269738,-0.960741
1762622952.640008,-0.136030,-0.032477,-0.002752,0.990168,0.024802,-0.002036,0.001169,-0.005038,-0.001543,0.000797,-0.065063,0.269207,-0.960882
1762622952.640248,-0.135756,-0.032540,-0.002718,0.990204,0.020970,-0.000607,0.008607,-0.005200,-0.000414,-0.000441,-0.065180,0.268675,-0.961023
1762622952.706037,-0.135713,-0.032508,-0.002672,0.990211,0.013419,0.001684,0.005388,-0.004325,0.000391,0.000244,-0.065106,0.268595,-0.961050
1762622952.706288,-0.135671,-0.032477,-0.002626,0.990218,0.005868,0.003975,0.002168,-0.003451,0.001196,0.000929,-0.065031,0.268516,-0.961078
1762622952.706551,-0.135628,-0.032445,-0.002581,0.990225,-0.001683,0.006266,-0.001051,-0.002576,0.002002,0.001614,-0.064957,0.268437,-0.961105
1762622952.707048,-0.135648,-0.032349,-0.002580,0.990225,-0.003317,0.007482,-0.005090,-0.004462,0.000751,-0.001176,-0.064766,0.268478,-0.961106
1762622952.734413,-0.135679,-0.032330,-0.002635,0.990222,-0.000349,0.004571,-0.004448,-0.003470,0.000358,-0.000916,-0.064743,0.268534,-0.961092
1762622952.764909,-0.135643,-0.032333,-0.002692,0.990226,0.006324,-0.002987,-0.003721,-0.004442,-0.000019,-0.002021,-0.064765,0.268460,-0.961111
1762622952.766369,-0.135548,-0.032372,-0.002729,0.990238,0.014351,-0.006449,0.000559,-0.005225,-0.001654,0.002026,-0.064851,0.268272,-0.961158
1762622952.796211,-0.135350,-0.032439,-0.002704,0.990263,0.020643,-0.006112,0.001233,-0.003442,-0.001832,0.001344,-0.064979,0.267889,-0.961256
1762622952.825401,-0.135115,-0.032546,-0.002673,0.990292,0.027334,-0.002595,-0.001204,-0.001461,-0.002602,0.005039,-0.065183,0.267432,-0.961370
1762622952.827589,-0.134770,-0.032575,-0.002678,0.990338,0.032659,-0.007703,-0.005839,-0.002795,-0.000332,0.001322,-0.065242,0.266761,-0.961552
1762622952.859285,-0.134361,-0.032687,-0.002773,0.990389,0.041770,0.000632,-0.007837,-0.000898,-0.003086,0.007053,-0.065491,0.265958,-0.961757
1762622952.863445,-0.133968,-0.032719,-0.002838,0.990441,0.035258,-0.002746,-0.008030,-0.000804,-0.001061,-0.000286,-0.065573,0.265189,-0.961964
1762622952.892042,-0.133598,-0.032752,-0.002921,0.990490,0.033045,-0.002106,-0.006402,-0.003660,-0.003364,-0.004054,-0.065661,0.264464,-0.962158
1762622952.922602,-0.133309,-0.032878,-0.002910,0.990525,0.027440,-0.022526,0.005119,-0.005528,-0.004022,-0.003845,-0.065909,0.263899,-0.962296
1762622952.924518,-0.133093,-0.033117,-0.002761,0.990546,0.010132,-0.031532,0.008410,-0.005803,0.002358,-0.004814,-0.066343,0.263487,-0.962379
1762622952.952963,-0.133077,-0.033500,-0.002672,0.990536,0.001394,-0.034478,0.001553,-0.002760,-0.000898,0.000437,-0.067076,0.263455,-0.962337
1762622952.999990,-0.133059,-0.033599,-0.002629,0.990535,0.000716,-0.012781,0.003360,-0.003535,-0.000437,-0.000153,-0.067261,0.263423,-0.962333
1762622953.001147,-0.133068,-0.033614,-0.002580,0.990533,-0.002793,-0.008130,0.004354,-0.005601,0.000703,-0.002350,-0.067279,0.263443,-0.962326
1762622953.031205,-0.133145,-0.033698,-0.002547,0.990520,-0.012211,-0.015729,0.002279,-0.005146,0.002499,-0.001612,-0.067435,0.263594,-0.962274
1762622953.062442,-0.133291,-0.033861,-0.002531,0.990495,-0.015104,-0.015214,0.001472,-0.003609,0.000871,0.001517,-0.067753,0.263877,-0.962174
1762622953.064503,-0.133454,-0.033984,-0.002486,0.990469,-0.014321,-0.010519,0.004071,-0.003529,-0.002016,0.004341,-0.067983,0.264195,-0.962070
1762622953.093072,-0.133568,-0.034069,-0.002394,0.990451,-0.006114,-0.005606,0.012596,-0.005242,-0.004766,0.005353,-0.068128,0.264422,-0.961998
1762622953.123548,-0.133602,-0.034105,-0.002219,0.990446,0.000179,-0.005427,0.019413,-0.005943,-0.003453,0.002469,-0.068151,0.264500,-0.961975
1762622953.124851,-0.133575,-0.034144,-0.001981,0.990448,0.004156,-0.008035,0.022744,-0.005463,-0.001788,0.001600,-0.068164,0.264464,-0.961984
1762622953.155261,-0.133523,-0.034176,-0.001733,0.990455,0.007925,-0.006438,0.021777,-0.005621,0.000020,0.000826,-0.068162,0.264378,-0.962007
1762622953.160333,-0.133435,-0.034262,-0.001517,0.990464,0.011605,-0.014087,0.015647,-0.005618,0.002056,0.000018,-0.068276,0.264221,-0.962042
1762622953.193724,-0.133298,-0.034396,-0.001417,0.990478,0.017531,-0.009579,0.002182,-0.002658,0.002133,0.002491,-0.068515,0.263960,-0.962097
1762622953.224097,-0.133084,-0.034447,-0.001405,0.990505,0.020570,-0.000512,-0.002490,-0.003327,0.002233,0.001082,-0.068613,0.263544,-0.962204
1762622953.225369,-0.132883,-0.034490,-0.001425,0.990530,0.017033,-0.003166,-0.002885,-0.004908,0.000718,-0.000424,-0.068706,0.263150,-0.962305
1762622953.259006,-0.132755,-0.034585,-0.001432,0.990544,0.007844,-0.011532,-0.003039,-0.005102,-0.000588,0.001008,-0.068897,0.262900,-0.962360
1762622953.260037,-0.132715,-0.034684,-0.001414,0.990546,0.002271,-0.008234,0.004095,-0.003717,-0.001870,0.002603,-0.069087,0.262823,-0.962367
1762622953.304971,-0.132724,-0.034731,-0.001313,0.990544,-0.001942,-0.003343,0.011258,-0.003828,-0.002346,0.002357,-0.069154,0.262846,-0.962356
1762622953.306969,-0.132773,-0.034734,-0.001175,0.990537,-0.006562,-0.000364,0.013519,-0.003544,-0.000522,0.001716,-0.069122,0.262952,-0.962330
1762622953.335678,-0.132872,-0.034696,-0.001031,0.990525,-0.008525,0.006547,0.013527,-0.003126,0.000040,0.002506,-0.069008,0.263155,-0.962282
1762622953.340316,-0.132981,-0.034611,-0.000926,0.990514,-0.011565,0.010638,0.009317,-0.003246,0.001761,0.000602,-0.068811,0.263375,-0.962236
1762622953.369163,-0.133130,-0.034475,-0.000872,0.990498,-0.014415,0.012069,0.004589,-0.003641,0.000491,0.000247,-0.068528,0.263669,-0.962176
1762622953.397936,-0.133296,-0.034374,-0.000852,0.990480,-0.017902,0.004940,0.000852,-0.004112,0.000200,-0.001021,-0.068320,0.263994,-0.962102
1762622953.400049,-0.133455,-0.034343,-0.000845,0.990459,-0.015263,0.000695,0.002311,-0.004610,-0.002394,-0.001441,-0.068256,0.264305,-0.962021
1762622953.429631,-0.133582,-0.034349,-0.000801,0.990442,-0.007274,0.000207,0.005672,-0.004238,-0.002598,0.000506,-0.068255,0.264554,-0.961952
1762622953.459897,-0.133623,-0.034342,-0.000717,0.990437,-0.000605,-0.004578,0.009267,-0.004910,-0.002969,-0.000750,-0.068220,0.264641,-0.961931
1762622953.462003,-0.133620,-0.034397,-0.000602,0.990435,0.002560,-0.007514,0.010158,-0.005727,-0.002513,0.000258,-0.068297,0.264643,-0.961925
1762622953.490436,-0.133570,-0.034490,-0.000481,0.990439,0.003996,-0.008846,0.010563,-0.005217,-0.001213,0.001295,-0.068449,0.264553,-0.961939
1762622953.527497,-0.133530,-0.034581,-0.000372,0.990441,0.002565,-0.007728,0.008662,-0.005429,-0.001174,0.001472,-0.068601,0.264481,-0.961948
1762622953.529521,-0.133507,-0.034631,-0.000300,0.990443,0.001502,-0.004134,0.004616,-0.004732,-0.000492,0.004111,-0.068680,0.264442,-0.961953
1762622953.558129,-0.133484,-0.034651,-0.000257,0.990445,0.001349,0.004060,0.003984,-0.003700,0.000460,0.003981,-0.068708,0.264399,-0.961963
1762622953.560050,-0.133501,-0.034605,-0.000251,0.990444,-0.006550,0.003480,-0.002696,-0.004378,0.000505,0.003336,-0.068616,0.264434,-0.961960
1762622953.598701,-0.133572,-0.034561,-0.000306,0.990436,-0.008103,0.009581,-0.002353,-0.002224,-0.001513,0.003167,-0.068542,0.264568,-0.961928
1762622953.600012,-0.133691,-0.034455,-0.000346,0.990424,-0.011513,0.010543,-0.000910,-0.003417,-0.002296,0.001055,-0.068342,0.264798,-0.961879
1762622953.642744,-0.133818,-0.034363,-0.000346,0.990410,-0.011075,0.008312,0.005882,-0.004910,-0.003374,-0.000082,-0.068160,0.265045,-0.961824
1762622953.645209,-0.133949,-0.034306,-0.000272,0.990394,-0.017024,0.001160,0.009306,-0.004964,0.000485,-0.002474,-0.068026,0.265305,-0.961762
1762622953.673131,-0.134183,-0.034394,-0.000221,0.990360,-0.025535,-0.010543,0.000982,-0.004599,0.001044,0.000067,-0.068184,0.265763,-0.961624
1762622953.679412,-0.134415,-0.034507,-0.000269,0.990324,-0.020823,-0.003643,-0.006901,-0.001003,-0.000068,0.004704,-0.068418,0.266211,-0.961484
1762622953.710027,-0.134581,-0.034442,-0.000395,0.990304,-0.012946,0.017150,-0.011277,-0.001028,0.001021,0.004051,-0.068321,0.266524,-0.961404
1762622953.750010,-0.134726,-0.034338,-0.000549,0.990288,-0.018102,0.005969,-0.012044,-0.003149,0.001151,0.000106,-0.068156,0.266797,-0.961340
1762622953.750303,-0.134871,-0.034234,-0.000704,0.990271,-0.023257,-0.005213,-0.012812,-0.005270,0.001280,-0.003840,-0.067992,0.267070,-0.961276
1762622953.779134,-0.135085,-0.034288,-0.000817,0.990240,-0.021302,-0.006886,-0.004176,-0.004611,-0.001110,-0.001159,-0.068127,0.267476,-0.961153
1762622953.781319,-0.135283,-0.034334,-0.000812,0.990212,-0.016060,-0.006126,0.006864,-0.005212,-0.002835,0.000548,-0.068215,0.267863,-0.961039
1762622953.817490,-0.135407,-0.034365,-0.000696,0.990194,-0.007351,-0.001084,0.015982,-0.004560,-0.003259,0.003566,-0.068244,0.268110,-0.960968
1762622953.819535,-0.135471,-0.034324,-0.000501,0.990186,-0.003726,0.001015,0.019778,-0.004725,-0.003150,0.002819,-0.068110,0.268249,-0.960939
1762622953.898606,-0.135602,-0.034291,-0.000400,0.990170,-0.011717,0.000110,0.013538,-0.005526,-0.002593,0.000868,-0.068017,0.268510,-0.960872
1762622953.899060,-0.135732,-0.034259,-0.000299,0.990153,-0.019709,-0.000795,0.007298,-0.006328,-0.002036,-0.001083,-0.067925,0.268771,-0.960806
1762622953.899576,-0.135863,-0.034227,-0.000198,0.990136,-0.027700,-0.001701,0.001059,-0.007130,-0.001479,-0.003034,-0.067832,0.269032,-0.960740
1762622953.899944,-0.136156,-0.034257,-0.000211,0.990095,-0.038370,-0.005406,-0.007695,-0.004123,-0.001884,-0.000129,-0.067893,0.269600,-0.960576
1762622953.929970,-0.136496,-0.034273,-0.000259,0.990048,-0.035683,0.006773,-0.002082,-0.003939,-0.005016,0.003869,-0.067935,0.270258,-0.960388
1762622953.941966,-0.136839,-0.034227,-0.000275,0.990002,-0.030277,-0.000047,0.002621,-0.007225,-0.005637,0.001747,-0.067845,0.270922,-0.960207
1762622953.972448,-0.137113,-0.034246,-0.000226,0.989963,-0.026416,-0.006609,0.006968,-0.006438,-0.002543,0.001256,-0.067866,0.271458,-0.960055
1762622953.976260,-0.137316,-0.034331,-0.000090,0.989932,-0.017086,-0.005737,0.016668,-0.003915,0.000305,0.002341,-0.067996,0.271860,-0.959932
1762622954.005206,-0.137405,-0.034318,0.000140,0.989920,-0.002647,0.001735,0.030430,-0.003973,0.005966,-0.001989,-0.067905,0.272049,-0.959884
1762622954.035990,-0.137398,-0.034243,0.000564,0.989924,0.004570,0.006049,0.055218,-0.005607,0.020586,-0.011340,-0.067641,0.272066,-0.959898
1762622954.037255,-0.137363,-0.034096,0.001243,0.989933,0.003602,0.005548,0.083623,-0.007040,0.039001,-0.021084,-0.067164,0.272045,-0.959938
1762622954.066750,-0.137404,-0.033970,0.002164,0.989930,-0.000492,0.002311,0.097056,-0.004269,0.057117,-0.021591,-0.066662,0.272187,-0.959933
1762622954.101214,-0.137383,-0.033824,0.003157,0.989935,0.017974,0.002337,0.100809,-0.002112,0.072565,-0.021509,-0.066100,0.272215,-0.959964
1762622954.103212,-0.137067,-0.033636,0.004139,0.989982,0.051782,0.000412,0.087770,-0.000320,0.087862,-0.031682,-0.065464,0.271666,-0.960162
1762622954.131595,-0.136449,-0.033579,0.004907,0.990066,0.079713,-0.012539,0.055739,0.002736,0.102644,-0.034597,-0.065151,0.270516,-0.960509
1762622954.133633,-0.135569,-0.033743,0.005310,0.990179,0.102344,-0.032527,0.008306,0.008385,0.109696,-0.029427,-0.065384,0.268833,-0.960965
1762622954.163123,-0.134446,-0.034098,0.005300,0.990320,0.131497,-0.033055,-0.028815,0.017116,0.112688,-0.018820,-0.066110,0.266650,-0.961524
1762622954.202633,-0.133049,-0.034492,0.004993,0.990497,0.144567,-0.038936,-0.055935,0.018592,0.114610,-0.027515,-0.066999,0.263913,-0.962217
1762622954.202877,-0.131625,-0.035120,0.004418,0.990667,0.143685,-0.066139,-0.086049,0.021146,0.113665,-0.026041,-0.068422,0.261104,-0.962883
1762622954.230419,-0.130119,-0.035989,0.003627,0.990838,0.159747,-0.084557,-0.103606,0.022391,0.108763,-0.020851,-0.070375,0.258114,-0.963548
1762622954.232483,-0.128396,-0.037041,0.002730,0.991027,0.187528,-0.097923,-0.112106,0.023882,0.107335,-0.020045,-0.072716,0.254691,-0.964285
1762622954.261577,-0.126436,-0.038268,0.001769,0.991235,0.200569,-0.124234,-0.123581,0.021299,0.107192,-0.021550,-0.075418,0.250790,-0.965099
1762622954.294763,-0.124409,-0.039789,0.000717,0.991433,0.206168,-0.149305,-0.136996,0.019444,0.098322,-0.005197,-0.078717,0.246744,-0.965878
1762622954.295005,-0.122248,-0.041407,-0.000310,0.991635,0.232784,-0.141467,-0.123617,0.021840,0.087669,0.007778,-0.082198,0.242425,-0.966682
1762622954.322911,-0.119819,-0.042984,-0.001205,0.991864,0.254834,-0.158248,-0.122636,0.015765,0.084478,0.008802,-0.085557,0.237585,-0.967592
1762622954.353552,-0.117106,-0.044779,-0.002161,0.992107,0.300982,-0.166540,-0.126242,0.016795,0.065759,0.029293,-0.089358,0.232170,-0.968562
1762622954.355627,-0.113838,-0.046487,-0.003042,0.992406,0.361500,-0.149746,-0.117793,0.012585,0.048653,0.037144,-0.092961,0.225664,-0.969760
1762622954.384106,-0.110052,-0.048025,-0.003830,0.992758,0.408610,-0.134232,-0.111102,0.005388,0.036534,0.042420,-0.096197,0.218142,-0.971164
1762622954.417539,-0.105969,-0.049444,-0.004524,0.993129,0.423710,-0.130243,-0.100257,-0.002013,0.025921,0.047159,-0.099168,0.210035,-0.972652
1762622954.419357,-0.101812,-0.050755,-0.005170,0.993495,0.426173,-0.121990,-0.098421,-0.011347,0.009367,0.048583,-0.101902,0.201775,-0.974116
1762622954.448037,-0.097618,-0.051982,-0.005770,0.993849,0.433911,-0.101296,-0.096011,-0.012705,-0.008773,0.059278,-0.104452,0.193436,-0.975537
1762622954.449805,-0.093092,-0.052907,-0.006391,0.994230,0.480056,-0.066171,-0.097659,-0.017431,-0.032873,0.055882,-0.106394,0.184433,-0.977069
1762622954.498578,-0.087996,-0.053566,-0.007110,0.994654,0.534754,-0.040465,-0.111622,-0.019520,-0.046842,0.043789,-0.107811,0.174289,-0.978775
1762622954.499913,-0.082458,-0.054119,-0.007903,0.995093,0.560275,-0.038453,-0.116076,-0.020026,-0.049331,0.040699,-0.109010,0.163252,-0.980543
1762622954.532649,-0.076880,-0.054437,-0.008657,0.995516,0.546481,0.007591,-0.090566,-0.009673,-0.043142,0.043962,-0.109716,0.152129,-0.982252
1762622954.532887,-0.071709,-0.054370,-0.009120,0.995901,0.473686,0.028373,-0.059770,-0.011623,-0.028404,0.035069,-0.109601,0.141838,-0.983804
1762622954.563514,-0.067447,-0.054215,-0.009321,0.996205,0.371051,0.013297,-0.028074,-0.014405,-0.022976,0.025315,-0.109275,0.133372,-0.985023
1762622954.592821,-0.064120,-0.054306,-0.009335,0.996420,0.294203,-0.022543,-0.011702,-0.016535,-0.033313,0.016760,-0.109420,0.126767,-0.985879
1762622954.593075,-0.061351,-0.054845,-0.009199,0.996566,0.262892,-0.074700,0.004365,-0.018555,-0.051145,0.007265,-0.110443,0.121271,-0.986456
1762622954.624492,-0.058688,-0.055810,-0.008809,0.996676,0.279141,-0.097310,0.036003,-0.014177,-0.064601,0.009395,-0.112284,0.116002,-0.986882
1762622954.654726,-0.055809,-0.056862,-0.008076,0.996788,0.296651,-0.111202,0.062652,-0.012986,-0.060493,0.003743,-0.114261,0.110342,-0.987304
1762622954.655059,-0.052881,-0.057990,-0.007222,0.996890,0.290098,-0.115137,0.062493,-0.010943,-0.052024,0.008858,-0.116382,0.104595,-0.987682
1762622954.682974,-0.050101,-0.059083,-0.006329,0.996975,0.269094,-0.106125,0.074807,-0.013051,-0.051987,0.011398,-0.118442,0.099150,-0.987998
1762622954.690671,-0.047579,-0.060078,-0.005316,0.997045,0.235164,-0.099286,0.089442,-0.015714,-0.048502,0.011279,-0.120307,0.094238,-0.988254
1762622954.720634,-0.045441,-0.061004,-0.004194,0.997094,0.194482,-0.084673,0.103788,-0.014346,-0.043657,0.013734,-0.122035,0.090106,-0.988427
1762622954.751054,-0.043730,-0.061652,-0.002932,0.997135,0.144497,-0.055566,0.116552,-0.007949,-0.034495,0.007571,-0.123207,0.086847,-0.988573
1762622954.752438,-0.042624,-0.061939,-0.001725,0.997168,0.077665,-0.014537,0.104353,-0.000167,-0.023106,0.014090,-0.123674,0.084793,-0.988694
1762622954.797754,-0.042191,-0.061858,-0.000706,0.997193,0.011065,0.027428,0.092572,-0.000438,-0.027094,0.018670,-0.123429,0.084057,-0.988787
1762622954.798853,-0.042421,-0.061463,0.000073,0.997208,-0.044898,0.040259,0.067477,-0.003720,-0.042017,0.023154,-0.122577,0.084613,-0.988846
1762622954.829769,-0.042873,-0.060964,0.000610,0.997219,-0.035154,0.056344,0.052102,-0.005384,-0.070885,0.020598,-0.121536,0.085582,-0.988891
1762622954.831840,-0.042957,-0.060361,0.001026,0.997251,0.020478,0.056888,0.035905,-0.009807,-0.086897,0.002888,-0.120303,0.085801,-0.989022
1762622954.862358,-0.042414,-0.059859,0.001399,0.997304,0.084491,0.035725,0.034449,-0.014499,-0.087973,-0.011771,-0.119277,0.084768,-0.989236
1762622954.869345,-0.041384,-0.059691,0.001652,0.997357,0.108568,-0.001972,0.005364,-0.018519,-0.074549,-0.014278,-0.118930,0.082746,-0.989449
1762622954.898701,-0.040173,-0.059843,0.001742,0.997398,0.116591,-0.020825,-0.009253,-0.018266,-0.068508,-0.006869,-0.119233,0.080346,-0.989610
1762622954.926839,-0.038948,-0.060202,0.001661,0.997425,0.107715,-0.043460,-0.019854,-0.015807,-0.062901,-0.001358,-0.119965,0.077895,-0.989718
1762622954.928704,-0.037758,-0.060582,0.001591,0.997448,0.107622,-0.028585,-0.006911,-0.012267,-0.057772,-0.003268,-0.120734,0.075515,-0.989808
1762622954.957931,-0.036685,-0.060924,0.001632,0.997467,0.087579,-0.034945,-0.001231,-0.015315,-0.045637,-0.010060,-0.121420,0.073384,-0.989885
1762622954.989776,-0.035858,-0.061363,0.001613,0.997470,0.063821,-0.046120,-0.008236,-0.014362,-0.042720,-0.001798,-0.122300,0.071732,-0.989898
1762622954.991131,-0.035127,-0.061835,0.001547,0.997467,0.065719,-0.041772,-0.017850,-0.011637,-0.043441,0.007370,-0.123247,0.070267,-0.989885
1762622955.021241,-0.034271,-0.062230,0.001329,0.997472,0.095536,-0.027560,-0.039305,-0.010565,-0.049087,0.010793,-0.124054,0.068535,-0.989906
1762622955.028129,-0.033009,-0.062543,0.000953,0.997496,0.140932,-0.022734,-0.052388,-0.010647,-0.053318,0.013403,-0.124710,0.065972,-0.989998
1762622955.058166,-0.031260,-0.062683,0.000614,0.997544,0.184090,-0.003858,-0.037251,-0.010735,-0.047470,0.012569,-0.125020,0.062443,-0.990187
1762622955.102588,-0.029550,-0.062697,0.000347,0.997595,0.150299,0.003408,-0.039483,-0.007798,-0.028742,0.008345,-0.125072,0.059000,-0.990392
1762622955.102867,-0.027839,-0.062710,0.000080,0.997643,0.116508,0.010674,-0.041715,-0.004864,-0.010012,0.004109,-0.125121,0.055557,-0.990585
1762622955.106376,-0.026870,-0.062638,-0.000344,0.997675,0.046571,0.003999,-0.057667,-0.005536,0.000465,-0.001356,-0.125004,0.053571,-0.990709
1762622955.135124,-0.026585,-0.062624,-0.000953,0.997683,-0.007761,0.007914,-0.059599,-0.006044,-0.002710,-0.000494,-0.125009,0.052928,-0.990743
1762622955.166292,-0.026842,-0.062619,-0.001542,0.997675,-0.047206,0.000402,-0.056341,-0.008077,-0.010415,-0.005842,-0.125029,0.053366,-0.990717
1762622955.168399,-0.027372,-0.062724,-0.002135,0.997653,-0.061400,-0.020827,-0.052605,-0.009024,-0.017414,-0.005986,-0.125270,0.054348,-0.990633
1762622955.196733,-0.027886,-0.062858,-0.002613,0.997629,-0.042028,0.001289,-0.029359,-0.006188,-0.026633,0.001289,-0.125563,0.055312,-0.990543
1762622955.227351,-0.028165,-0.062827,-0.002801,0.997623,-0.017692,0.004047,-0.006363,-0.009961,-0.022695,-0.001513,-0.125513,0.055844,-0.990519
1762622955.228565,-0.028298,-0.062861,-0.002777,0.997617,-0.006972,-0.008905,0.007948,-0.009815,-0.017508,0.001629,-0.125580,0.056111,-0.990495
1762622955.258592,-0.028264,-0.062869,-0.002591,0.997618,0.009306,0.007929,0.021224,-0.005467,-0.012730,0.004804,-0.125585,0.056068,-0.990497
1762622955.316707,-0.028057,-0.062822,-0.002417,0.997627,0.012344,0.002871,0.013789,-0.006977,-0.009362,0.004263,-0.125481,0.055678,-0.990532
1762622955.316832,-0.027851,-0.062775,-0.002243,0.997637,0.015381,-0.002187,0.006355,-0.008487,-0.005994,0.003722,-0.125377,0.055288,-0.990567
1762622955.316915,-0.027644,-0.062727,-0.002068,0.997646,0.018419,-0.007245,-0.001080,-0.009997,-0.002627,0.003181,-0.125273,0.054898,-0.990602
1762622955.347087,-0.027451,-0.062708,-0.002027,0.997652,0.007247,-0.003360,0.000452,-0.008695,0.001512,-0.001455,-0.125232,0.054519,-0.990628
1762622955.350717,-0.027504,-0.062705,-0.002044,0.997651,-0.017649,0.005600,-0.004482,-0.005595,0.005596,0.000763,-0.125227,0.054623,-0.990623
1762622955.399042,-0.027953,-0.062689,-0.002138,0.997639,-0.037423,0.005151,-0.009232,-0.006434,0.004218,0.002495,-0.125202,0.055506,-0.990577
1762622955.399361,-0.028402,-0.062674,-0.002232,0.997627,-0.057197,0.004701,-0.013982,-0.007273,0.002839,0.004226,-0.125176,0.056390,-0.990531
1762622955.428192,-0.028942,-0.062582,-0.002425,0.997617,-0.049537,0.015688,-0.016792,-0.007195,-0.001709,0.007687,-0.125007,0.057442,-0.990492
1762622955.428984,-0.029347,-0.062332,-0.002624,0.997621,-0.035584,0.022739,-0.015772,-0.008594,0.000390,0.005181,-0.124522,0.058227,-0.990507
1762622955.459828,-0.029731,-0.062150,-0.002837,0.997620,-0.037901,0.021007,-0.023470,-0.008571,0.004556,0.008316,-0.124172,0.058969,-0.990507
1762622955.464623,-0.030113,-0.061933,-0.003139,0.997621,-0.039594,0.025479,-0.034317,-0.004717,0.006357,0.006811,-0.123760,0.059693,-0.990515
1762622955.493069,-0.030455,-0.061668,-0.003589,0.997626,-0.028246,0.037627,-0.042920,-0.003320,0.000419,0.005554,-0.123261,0.060323,-0.990539
1762622955.529806,-0.030665,-0.061294,-0.003981,0.997641,-0.016040,0.042632,-0.038245,-0.002805,-0.000774,0.001007,-0.122543,0.060696,-0.990605
1762622955.531183,-0.030760,-0.060968,-0.004407,0.997656,-0.011663,0.028481,-0.037484,-0.007033,-0.003636,-0.002459,-0.121922,0.060839,-0.990673
1762622955.561241,-0.030812,-0.060747,-0.004795,0.997666,-0.010401,0.015456,-0.033156,-0.007342,-0.005858,-0.005897,-0.121505,0.060898,-0.990721
1762622955.563331,-0.030904,-0.060660,-0.005089,0.997667,-0.006990,0.011313,-0.019089,-0.005900,-0.008899,-0.003126,-0.121352,0.061046,-0.990731
1762622955.591629,-0.030970,-0.060638,-0.005228,0.997665,-0.012667,-0.005747,-0.007098,-0.008372,-0.010705,-0.004324,-0.121317,0.061162,-0.990728
1762622955.622263,-0.031105,-0.060706,-0.005176,0.997657,-0.010299,-0.002239,0.020321,-0.006581,-0.015565,-0.001916,-0.121450,0.061435,-0.990695
1762622955.624393,-0.031250,-0.060753,-0.004857,0.997652,-0.018254,-0.008759,0.040935,-0.004423,-0.011897,0.001007,-0.121525,0.061764,-0.990665
1762622955.653032,-0.031516,-0.060800,-0.004364,0.997643,-0.026117,0.004635,0.061149,0.000968,-0.005129,0.004664,-0.121589,0.062352,-0.990620
1762622955.706328,-0.032046,-0.060666,-0.003706,0.997637,-0.050858,-0.000945,0.061138,-0.001832,0.000840,-0.001500,-0.121283,0.063490,-0.990585
1762622955.706660,-0.032576,-0.060532,-0.003047,0.997630,-0.075600,-0.006526,0.061128,-0.004634,0.006809,-0.007666,-0.120976,0.064628,-0.990549
1762622955.708176,-0.033424,-0.060754,-0.002515,0.997590,-0.086820,-0.030915,0.049187,-0.003970,0.006013,-0.005402,-0.121383,0.066381,-0.990384
1762622955.736602,-0.034317,-0.061084,-0.002064,0.997540,-0.089630,-0.046789,0.041652,-0.004706,0.005021,-0.005799,-0.122009,0.068214,-0.990182
1762622955.743133,-0.035236,-0.061633,-0.001759,0.997475,-0.086845,-0.056299,0.029183,-0.002588,0.003576,0.004054,-0.123079,0.070077,-0.989920
1762622955.783490,-0.036069,-0.062151,-0.001417,0.997414,-0.083371,-0.045606,0.034478,-0.002036,0.000144,0.006532,-0.124083,0.071776,-0.989672
1762622955.785089,-0.036887,-0.062547,-0.001076,0.997360,-0.074620,-0.035307,0.045121,-0.002955,-0.003114,0.006903,-0.124844,0.073444,-0.989454
1762622955.814832,-0.037669,-0.062834,-0.000564,0.997313,-0.069322,-0.026223,0.056528,-0.004585,0.001300,0.006245,-0.125373,0.075065,-0.989266
1762622955.844121,-0.038388,-0.063058,0.000032,0.997271,-0.068412,-0.025818,0.062108,-0.008383,0.005172,-0.002395,-0.125769,0.076571,-0.989100
1762622955.846133,-0.039088,-0.063286,0.000554,0.997229,-0.068860,-0.027397,0.044137,-0.009837,0.009817,-0.001778,-0.126179,0.078030,-0.988934
1762622955.881700,-0.039777,-0.063620,0.000844,0.997181,-0.065812,-0.032168,0.015907,-0.010603,0.008106,0.002622,-0.126813,0.079437,-0.988741
1762622955.912147,-0.040194,-0.063833,0.000868,0.997150,-0.040539,-0.014928,0.006940,-0.009811,0.003233,0.006971,-0.127232,0.080270,-0.988620
1762622955.942150,-0.040473,-0.063901,0.000873,0.997135,-0.024554,-0.000060,0.003759,-0.011735,0.002608,0.008343,-0.127364,0.080826,-0.988557
1762622955.942436,-0.040673,-0.063841,0.000886,0.997131,-0.019844,0.007722,0.002654,-0.012852,0.004462,0.006103,-0.127243,0.081226,-0.988540
1762622955.998738,-0.040891,-0.063695,0.000841,0.997131,-0.020957,0.014318,-0.001285,-0.011784,0.004564,0.006591,-0.126957,0.081654,-0.988542
1762622955.999076,-0.041109,-0.063550,0.000795,0.997131,-0.022071,0.020913,-0.005223,-0.010716,0.004666,0.007079,-0.126670,0.082083,-0.988543
1762622956.000691,-0.041299,-0.063296,0.000689,0.997140,-0.018534,0.028506,-0.012303,-0.011636,0.003118,0.005111,-0.126174,0.082448,-0.988576
1762622956.033281,-0.041428,-0.062997,0.000517,0.997153,-0.012199,0.033012,-0.018672,-0.012529,0.001089,0.005358,-0.125592,0.082685,-0.988630
1762622956.062686,-0.041484,-0.062661,0.000286,0.997172,-0.003822,0.034721,-0.023286,-0.012729,-0.001323,0.004070,-0.124944,0.082769,-0.988705
1762622956.062982,-0.041492,-0.062304,0.000036,0.997194,-0.002060,0.039306,-0.025361,-0.010132,-0.001598,0.005160,-0.124256,0.082756,-0.988793
1762622956.091713,-0.041500,-0.061859,-0.000237,0.997222,-0.005617,0.049131,-0.024612,-0.009955,-0.001709,0.002579,-0.123393,0.082740,-0.988902
1762622956.122338,-0.041571,-0.061412,-0.000525,0.997246,-0.011692,0.041785,-0.028818,-0.009890,-0.003288,0.001415,-0.122529,0.082849,-0.989001
1762622956.124350,-0.041679,-0.061042,-0.000849,0.997264,-0.012474,0.038969,-0.029735,-0.007898,-0.007966,0.001483,-0.121820,0.083025,-0.989074
1762622956.153042,-0.041762,-0.060667,-0.001157,0.997283,-0.007826,0.035465,-0.024221,-0.008997,-0.010501,-0.001463,-0.121100,0.083157,-0.989151
1762622956.160838,-0.041794,-0.060372,-0.001410,0.997300,-0.002463,0.027935,-0.021048,-0.007231,-0.012100,0.000122,-0.120537,0.083192,-0.989217
1762622956.199792,-0.041802,-0.060142,-0.001584,0.997313,-0.005852,0.019293,-0.012455,-0.006199,-0.009708,-0.001534,-0.120094,0.083188,-0.989271
1762622956.201871,-0.041890,-0.059950,-0.001656,0.997321,-0.012772,0.021162,-0.001930,-0.002956,-0.004953,-0.001806,-0.119717,0.083358,-0.989302
1762622956.230639,-0.042117,-0.059794,-0.001717,0.997320,-0.032243,0.011987,-0.007414,-0.002302,-0.000288,-0.002294,-0.119413,0.083804,-0.989302
1762622956.309150,-0.042452,-0.059704,-0.002010,0.997311,-0.030100,0.010429,-0.017936,-0.002161,0.000412,-0.002522,-0.119258,0.084437,-0.989266
1762622956.309432,-0.042788,-0.059614,-0.002304,0.997301,-0.027956,0.008871,-0.028458,-0.002020,0.001112,-0.002751,-0.119104,0.085070,-0.989231
1762622956.309976,-0.043123,-0.059524,-0.002597,0.997292,-0.025812,0.007313,-0.038979,-0.001879,0.001812,-0.002980,-0.118950,0.085703,-0.989195
1762622956.310533,-0.043458,-0.059434,-0.002890,0.997282,-0.023669,0.005755,-0.049501,-0.001737,0.002512,-0.003209,-0.118796,0.086336,-0.989158
1762622956.342849,-0.043690,-0.059369,-0.003370,0.997274,-0.018356,0.005689,-0.054283,-0.000939,0.000307,-0.000641,-0.118709,0.086742,-0.989133
1762622956.342980,-0.043841,-0.059324,-0.003870,0.997268,-0.015280,0.002691,-0.051849,-0.003731,-0.002153,-0.000814,-0.118663,0.086983,-0.989117
1762622956.373946,-0.043985,-0.059341,-0.004316,0.997259,-0.014089,-0.001952,-0.038289,-0.005581,-0.005459,-0.001844,-0.118735,0.087217,-0.989088
1762622956.378819,-0.044111,-0.059402,-0.004617,0.997248,-0.011501,-0.008193,-0.021475,-0.007311,-0.007259,-0.001392,-0.118884,0.087430,-0.989051
1762622956.420054,-0.044215,-0.059534,-0.004731,0.997235,-0.007689,-0.015772,-0.000922,-0.007611,-0.009518,-0.001190,-0.119157,0.087622,-0.989001
1762622956.422031,-0.044275,-0.059735,-0.004639,0.997221,-0.004501,-0.022735,0.016802,-0.007966,-0.008190,-0.001182,-0.119548,0.087750,-0.988943
1762622956.453177,-0.044352,-0.059997,-0.004378,0.997203,-0.007973,-0.030739,0.027308,-0.007753,-0.005852,0.001014,-0.120046,0.087931,-0.988867
1762622956.457128,-0.044442,-0.060278,-0.004065,0.997184,-0.008044,-0.028116,0.032231,-0.006286,-0.004356,0.004103,-0.120578,0.088143,-0.988783
1762622956.485264,-0.044543,-0.060503,-0.003741,0.997167,-0.010207,-0.019491,0.029658,-0.004939,-0.001824,0.002916,-0.120996,0.088380,-0.988711
1762622956.515959,-0.044658,-0.060644,-0.003482,0.997154,-0.011474,-0.007587,0.021865,-0.004046,-0.001020,0.003545,-0.121254,0.088639,-0.988656
1762622956.518078,-0.044812,-0.060690,-0.003290,0.997145,-0.013513,0.002078,0.018453,-0.005571,-0.000483,0.003314,-0.121328,0.088970,-0.988617
1762622956.546478,-0.045000,-0.060639,-0.003129,0.997140,-0.021474,0.004766,0.014156,-0.008104,0.002437,0.000984,-0.121212,0.089363,-0.988596
1762622956.602979,-0.045361,-0.060621,-0.003151,0.997125,-0.027632,0.003675,0.003989,-0.007921,0.000625,0.002625,-0.121179,0.090080,-0.988535
1762622956.603311,-0.045723,-0.060603,-0.003173,0.997109,-0.033789,0.002584,-0.006177,-0.007739,-0.001188,0.004265,-0.121146,0.090797,-0.988473
1762622956.603521,-0.046035,-0.060502,-0.003266,0.997101,-0.022987,0.018304,-0.005380,-0.006567,-0.003692,0.004486,-0.120953,0.091407,-0.988441
1762622956.649242,-0.046180,-0.060296,-0.003324,0.997106,-0.016900,0.015617,-0.004787,-0.008461,-0.001636,0.001414,-0.120549,0.091692,-0.988464
1762622956.649688,-0.046326,-0.060090,-0.003381,0.997112,-0.010814,0.012929,-0.004194,-0.010354,0.000421,-0.001657,-0.120145,0.091978,-0.988486
1762622956.678222,-0.046441,-0.059966,-0.003423,0.997114,-0.009177,0.006395,0.001350,-0.008916,0.002880,-0.000938,-0.119903,0.092203,-0.988495
1762622956.678833,-0.046562,-0.059929,-0.003377,0.997110,-0.014055,-0.004160,0.005741,-0.008334,0.004335,-0.003513,-0.119826,0.092449,-0.988481
1762622956.709986,-0.046721,-0.060051,-0.003293,0.997096,-0.010186,-0.020262,0.012173,-0.007670,-0.000042,-0.001124,-0.120062,0.092775,-0.988422
1762622956.739089,-0.046775,-0.060340,-0.003087,0.997077,0.003904,-0.033940,0.023982,-0.006923,-0.001275,0.000179,-0.120617,0.092903,-0.988342
1762622956.741237,-0.046684,-0.060689,-0.002778,0.997061,0.016166,-0.034006,0.034207,-0.005521,0.001160,0.002056,-0.121281,0.092757,-0.988275
1762622956.771137,-0.046554,-0.061042,-0.002428,0.997046,0.013381,-0.034037,0.028813,-0.004535,0.006612,0.006693,-0.121949,0.092536,-0.988213
1762622956.778124,-0.046443,-0.061245,-0.002151,0.997039,0.008786,-0.016106,0.019578,-0.005289,0.011058,0.006151,-0.122327,0.092347,-0.988184
1762622956.808111,-0.046444,-0.061420,-0.002050,0.997029,-0.003087,-0.014759,-0.003267,-0.004273,0.011558,0.007468,-0.122665,0.092361,-0.988141
1762622956.838503,-0.046461,-0.061488,-0.002175,0.997024,-0.004313,0.002728,-0.017234,-0.004908,0.008352,0.006228,-0.122813,0.092379,-0.988121
1762622956.838782,-0.046510,-0.061439,-0.002442,0.997024,-0.007287,0.008042,-0.033340,-0.007381,0.005893,0.001487,-0.122739,0.092444,-0.988124
1762622956.898706,-0.046577,-0.061502,-0.002819,0.997016,-0.005325,0.000340,-0.029899,-0.007595,0.001282,0.001769,-0.122900,0.092528,-0.988096
1762622956.898997,-0.046643,-0.061565,-0.003195,0.997008,-0.003362,-0.007362,-0.026457,-0.007809,-0.003329,0.002052,-0.123060,0.092613,-0.988068
1762622956.899800,-0.046651,-0.061635,-0.003435,0.997002,0.001764,-0.007170,-0.015673,-0.007499,-0.005900,0.002995,-0.123220,0.092598,-0.988050
1762622956.930042,-0.046598,-0.061701,-0.003511,0.997000,0.006569,-0.007065,-0.002449,-0.008171,-0.005380,0.001692,-0.123358,0.092482,-0.988043
1762622956.932380,-0.046510,-0.061799,-0.003509,0.996998,0.011087,-0.007037,0.003136,-0.007809,-0.004523,0.002352,-0.123553,0.092307,-0.988035
1762622956.961544,-0.046364,-0.061899,-0.003437,0.996999,0.012708,-0.007964,0.002753,-0.005746,-0.002199,0.002644,-0.123744,0.092025,-0.988038
1762622956.992152,-0.046196,-0.061969,-0.003399,0.997003,0.015229,-0.001350,0.004577,-0.004388,-0.001120,0.002659,-0.123880,0.091693,-0.988052
1762622956.993470,-0.046070,-0.061996,-0.003368,0.997007,0.005764,-0.004119,-0.005097,-0.006237,0.002138,0.002012,-0.123932,0.091447,-0.988068
1762622957.023755,-0.046041,-0.062035,-0.003466,0.997005,0.000168,-0.001269,-0.013016,-0.006483,0.000321,0.002290,-0.124018,0.091375,-0.988064
1762622957.052624,-0.046042,-0.062056,-0.003651,0.997003,-0.001447,0.000880,-0.018753,-0.006529,-0.002636,0.002060,-0.124077,0.091355,-0.988058
1762622957.054669,-0.046020,-0.062025,-0.003842,0.997006,0.000826,0.008156,-0.014568,-0.008209,-0.004751,0.001837,-0.124031,0.091288,-0.988070
1762622957.087448,-0.046007,-0.061943,-0.003977,0.997011,-0.001076,0.006216,-0.007038,-0.008659,-0.004548,0.000791,-0.123882,0.091247,-0.988093
1762622957.092423,-0.046015,-0.061861,-0.004004,0.997015,-0.002673,0.005203,-0.002342,-0.008969,-0.003593,0.001280,-0.123722,0.091259,-0.988112
1762622957.120384,-0.046055,-0.061813,-0.004030,0.997017,-0.003305,0.001084,-0.000441,-0.007532,-0.004600,0.003978,-0.123629,0.091336,-0.988116
1762622957.150976,-0.046049,-0.061753,-0.004027,0.997021,0.003763,0.010472,0.001285,-0.005749,-0.002198,0.005970,-0.123509,0.091326,-0.988132
1762622957.152483,-0.045991,-0.061609,-0.004052,0.997032,0.007868,0.012482,-0.007325,-0.003951,-0.000477,0.003293,-0.123225,0.091210,-0.988178
1762622957.198748,-0.045886,-0.061453,-0.004159,0.997046,0.008411,0.017628,-0.015006,-0.004391,0.000250,0.000230,-0.122924,0.090990,-0.988236
1762622957.200728,-0.045789,-0.061326,-0.004335,0.997058,0.003720,0.010203,-0.016496,-0.007893,-0.002984,-0.003356,-0.122688,0.090777,-0.988285
1762622957.229101,-0.045733,-0.061273,-0.004458,0.997063,-0.001225,-0.004966,-0.004868,-0.011364,-0.005816,-0.005094,-0.122593,0.090650,-0.988308
1762622957.231227,-0.045776,-0.061352,-0.004463,0.997056,-0.003462,-0.009434,0.005646,-0.009630,-0.010143,0.000936,-0.122751,0.090735,-0.988281
1762622957.260153,-0.045803,-0.061457,-0.004322,0.997049,0.001947,-0.012771,0.017652,-0.009994,-0.011461,0.001752,-0.122947,0.090805,-0.988250
1762622957.291163,-0.045733,-0.061537,-0.004072,0.997048,0.012835,-0.001219,0.034591,-0.010308,-0.011976,0.004853,-0.123084,0.090695,-0.988243
1762622957.293119,-0.045599,-0.061489,-0.003605,0.997059,0.015125,0.006081,0.055288,-0.010753,-0.006422,0.002858,-0.122945,0.090486,-0.988280
1762622957.321623,-0.045503,-0.061405,-0.003057,0.997071,0.006274,0.005325,0.048798,-0.008850,0.002952,0.004320,-0.122729,0.090364,-0.988318
1762622957.352213,-0.045517,-0.061301,-0.002633,0.997077,-0.001727,0.014198,0.034714,-0.004932,0.007634,0.006578,-0.122484,0.090445,-0.988341
1762622957.353681,-0.045553,-0.061147,-0.002475,0.997086,-0.005888,0.017615,-0.002861,-0.004577,0.013298,0.005830,-0.122164,0.090538,-0.988372
1762622957.383546,-0.045556,-0.060993,-0.002705,0.997094,-0.001784,0.019582,-0.039723,-0.006384,0.010526,0.006113,-0.121878,0.090517,-0.988409
1762622957.422683,-0.045499,-0.060829,-0.003272,0.997105,0.003685,0.019739,-0.044621,-0.007618,0.004365,0.004875,-0.121603,0.090336,-0.988459
1762622957.422984,-0.045442,-0.060664,-0.003840,0.997116,0.009154,0.019896,-0.049519,-0.008851,-0.001797,0.003637,-0.121328,0.090156,-0.988510
1762622957.451737,-0.045364,-0.060512,-0.004299,0.997127,0.007920,0.015921,-0.033978,-0.010084,-0.007033,0.004509,-0.121066,0.089948,-0.988561
1762622957.463359,-0.045253,-0.060263,-0.004497,0.997146,0.015947,0.026545,0.001008,-0.012648,-0.010394,0.001318,-0.120588,0.089705,-0.988641
1762622957.500683,-0.045090,-0.060079,-0.004383,0.997165,0.019647,0.022619,0.009046,-0.009940,-0.007246,0.001504,-0.120212,0.089398,-0.988715
1762622957.500958,-0.044928,-0.059895,-0.004269,0.997184,0.023347,0.018694,0.017084,-0.007231,-0.004098,0.001691,-0.119836,0.089091,-0.988788
1762622957.550178,-0.044703,-0.059743,-0.004125,0.997204,0.019243,0.012199,0.009661,-0.006837,0.000354,0.001252,-0.119521,0.088664,-0.988865
1762622957.550519,-0.044479,-0.059591,-0.003981,0.997223,0.015138,0.005705,0.002238,-0.006443,0.004807,0.000814,-0.119206,0.088237,-0.988941
1762622957.551167,-0.044365,-0.059561,-0.004004,0.997230,0.006155,0.004328,-0.009724,-0.003765,0.005928,0.002293,-0.119148,0.088007,-0.988968
1762622957.581372,-0.044324,-0.059512,-0.004164,0.997234,0.001404,0.007387,-0.019036,-0.003047,0.002066,0.002939,-0.119064,0.087907,-0.988987
1762622957.610481,-0.044263,-0.059423,-0.004377,0.997241,0.005280,0.012098,-0.018669,-0.003597,-0.001906,0.001873,-0.118906,0.087762,-0.989019
1762622957.612530,-0.044181,-0.059300,-0.004548,0.997252,0.010557,0.012712,-0.013106,-0.005804,-0.004236,0.000431,-0.118675,0.087580,-0.989063
1762622957.655135,-0.044017,-0.059159,-0.004617,0.997267,0.017369,0.015709,-0.001338,-0.006571,-0.004935,-0.000961,-0.118400,0.087248,-0.989125
1762622957.656261,-0.043873,-0.059027,-0.004603,0.997281,0.013370,0.011385,0.002035,-0.005584,-0.001540,-0.000685,-0.118137,0.086965,-0.989182
1762622957.687590,-0.043776,-0.058933,-0.004554,0.997291,0.003391,0.004041,0.001543,-0.006224,-0.000387,-0.000996,-0.117946,0.086779,-0.989221
1762622957.687905,-0.043733,-0.058904,-0.004525,0.997295,0.003024,0.000695,0.003191,-0.004922,-0.001736,-0.000191,-0.117884,0.086695,-0.989236
1762622957.720779,-0.043660,-0.058912,-0.004484,0.997298,0.008461,-0.003737,0.001916,-0.006697,-0.002260,0.000874,-0.117898,0.086557,-0.989246
1762622957.755271,-0.043529,-0.059003,-0.004475,0.997298,0.015294,-0.009585,-0.003184,-0.007073,-0.002909,0.000642,-0.118076,0.086295,-0.989248
1762622957.757088,-0.043308,-0.059135,-0.004498,0.997300,0.023835,-0.013179,-0.005428,-0.006372,-0.003904,0.003646,-0.118341,0.085850,-0.989255
1762622957.798780,-0.043029,-0.059208,-0.004538,0.997308,0.024496,-0.008236,-0.008950,-0.005949,-0.002685,0.003359,-0.118487,0.085290,-0.989286
1762622957.799025,-0.042751,-0.059280,-0.004579,0.997315,0.025158,-0.003294,-0.012473,-0.005527,-0.001466,0.003072,-0.118633,0.084730,-0.989317
1762622957.827863,-0.042505,-0.059330,-0.004707,0.997322,0.022194,0.004634,-0.018513,-0.003145,0.001808,0.003568,-0.118742,0.084223,-0.989347
1762622957.829975,-0.042262,-0.059269,-0.004889,0.997335,0.016553,0.002663,-0.019013,-0.008141,0.001303,-0.003423,-0.118636,0.083719,-0.989402
1762622957.866119,-0.042128,-0.059348,-0.005162,0.997335,0.012899,-0.008650,-0.025768,-0.009397,-0.002206,-0.002739,-0.118814,0.083419,-0.989406
1762622957.868102,-0.042027,-0.059485,-0.005411,0.997329,0.004767,-0.019332,-0.029059,-0.008202,-0.004783,0.002691,-0.119107,0.083185,-0.989391
1762622957.896577,-0.041933,-0.059637,-0.005653,0.997323,0.014097,-0.005593,-0.018187,-0.007118,-0.009630,0.005103,-0.119428,0.082966,-0.989370
1762622957.927421,-0.041728,-0.059703,-0.005829,0.997327,0.022437,-0.003846,-0.019934,-0.007097,-0.007939,0.004990,-0.119573,0.082537,-0.989389
1762622957.928661,-0.041449,-0.059665,-0.006003,0.997339,0.025864,0.013094,-0.016989,-0.006507,-0.005082,0.003651,-0.119511,0.081962,-0.989444
1762622957.958727,-0.041206,-0.059571,-0.006229,0.997354,0.014578,0.009279,-0.024094,-0.006557,-0.000494,0.000427,-0.119340,0.081451,-0.989507
1762622957.967994,-0.041155,-0.059564,-0.006523,0.997354,-0.010762,-0.000335,-0.031635,-0.005248,0.003229,-0.001704,-0.119349,0.081316,-0.989517
1762622958.007164,-0.041350,-0.059589,-0.006816,0.997343,-0.028955,0.001492,-0.023556,-0.002802,0.002968,0.003726,-0.119424,0.081668,-0.989479
1762622958.009351,-0.041722,-0.059614,-0.007026,0.997324,-0.049324,-0.008407,-0.012102,-0.006384,-0.000193,-0.000585,-0.119495,0.082384,-0.989411
1762622958.037740,-0.042237,-0.059772,-0.007096,0.997293,-0.052886,-0.021992,-0.000284,-0.009234,-0.005648,-0.003692,-0.119820,0.083396,-0.989287
1762622958.101072,-0.042557,-0.060035,-0.006843,0.997265,-0.039656,-0.019866,0.013584,-0.008595,-0.003506,-0.001567,-0.120323,0.084060,-0.989169
1762622958.101383,-0.042878,-0.060298,-0.006589,0.997237,-0.026425,-0.017740,0.027453,-0.007956,-0.001364,0.000557,-0.120827,0.084724,-0.989051
1762622958.101607,-0.043198,-0.060560,-0.006335,0.997209,-0.013195,-0.015614,0.041322,-0.007318,0.000778,0.002681,-0.121330,0.085388,-0.988933
1762622958.131242,-0.043380,-0.060818,-0.005938,0.997188,-0.012675,-0.033908,0.036909,-0.011044,0.005906,-0.000059,-0.121810,0.085793,-0.988839
1762622958.131505,-0.043545,-0.061158,-0.005642,0.997162,-0.012102,-0.030846,0.020623,-0.005179,0.006537,0.006627,-0.122460,0.086153,-0.988727
1762622958.159289,-0.043594,-0.061365,-0.005409,0.997148,0.002866,-0.011963,0.018187,-0.006374,0.004089,0.005291,-0.122852,0.086275,-0.988668
1762622958.199974,-0.043531,-0.061535,-0.005350,0.997141,0.007083,-0.015312,0.008156,-0.008840,0.002083,0.004661,-0.123183,0.086155,-0.988637
1762622958.200231,-0.043468,-0.061704,-0.005292,0.997133,0.011299,-0.018660,-0.001875,-0.011307,0.000076,0.004031,-0.123514,0.086034,-0.988606
1762622958.204793,-0.043314,-0.061900,-0.005314,0.997128,0.019971,-0.010300,-0.001519,-0.008833,-0.003003,0.004826,-0.123904,0.085721,-0.988585
1762622958.232832,-0.043072,-0.061979,-0.005299,0.997134,0.026588,-0.003535,-0.001360,-0.010668,-0.003569,0.002290,-0.124059,0.085239,-0.988607
1762622958.263495,-0.042761,-0.062012,-0.005257,0.997145,0.030434,0.004667,0.008714,-0.009817,-0.005792,0.004274,-0.124120,0.084625,-0.988652
1762622958.265631,-0.042429,-0.061976,-0.005129,0.997162,0.026965,0.001941,0.010917,-0.008622,-0.003210,0.000599,-0.124035,0.083981,-0.988718
1762622958.294283,-0.042202,-0.061910,-0.004981,0.997177,0.019226,0.008043,0.013226,-0.007780,-0.000736,0.002950,-0.123891,0.083550,-0.988772
1762622958.324742,-0.042041,-0.061816,-0.004853,0.997190,0.008973,0.012132,0.008636,-0.005882,0.000177,0.004175,-0.123692,0.083245,-0.988823
1762622958.326190,-0.041996,-0.061655,-0.004806,0.997202,-0.001974,0.015843,0.000749,-0.008307,0.001335,0.001591,-0.123368,0.083165,-0.988870
1762622958.356148,-0.042065,-0.061550,-0.004879,0.997205,-0.012268,0.009403,-0.012131,-0.008575,0.000185,-0.001138,-0.123166,0.083294,-0.988884
1762622958.397360,-0.042215,-0.061504,-0.005007,0.997201,-0.009936,0.008618,-0.008021,-0.008504,-0.003650,0.000532,-0.123087,0.083578,-0.988870
1762622958.397671,-0.042366,-0.061459,-0.005135,0.997197,-0.007604,0.007832,-0.003911,-0.008433,-0.007485,0.002203,-0.123009,0.083863,-0.988856
1762622958.404402,-0.042448,-0.061447,-0.005153,0.997194,-0.006098,0.001574,0.002952,-0.008579,-0.005281,0.000997,-0.122987,0.084024,-0.988845
1762622958.434514,-0.042479,-0.061428,-0.005122,0.997194,-0.002239,0.002219,0.005520,-0.007464,-0.005360,0.001362,-0.122946,0.084091,-0.988844
1762622958.464015,-0.042447,-0.061377,-0.005065,0.997199,0.004015,0.006922,0.004609,-0.005704,-0.003480,0.003613,-0.122841,0.084034,-0.988862
1762622958.464333,-0.042431,-0.061330,-0.005025,0.997203,0.001263,0.008917,-0.000213,-0.003919,-0.000757,0.001481,-0.122743,0.084007,-0.988877
1762622958.493525,-0.042439,-0.061219,-0.005045,0.997209,-0.004438,0.007241,-0.002251,-0.008773,0.000500,-0.003170,-0.122524,0.084024,-0.988902
1762622958.533640,-0.042602,-0.061353,-0.005100,0.997194,-0.012307,-0.006673,-0.003173,-0.011283,-0.004117,-0.002411,-0.122796,0.084340,-0.988842
1762622958.533936,-0.042765,-0.061487,-0.005156,0.997178,-0.020176,-0.020587,-0.004094,-0.013793,-0.008734,-0.001652,-0.123069,0.084655,-0.988781
1762622958.563676,-0.042909,-0.061745,-0.005160,0.997156,-0.006544,-0.022258,0.007039,-0.008780,-0.012140,0.005076,-0.123582,0.084937,-0.988693
1762622958.565835,-0.042916,-0.061876,-0.005025,0.997148,0.002312,0.001292,0.019886,-0.007328,-0.008422,0.008377,-0.123831,0.084966,-0.988659
1762622958.595159,-0.042939,-0.061800,-0.004781,0.997153,-0.005832,0.003663,0.020324,-0.009703,-0.002047,0.000487,-0.123658,0.085043,-0.988674
1762622958.626489,-0.043063,-0.061797,-0.004612,0.997149,-0.015781,-0.002289,0.011257,-0.006922,-0.000862,0.001074,-0.123639,0.085311,-0.988653
1762622958.626795,-0.043254,-0.061829,-0.004468,0.997139,-0.021802,0.004161,0.014276,-0.003375,0.001040,0.001149,-0.123691,0.085707,-0.988613
1762622958.656167,-0.043520,-0.061780,-0.004373,0.997131,-0.031237,0.004080,0.007520,-0.004514,0.001393,0.000634,-0.123586,0.086250,-0.988578
1762622958.659654,-0.043899,-0.061774,-0.004343,0.997115,-0.039547,-0.004413,0.003544,-0.007291,-0.002409,0.001240,-0.123572,0.087009,-0.988514
1762622958.701170,-0.044271,-0.061808,-0.004332,0.997096,-0.028555,-0.005159,0.006034,-0.008764,-0.005836,0.004430,-0.123641,0.087749,-0.988440
1762622958.731841,-0.044544,-0.061819,-0.004236,0.997084,-0.026744,-0.001657,0.011184,-0.008821,-0.003674,0.002237,-0.123654,0.088305,-0.988389
1762622958.762216,-0.044822,-0.061764,-0.004103,0.997075,-0.026492,0.001357,0.012404,-0.008723,-0.001075,0.001740,-0.123535,0.088874,-0.988352
1762622958.764297,-0.045089,-0.061732,-0.003998,0.997066,-0.024481,0.000553,0.007181,-0.007780,-0.000219,0.002791,-0.123462,0.089420,-0.988312
1762622958.792699,-0.045314,-0.061690,-0.003954,0.997058,-0.019460,0.005930,0.002264,-0.008182,-0.000453,0.003125,-0.123375,0.089874,-0.988282
1762622958.800457,-0.045514,-0.061626,-0.003970,0.997053,-0.016883,0.003437,-0.003486,-0.008700,-0.000673,0.001208,-0.123249,0.090270,-0.988262
1762622958.829016,-0.045665,-0.061599,-0.004042,0.997048,-0.013744,0.002833,-0.006638,-0.010250,-0.001214,0.001198,-0.123203,0.090562,-0.988241
1762622958.867233,-0.045789,-0.061598,-0.004120,0.997042,-0.009548,0.001182,-0.007808,-0.009742,-0.001803,0.001732,-0.123210,0.090799,-0.988218
1762622958.868530,-0.045870,-0.061573,-0.004181,0.997039,-0.005811,0.001678,-0.002225,-0.009680,-0.003278,0.001721,-0.123165,0.090954,-0.988209
1762622958.897874,-0.045924,-0.061550,-0.004192,0.997038,-0.003163,0.002946,0.001039,-0.009354,-0.002771,0.002692,-0.123121,0.091059,-0.988205
1762622958.901714,-0.045955,-0.061504,-0.004159,0.997040,-0.001996,0.004276,0.003331,-0.007883,-0.002085,0.002215,-0.123027,0.091127,-0.988211
1762622958.933757,-0.045989,-0.061450,-0.004115,0.997042,-0.002123,0.007716,0.005861,-0.007538,-0.001877,0.002775,-0.122915,0.091200,-0.988218
1762622958.940599,-0.046025,-0.061339,-0.004058,0.997047,-0.004432,0.009384,0.006693,-0.006615,-0.000002,0.001379,-0.122690,0.091281,-0.988238
1762622959.004063,-0.046135,-0.061242,-0.004030,0.997048,-0.009705,0.007393,0.004886,-0.006875,-0.000096,0.000575,-0.122494,0.091504,-0.988242
1762622959.004373,-0.046244,-0.061144,-0.004002,0.997049,-0.014978,0.005402,0.003079,-0.007136,-0.000189,-0.000229,-0.122297,0.091726,-0.988246
1762622959.004870,-0.046401,-0.061081,-0.003987,0.997046,-0.015939,0.002666,0.001332,-0.007562,-0.001487,-0.001610,-0.122172,0.092041,-0.988232
1762622959.037982,-0.046566,-0.061086,-0.003976,0.997038,-0.012743,-0.001275,0.003783,-0.007111,-0.004202,0.000705,-0.122180,0.092370,-0.988200
1762622959.038268,-0.046666,-0.061114,-0.003888,0.997032,-0.007469,-0.004982,0.010406,-0.007444,-0.005279,0.002244,-0.122228,0.092581,-0.988175
1762622959.068578,-0.046715,-0.061179,-0.003741,0.997026,-0.000292,-0.005938,0.016492,-0.007783,-0.004681,0.004060,-0.122343,0.092694,-0.988150
1762622959.097982,-0.046678,-0.061238,-0.003531,0.997025,0.006353,-0.006069,0.019569,-0.008033,-0.002869,0.004097,-0.122440,0.092645,-0.988142
1762622959.099479,-0.046596,-0.061275,-0.003324,0.997027,0.008938,-0.003943,0.015702,-0.005616,0.000777,0.004715,-0.122495,0.092508,-0.988148
1762622959.130113,-0.046479,-0.061286,-0.003190,0.997032,0.007649,-0.001422,0.008926,-0.006778,0.002497,0.001572,-0.122506,0.092292,-0.988167
1762622959.159321,-0.046407,-0.061311,-0.003126,0.997034,0.003128,-0.004718,0.000555,-0.008471,0.002513,-0.001558,-0.122548,0.092156,-0.988175
1762622959.160897,-0.046401,-0.061431,-0.003158,0.997027,-0.003827,-0.013402,-0.005993,-0.008722,0.001506,-0.001885,-0.122791,0.092139,-0.988146
1762622959.200311,-0.046462,-0.061600,-0.003216,0.997014,-0.006904,-0.016549,-0.006753,-0.009151,-0.002244,-0.000294,-0.123131,0.092251,-0.988093
1762622959.201639,-0.046518,-0.061772,-0.003273,0.997000,-0.003118,-0.007473,-0.003049,-0.007615,-0.005375,0.004456,-0.123479,0.092353,-0.988040
1762622959.239731,-0.046515,-0.061796,-0.003245,0.996999,0.000892,0.007016,0.005462,-0.007608,-0.003816,0.005026,-0.123522,0.092349,-0.988035
1762622959.241225,-0.046525,-0.061705,-0.003205,0.997004,-0.001051,0.007483,0.002449,-0.008287,-0.000922,0.002185,-0.123339,0.092376,-0.988056
1762622959.310928,-0.046604,-0.061705,-0.003263,0.997001,-0.004805,0.006472,-0.000581,-0.008543,-0.001303,0.002200,-0.123344,0.092525,-0.988041
1762622959.310984,-0.046682,-0.061705,-0.003321,0.996997,-0.008559,0.005461,-0.003611,-0.008800,-0.001683,0.002214,-0.123349,0.092674,-0.988027
1762622959.311177,-0.046761,-0.061705,-0.003379,0.996993,-0.012313,0.004450,-0.006642,-0.009056,-0.002064,0.002228,-0.123355,0.092823,-0.988012
1762622959.315562,-0.046877,-0.061710,-0.003444,0.996987,-0.013722,-0.001642,-0.003812,-0.011492,-0.003825,0.002670,-0.123372,0.093047,-0.987989
1762622959.346962,-0.046998,-0.061742,-0.003444,0.996979,-0.010069,-0.002907,0.004594,-0.012167,-0.004467,0.002008,-0.123435,0.093287,-0.987958
1762622959.375977,-0.047112,-0.061802,-0.003369,0.996970,-0.010843,-0.005904,0.010345,-0.011103,-0.003059,0.002613,-0.123547,0.093521,-0.987922
1762622959.376740,-0.047202,-0.061786,-0.003220,0.996967,-0.006255,0.008492,0.016876,-0.008896,-0.002278,0.002999,-0.123501,0.093720,-0.987909
1762622959.407937,-0.047304,-0.061767,-0.003072,0.996964,-0.008210,0.000139,0.009867,-0.010285,0.001017,0.002181,-0.123450,0.093941,-0.987894
1762622959.438651,-0.047413,-0.061769,-0.003013,0.996959,-0.009680,0.003007,0.001810,-0.008649,-0.000570,0.002036,-0.123449,0.094166,-0.987873
1762622959.440756,-0.047519,-0.061667,-0.003018,0.996960,-0.011620,0.009668,-0.005739,-0.009348,0.000795,0.001282,-0.123246,0.094377,-0.987878
1762622959.469024,-0.047648,-0.061601,-0.003118,0.996958,-0.011726,0.006025,-0.010362,-0.010595,-0.001460,0.000440,-0.123125,0.094622,-0.987870
1762622959.476834,-0.047763,-0.061579,-0.003232,0.996954,-0.010583,-0.000196,-0.007405,-0.011711,-0.005149,0.001931,-0.123092,0.094837,-0.987853
1762622959.506132,-0.047835,-0.061585,-0.003281,0.996950,-0.003219,0.006246,0.002109,-0.010341,-0.006092,0.003877,-0.123108,0.094974,-0.987838
1762622959.534020,-0.047849,-0.061517,-0.003224,0.996953,-0.002157,0.009120,0.008855,-0.009798,-0.005220,0.003407,-0.122968,0.095011,-0.987852
1762622959.535118,-0.047878,-0.061422,-0.003102,0.996958,-0.003996,0.010410,0.012836,-0.009604,-0.003583,0.001921,-0.122767,0.095084,-0.987870
1762622959.565324,-0.047962,-0.061302,-0.002979,0.996962,-0.011024,0.009717,0.011386,-0.009119,-0.001912,0.002018,-0.122516,0.095267,-0.987884
1762622959.601462,-0.048106,-0.061190,-0.002870,0.996962,-0.017800,0.009002,0.008921,-0.008536,-0.001958,0.002864,-0.122284,0.095568,-0.987883
1762622959.602751,-0.048298,-0.061069,-0.002827,0.996960,-0.020593,0.014766,0.005116,-0.008933,-0.003489,0.003799,-0.122039,0.095958,-0.987876
1762622959.634287,-0.048512,-0.060898,-0.002836,0.996960,-0.020203,0.020252,0.004008,-0.009163,-0.003701,0.004591,-0.121701,0.096385,-0.987876
1762622959.634609,-0.048760,-0.060707,-0.002833,0.996960,-0.025278,0.018961,0.002855,-0.009026,-0.003270,0.003585,-0.121321,0.096879,-0.987874
1762622959.677426,-0.049021,-0.060508,-0.002826,0.996959,-0.025507,0.021683,0.004495,-0.008545,-0.002954,0.002264,-0.120925,0.097402,-0.987871
1762622959.679386,-0.049287,-0.060306,-0.002816,0.996958,-0.025598,0.022764,0.005146,-0.008713,-0.003391,0.002248,-0.120522,0.097935,-0.987868
1762622959.708200,-0.049522,-0.060057,-0.002781,0.996962,-0.022009,0.022626,0.003167,-0.006745,-0.002440,0.001446,-0.120025,0.098410,-0.987881
1762622959.712566,-0.049737,-0.059848,-0.002817,0.996964,-0.017079,0.021078,-0.002360,-0.005553,-0.001036,0.001874,-0.119613,0.098835,-0.987889
1762622959.741439,-0.049893,-0.059639,-0.002912,0.996968,-0.014927,0.019668,-0.012255,-0.005417,-0.000149,0.000782,-0.119207,0.099136,-0.987908
1762622959.771406,-0.049993,-0.059455,-0.003077,0.996974,-0.009573,0.020634,-0.016847,-0.006155,-0.001420,0.000129,-0.118857,0.099318,-0.987932
1762622959.772735,-0.050037,-0.059298,-0.003252,0.996980,-0.003150,0.013417,-0.015425,-0.008828,-0.003606,-0.002275,-0.118564,0.099386,-0.987960
1762622959.802670,-0.050022,-0.059217,-0.003390,0.996985,0.002352,-0.000122,-0.010452,-0.010416,-0.004629,-0.003094,-0.118417,0.099341,-0.987982
1762622959.832670,-0.049982,-0.059277,-0.003497,0.996983,0.003782,-0.010929,-0.008189,-0.008236,-0.005007,0.001429,-0.118545,0.099248,-0.987976
1762622959.833940,-0.049908,-0.059403,-0.003529,0.996979,0.007583,-0.009323,-0.000199,-0.007276,-0.006016,0.002266,-0.118799,0.099095,-0.987961
1762622959.868388,-0.049817,-0.059516,-0.003533,0.996977,0.008060,-0.008111,-0.001533,-0.007062,-0.005520,0.003441,-0.119024,0.098911,-0.987952
1762622959.906599,-0.049690,-0.059552,-0.003491,0.996982,0.008702,0.002654,0.005384,-0.007223,-0.003565,0.002046,-0.119091,0.098664,-0.987969
1762622959.906897,-0.049634,-0.059583,-0.003425,0.996983,-0.001448,-0.003365,0.005548,-0.007524,-0.001069,-0.000302,-0.119147,0.098560,-0.987973
1762622959.912820,-0.049724,-0.059619,-0.003358,0.996976,-0.014757,-0.003167,0.008759,-0.005192,-0.000283,0.001166,-0.119211,0.098747,-0.987946
1762622959.943202,-0.049943,-0.059650,-0.003260,0.996964,-0.029250,-0.006329,0.009765,-0.004485,-0.000044,0.000817,-0.119263,0.099193,-0.987895
1762622959.979979,-0.050254,-0.059740,-0.003164,0.996943,-0.030665,-0.009972,0.011482,-0.007143,-0.003284,0.000853,-0.119432,0.099822,-0.987812
1762622959.981258,-0.050529,-0.059861,-0.003025,0.996922,-0.021713,-0.016634,0.017272,-0.009349,-0.004382,0.001512,-0.119660,0.100385,-0.987727
1762622960.010173,-0.050718,-0.060015,-0.002801,0.996904,-0.013117,-0.016216,0.024729,-0.008829,-0.002909,0.000995,-0.119942,0.100786,-0.987652
1762622960.011377,-0.050870,-0.060206,-0.002558,0.996886,-0.014245,-0.019348,0.020782,-0.008571,0.000970,0.003847,-0.120298,0.101114,-0.987575
1762622960.042438,-0.051016,-0.060334,-0.002325,0.996871,-0.009958,-0.010241,0.026492,-0.008533,0.000857,0.001685,-0.120528,0.101431,-0.987514
1762622960.071659,-0.051167,-0.060539,-0.002131,0.996851,-0.016804,-0.028197,0.011316,-0.009237,0.002509,0.000044,-0.120914,0.101754,-0.987434
1762622960.073424,-0.051307,-0.060791,-0.002039,0.996829,-0.006314,-0.020330,0.010953,-0.008606,-0.001974,0.002864,-0.121406,0.102041,-0.987344
1762622960.109674,-0.051369,-0.060981,-0.001966,0.996814,0.000247,-0.013743,0.003619,-0.009487,-0.000437,0.003360,-0.121775,0.102171,-0.987285
1762622960.111121,-0.051376,-0.061149,-0.001936,0.996804,0.002016,-0.017562,0.003422,-0.010716,-0.001216,0.003733,-0.122106,0.102186,-0.987243
1762622960.141061,-0.051408,-0.061332,-0.001937,0.996791,-0.004652,-0.017299,-0.003163,-0.010503,-0.001267,0.003751,-0.122469,0.102248,-0.987191
1762622960.215270,-0.051417,-0.061371,-0.001948,0.996788,-0.003724,-0.009491,-0.002730,-0.010314,-0.001852,0.003556,-0.122548,0.102264,-0.987180
1762622960.215558,-0.051425,-0.061410,-0.001959,0.996785,-0.002795,-0.001682,-0.002296,-0.010125,-0.002437,0.003361,-0.122626,0.102279,-0.987169
1762622960.216231,-0.051434,-0.061449,-0.001971,0.996782,-0.001866,0.006127,-0.001862,-0.009937,-0.003021,0.003165,-0.122705,0.102294,-0.987157
1762622960.216965,-0.051472,-0.061399,-0.001992,0.996783,-0.004324,0.011691,-0.003383,-0.008696,-0.002311,0.003359,-0.122609,0.102367,-0.987162
1762622960.245299,-0.051515,-0.061228,-0.002048,0.996792,-0.007544,0.014635,-0.007416,-0.009611,-0.001011,0.002114,-0.122273,0.102448,-0.987195
1762622960.248858,-0.051626,-0.061086,-0.002144,0.996794,-0.013547,0.015905,-0.011805,-0.009923,-0.002644,0.001834,-0.122002,0.102659,-0.987207
1762622960.277768,-0.051792,-0.060963,-0.002281,0.996793,-0.017489,0.014571,-0.011761,-0.010657,-0.003357,0.001858,-0.121770,0.102973,-0.987202
1762622960.312785,-0.051975,-0.060826,-0.002391,0.996791,-0.018764,0.012089,-0.007700,-0.010720,-0.004540,0.000906,-0.121509,0.103326,-0.987198
1762622960.313864,-0.052154,-0.060705,-0.002436,0.996789,-0.016027,0.008270,-0.002860,-0.010819,-0.004408,0.001103,-0.121273,0.103677,-0.987190
1762622960.343921,-0.052318,-0.060627,-0.002446,0.996785,-0.012029,0.008202,0.001999,-0.010848,-0.004369,0.001161,-0.121121,0.104004,-0.987174
1762622960.348693,-0.052409,-0.060565,-0.002425,0.996784,-0.005481,0.008942,0.001554,-0.009172,-0.004316,0.002415,-0.120995,0.104187,-0.987170
1762622960.378647,-0.052418,-0.060489,-0.002434,0.996789,0.001978,0.008929,-0.001425,-0.009126,-0.003928,0.005332,-0.120845,0.104205,-0.987187
1762622960.408037,-0.052335,-0.060357,-0.002463,0.996801,0.010913,0.014350,-0.004597,-0.007451,-0.002213,0.005826,-0.120585,0.104037,-0.987236
1762622960.409777,-0.052183,-0.060175,-0.002509,0.996820,0.015193,0.022796,-0.008132,-0.006344,-0.000988,0.002283,-0.120229,0.103732,-0.987312
1762622960.443619,-0.052036,-0.059973,-0.002605,0.996839,0.011959,0.015178,-0.009974,-0.010214,-0.001506,-0.002600,-0.119838,0.103430,-0.987391
1762622960.448377,-0.051904,-0.059899,-0.002710,0.996850,0.010732,0.001254,-0.008808,-0.012456,-0.002045,-0.002707,-0.119703,0.103157,-0.987436
1762622960.503313,-0.051815,-0.059935,-0.002778,0.996853,0.010298,-0.000997,-0.005016,-0.010676,-0.003588,-0.000895,-0.119781,0.102972,-0.987446
1762622960.503624,-0.051726,-0.059971,-0.002845,0.996855,0.009863,-0.003249,-0.001223,-0.008896,-0.005131,0.000916,-0.119860,0.102786,-0.987456
1762622960.537363,-0.051581,-0.059979,-0.002868,0.996862,0.017296,0.007342,0.002215,-0.007879,-0.005895,0.003925,-0.119877,0.102494,-0.987484
1762622960.537566,-0.051406,-0.059878,-0.002809,0.996877,0.014764,0.010760,0.005841,-0.007941,-0.002384,0.000902,-0.119671,0.102155,-0.987544
1762622960.566631,-0.051291,-0.059778,-0.002763,0.996889,0.003380,0.009141,0.003273,-0.008012,0.001224,0.000535,-0.119468,0.101932,-0.987592
1762622960.568683,-0.051349,-0.059709,-0.002789,0.996890,-0.011300,0.003693,-0.002702,-0.006605,0.000946,0.001870,-0.119334,0.102045,-0.987596
1762622960.597871,-0.051469,-0.059653,-0.002849,0.996887,-0.010348,0.008302,-0.003036,-0.006827,-0.001526,0.003468,-0.119228,0.102278,-0.987585
1762622960.628681,-0.051555,-0.059575,-0.002900,0.996887,-0.004616,0.009018,0.000336,-0.009910,-0.003687,0.001723,-0.119079,0.102444,-0.987586
1762622960.629938,-0.051591,-0.059494,-0.002885,0.996890,-0.001096,0.004309,0.004272,-0.012836,-0.004373,0.002193,-0.118916,0.102517,-0.987598
1762622960.660082,-0.051594,-0.059465,-0.002807,0.996892,0.002312,0.000701,0.005997,-0.010571,-0.001860,0.001176,-0.118851,0.102534,-0.987604
1762622960.689145,-0.051583,-0.059481,-0.002727,0.996892,0.001879,0.005127,0.009577,-0.006277,0.001666,0.005110,-0.118874,0.102521,-0.987602
1762622960.691128,-0.051579,-0.059374,-0.002576,0.996899,-0.005635,0.002497,0.017166,-0.013025,0.002169,-0.001559,-0.118646,0.102533,-0.987629
1762622960.723122,-0.051695,-0.059435,-0.002441,0.996890,-0.013577,-0.008208,0.010377,-0.008881,0.000706,0.002807,-0.118752,0.102779,-0.987590
1762622960.727011,-0.051793,-0.059474,-0.002278,0.996883,-0.005311,0.005528,0.021036,-0.007700,-0.001818,0.006018,-0.118813,0.102993,-0.987561
1762622960.758548,-0.051866,-0.059374,-0.002081,0.996885,-0.002984,0.009753,0.019741,-0.009427,0.001072,0.001794,-0.118593,0.103161,-0.987569
1762622960.801102,-0.051927,-0.059368,-0.001967,0.996883,-0.001651,0.005396,0.010923,-0.007582,0.000451,0.003238,-0.118570,0.103296,-0.987558
1762622960.801408,-0.051988,-0.059362,-0.001853,0.996880,-0.000318,0.001040,0.002104,-0.005736,-0.000169,0.004681,-0.118547,0.103432,-0.987547
1762622960.830308,-0.051962,-0.059290,-0.001831,0.996886,0.005422,0.007939,-0.001969,-0.007204,-0.000896,0.002999,-0.118401,0.103383,-0.987569
1762622960.832408,-0.051864,-0.059201,-0.001854,0.996896,0.009219,0.014909,-0.005724,-0.006299,-0.001236,0.004224,-0.118227,0.103187,-0.987611
1762622960.869599,-0.051787,-0.059068,-0.001922,0.996908,0.003936,0.011809,-0.009877,-0.007008,-0.000389,0.001090,-0.117970,0.103027,-0.987658
1762622960.871771,-0.051754,-0.058937,-0.002034,0.996917,-0.000758,0.012410,-0.010103,-0.007797,-0.001060,0.000092,-0.117720,0.102949,-0.987696
1762622960.900240,-0.051795,-0.058849,-0.002156,0.996920,-0.005761,0.008698,-0.011637,-0.007794,-0.003553,0.001179,-0.117560,0.103017,-0.987708
1762622960.908154,-0.051838,-0.058730,-0.002248,0.996925,-0.004567,0.009962,-0.006451,-0.008064,-0.003456,0.000793,-0.117333,0.103092,-0.987727
1762622960.938170,-0.051858,-0.058687,-0.002331,0.996926,0.000725,0.005740,-0.004983,-0.007740,-0.004543,0.000729,-0.117255,0.103123,-0.987733
1762622960.968309,-0.051833,-0.058646,-0.002376,0.996929,0.002239,-0.002108,-0.004495,-0.008687,-0.003195,-0.002167,-0.117178,0.103069,-0.987748
1762622960.982690,-0.051777,-0.058710,-0.002460,0.996928,0.006529,-0.005682,-0.006117,-0.009387,-0.005038,0.000556,-0.117313,0.102948,-0.987745
1762622960.983007,-0.051677,-0.058757,-0.002464,0.996931,0.012200,-0.002044,-0.000139,-0.009311,-0.005254,0.002130,-0.117407,0.102747,-0.987754
1762622961.014806,-0.051535,-0.058779,-0.002454,0.996937,0.012815,-0.000334,0.001895,-0.009120,-0.005226,0.003532,-0.117450,0.102465,-0.987779
1762622961.043864,-0.051409,-0.058779,-0.002411,0.996944,0.010188,0.001529,0.000080,-0.010169,-0.004948,0.003269,-0.117446,0.102220,-0.987804
1762622961.045156,-0.051257,-0.058741,-0.002397,0.996954,0.016672,0.009144,0.000869,-0.009177,-0.007082,0.005615,-0.117369,0.101921,-0.987844
1762622961.101009,-0.051115,-0.058616,-0.002409,0.996968,0.009902,0.008626,-0.003175,-0.009741,-0.003329,0.001077,-0.117124,0.101638,-0.987903
1762622961.101304,-0.050973,-0.058492,-0.002421,0.996983,0.003131,0.008109,-0.007219,-0.010306,0.000425,-0.003460,-0.116878,0.101355,-0.987961
1762622961.102988,-0.050985,-0.058471,-0.002476,0.996983,-0.009745,-0.007658,-0.011277,-0.011271,-0.000089,-0.005668,-0.116841,0.101372,-0.987963
1762622961.137250,-0.051126,-0.058634,-0.002644,0.996966,-0.018746,-0.015832,-0.014000,-0.012236,-0.006315,-0.001079,-0.117183,0.101631,-0.987896
1762622961.144316,-0.051238,-0.058807,-0.002786,0.996950,-0.006987,-0.012453,-0.008864,-0.010105,-0.010824,0.004931,-0.117541,0.101835,-0.987833
1762622961.174533,-0.051262,-0.058867,-0.002834,0.996945,0.004976,0.007346,0.004263,-0.008251,-0.009396,0.007716,-0.117664,0.101876,-0.987814
1762622961.202703,-0.051202,-0.058738,-0.002715,0.996956,-0.001035,0.009451,0.009105,-0.009364,-0.003025,0.001458,-0.117397,0.101774,-0.987856
1762622961.204780,-0.051276,-0.058657,-0.002641,0.996957,-0.007868,0.004844,0.008153,-0.007687,-0.001219,0.002519,-0.117227,0.101929,-0.987860
1762622961.234043,-0.051413,-0.058623,-0.002556,0.996952,-0.018730,-0.003006,0.000954,-0.006420,0.003355,0.000911,-0.117150,0.102213,-0.987840
1762622961.263866,-0.051606,-0.058615,-0.002600,0.996943,-0.018950,0.004770,-0.002690,-0.008322,-0.001055,0.002643,-0.117140,0.102592,-0.987802
1762622961.265070,-0.051819,-0.058628,-0.002636,0.996931,-0.018937,-0.004285,0.001484,-0.011656,-0.005153,-0.000504,-0.117169,0.103010,-0.987755
1762622961.295183,-0.051949,-0.058653,-0.002535,0.996923,-0.005854,-0.006001,0.018321,-0.012258,-0.008982,0.001532,-0.117208,0.103282,-0.987722
1762622961.301265,-0.051948,-0.058651,-0.002196,0.996924,0.010972,0.004788,0.053539,-0.008931,-0.005990,0.004299,-0.117169,0.103318,-0.987723
1762622961.330231,-0.051757,-0.058461,-0.001313,0.996946,0.042556,0.032244,0.124311,-0.002324,-0.007894,0.008911,-0.116701,0.103045,-0.987807
1762622961.360196,-0.051201,-0.057887,0.000323,0.997009,0.080510,0.053949,0.193538,-0.008032,-0.002921,0.001653,-0.115395,0.102132,-0.988055
1762622961.426590,-0.050384,-0.057243,0.002128,0.997086,0.085578,0.055753,0.187977,-0.008752,-0.001152,0.001124,-0.113937,0.100718,-0.988370
1762622961.426980,-0.049567,-0.056598,0.003933,0.997158,0.090646,0.057556,0.182417,-0.009468,0.000622,0.000590,-0.112484,0.099297,-0.988680
1762622961.427438,-0.048750,-0.055952,0.005738,0.997226,0.095714,0.059360,0.176857,-0.010179,0.002402,0.000051,-0.111035,0.097871,-0.988986
1762622961.427764,-0.047969,-0.055267,0.007311,0.997292,0.072796,0.060448,0.141313,-0.017480,0.001434,0.003995,-0.109532,0.096485,-0.989289
1762622961.459693,-0.047509,-0.054647,0.008564,0.997338,0.043108,0.056462,0.106676,-0.012454,0.003124,0.000357,-0.108189,0.095702,-0.989513
1762622961.493495,-0.047159,-0.053980,0.009573,0.997382,0.037606,0.060509,0.094636,-0.012610,0.000870,0.001199,-0.106775,0.095105,-0.989724
1762622961.551035,-0.046867,-0.053307,0.010430,0.997423,0.035816,0.061378,0.088891,-0.011275,0.000030,0.001214,-0.105362,0.094605,-0.989924
1762622961.551349,-0.046575,-0.052634,0.011287,0.997463,0.034026,0.062246,0.083146,-0.009940,-0.000806,0.001227,-0.103950,0.094103,-0.990121
1762622961.551621,-0.046283,-0.051961,0.012144,0.997502,0.032236,0.063115,0.077400,-0.008604,-0.001641,0.001237,-0.102538,0.093597,-0.990316
1762622961.585975,-0.046007,-0.051295,0.012965,0.997539,0.028778,0.057469,0.078844,-0.008957,-0.001642,-0.000768,-0.101143,0.093119,-0.990504
1762622961.587400,-0.045771,-0.050740,0.013771,0.997568,0.023385,0.048993,0.071792,-0.007705,-0.001544,0.000536,-0.099972,0.092716,-0.990661
1762622961.617120,-0.045536,-0.050233,0.014520,0.997593,0.024471,0.039339,0.073092,-0.008132,-0.002589,-0.000774,-0.098902,0.092311,-0.990806
1762622961.619180,-0.045359,-0.049903,0.015109,0.997609,0.016450,0.024286,0.053860,-0.008625,-0.002065,-0.001058,-0.098196,0.092009,-0.990905
1762622961.647728,-0.045250,-0.049731,0.015529,0.997616,0.007221,0.010689,0.032602,-0.009436,0.000265,-0.000486,-0.097819,0.091829,-0.990959
1762622961.701308,-0.045286,-0.049823,0.015541,0.997610,-0.000652,-0.003758,0.006444,-0.009231,-0.000591,0.001386,-0.098000,0.091905,-0.990934
