quat_x,quat_y,quat_z,quat_w,rot_x,rot_y,rot_z,acc_x,acc_y,acc_z,grav_x,grav_y,grav_z,pitch_rad
0.01696,0.472688,0.0,0.881067,-0.032948,0.018412,0.000518,-0.790534,0.09027,-0.446778,0.83294,-0.029885,-0.552556,0.984398868020758
-0.016537,0.102324,-0.166554,0.980569,-0.030565,0.01751,-0.008043,-0.1544,-0.0069,-0.019926,0.195162,0.066515,-0.978513,0.19642351854379017
-0.023338,0.027547,-0.196207,0.979898,-0.043855,0.027321,-0.019484,0.001165,0.007101,-0.00517,0.044828,0.056547,-0.997393,0.04484337043282524
-0.023631,0.027829,-0.196322,0.97986,-0.052934,0.033934,-0.015913,-2.7e-05,0.009094,-0.002804,0.045259,0.057237,-0.997334,0.04527394248966205
-0.023924,0.028112,-0.196437,0.979821,-0.062013,0.040547,-0.012343,-0.001219,0.011086,-0.00044,0.04569,0.057927,-0.997275,0.04570625052597112
-0.026096,0.026928,-0.196549,0.979777,-0.080274,0.026096,0.002398,0.001885,0.007383,0.00341,0.042508,0.061722,-0.997188,0.04252139715052123
-0.027332,0.028254,-0.196305,0.979754,-0.092199,0.020718,0.019433,-0.000376,0.00027,0.00274,0.044634,0.064649,-0.996909,0.0446479548691403
-0.028237,0.028561,-0.1961,0.979761,-0.092182,0.003178,0.027442,-0.002856,0.000479,0.004799,0.044891,0.066534,-0.996774,0.0449064478955343
-0.029007,0.02873,-0.195856,0.979782,-0.091181,-0.002445,0.032285,-0.002192,-0.000246,0.00296,0.044935,0.068095,-0.996666,0.04495102016856879
-0.030517,0.028947,-0.195256,0.97985,-0.09232,-0.012257,0.039164,-0.000456,-0.001954,-0.001737,0.04481,0.071108,-0.996462,0.044825190880410634
-0.030902,0.028926,-0.194986,0.979892,-0.093525,-0.013057,0.038473,-0.000939,-0.003071,-0.000758,0.044638,0.071841,-0.996417,0.04465263426089729
-0.031832,0.028725,-0.194357,0.979993,-0.09395,-0.019615,0.035539,-0.001422,-0.004609,-0.000688,0.043927,0.073556,-0.996323,0.043941192921049324
-0.032317,0.028666,-0.194134,0.980023,-0.091832,-0.016237,0.029759,-0.001424,-0.004616,-0.000688,0.043639,0.074472,-0.996268,0.04365288432827561
-0.032718,0.028603,-0.193942,0.98005,-0.090424,-0.020294,0.026054,-0.001638,-0.004548,0.000705,0.043373,0.075226,-0.996223,0.043387563014559885
-0.033503,0.028371,-0.193557,0.980106,-0.077557,-0.027735,0.014481,-0.00519,-0.003366,0.001359,0.042643,0.076656,-0.996145,0.04265662938182427
-0.033811,0.028192,-0.193461,0.98012,-0.070661,-0.032093,0.009535,-0.006062,0.002578,0.001,0.042181,0.077187,-0.996124,0.042193384575398916
-0.034075,0.027985,-0.193353,0.980138,-0.067264,-0.034499,0.014687,-0.005763,0.00542,0.000237,0.04168,0.077619,-0.996111,0.04169339540420284
-0.034339,0.027777,-0.193245,0.980156,-0.063867,-0.036906,0.01984,-0.005465,0.008261,-0.000526,0.04118,0.078052,-0.996098,0.04119155391357991
-0.034932,0.027403,-0.19292,0.98021,-0.050848,-0.03096,0.013745,-0.008212,0.004828,-0.000895,0.040243,0.079054,-0.996058,0.040254096737344335
-0.035639,0.026911,-0.192723,0.980236,-0.037915,-0.029021,0.007319,-0.009016,0.00383,-0.000786,0.039021,0.080242,-0.996011,0.03903126153660153
-0.036045,0.026729,-0.192713,0.980228,-0.033519,-0.024608,-0.001622,-0.008863,0.004756,0.000131,0.038509,0.080967,-0.995973,0.03851787190312602
-0.036422,0.026545,-0.192769,0.980209,-0.033842,-0.022457,-0.013569,-0.008975,0.005786,-0.000492,0.037998,0.081636,-0.995938,0.0380063800536807
-0.03728,0.026095,-0.193095,0.980124,-0.044262,-0.013698,-0.028051,-0.008498,0.012305,-0.005268,0.036756,0.083155,-0.995859,0.036763789310833295
-0.037673,0.026018,-0.193261,0.980079,-0.049941,-0.004235,-0.023937,-0.008175,0.012195,-0.003394,0.036438,0.083901,-0.995808,0.036446015615780515
-0.038139,0.025871,-0.193498,0.980018,-0.0433,-0.009406,-0.027827,-0.00768,0.01045,-0.002424,0.035948,0.084766,-0.995752,0.035956198062053774
-0.038606,0.025724,-0.193735,0.979956,-0.03666,-0.014576,-0.031717,-0.007185,0.008704,-0.001455,0.035458,0.085631,-0.995696,0.03546554378895157
-0.039498,0.02544,-0.194283,0.97982,-0.015371,-0.002063,-0.030855,-0.004384,0.004539,-0.002557,0.034506,0.087286,-0.995586,0.03451251271080073
-0.039683,0.025389,-0.194518,0.979767,-0.002805,0.00771,-0.035162,-0.004203,0.005977,-0.004996,0.034313,0.087638,-0.995561,0.034319229660531976
-0.039775,0.025376,-0.194772,0.979713,0.001411,0.016615,-0.033069,-0.00527,0.008154,-0.004974,0.034229,0.087821,-0.995548,0.034234968603372794
-0.039931,0.025522,-0.195262,0.979606,-0.000403,0.024914,-0.02229,-0.006959,0.009603,-0.001548,0.03441,0.0882,-0.995508,0.0344157883609371
-0.039953,0.025569,-0.195466,0.979563,0.001782,0.024672,-0.023342,-0.004608,0.009305,-0.001639,0.034474,0.088269,-0.9955,0.03448081862036965
-0.039975,0.025616,-0.19567,0.97952,0.003968,0.02443,-0.024394,-0.002257,0.009006,-0.001729,0.034539,0.088338,-0.995492,0.034545822974133854
-0.040068,0.025848,-0.196058,0.979432,0.003323,0.023764,-0.021928,-0.001926,0.008013,0.001745,0.034921,0.088623,-0.995453,0.03492851448860662
-0.040146,0.02593,-0.196212,0.979396,0.003843,0.021825,-0.021594,-0.001492,0.007812,0.002853,0.035037,0.088814,-0.995432,0.0350443952754933
-0.040261,0.026019,-0.196499,0.979332,0.010144,0.012869,-0.011944,0.001201,0.008286,0.00259,0.035139,0.089083,-0.995404,0.035147222077736594
-0.040282,0.026074,-0.196567,0.979316,0.010206,0.009855,-0.008876,0.001804,0.008119,-0.000967,0.035233,0.089147,-0.995395,0.03524044064433884
-0.04029,0.02618,-0.196622,0.979301,0.008305,0.013258,-0.006529,0.001581,0.007486,0.002171,0.035431,0.089208,-0.995383,0.0354398177552138
-0.040299,0.026285,-0.196677,0.979287,0.006403,0.01666,-0.004183,0.001359,0.006854,0.005309,0.03563,0.089268,-0.99537,0.03563688733336139
-0.04044,0.026362,-0.196713,0.979272,-0.001241,-0.001558,-0.00386,0.002236,0.005319,-0.000628,0.035721,0.089575,-0.995339,0.03572859045205738
-0.040629,0.026429,-0.196778,0.979249,-0.00858,0.00136,-0.003013,0.003447,0.004697,0.000226,0.035772,0.089973,-0.995302,0.03577899009240599
-0.040808,0.026481,-0.19679,0.979238,-0.013391,-0.003158,-0.001184,0.002131,0.003709,0.002364,0.035802,0.090344,-0.995267,0.03580884261195583
-0.040987,0.026534,-0.196803,0.979227,-0.018201,-0.007676,0.000645,0.000816,0.002721,0.004501,0.035832,0.090715,-0.995232,0.0358405619622348
-0.041166,0.026586,-0.196815,0.979215,-0.023012,-0.012194,0.002474,-0.000499,0.001733,0.006639,0.035863,0.091085,-0.995197,0.03587033918718406
-0.041698,0.026449,-0.196706,0.979218,-0.027164,-0.019281,0.007087,0.00292,0.000184,-0.000924,0.035394,0.092069,-0.995123,0.03540157435514318
-0.042154,0.026425,-0.196543,0.979232,-0.034918,-0.006206,0.011515,-0.000121,-0.001325,-0.00135,0.035183,0.092945,-0.995049,0.035189526054129935
-0.042414,0.026367,-0.196455,0.97924,-0.032385,-0.015346,0.017056,-0.000463,-0.001271,0.000415,0.034974,0.093426,-0.995012,0.03498149148634903
-0.042692,0.026294,-0.19627,0.979267,-0.029867,-0.018872,0.022508,-0.000321,-0.001336,-0.000657,0.034739,0.093935,-0.994972,0.03474636649982964
-0.042888,0.026242,-0.196071,0.9793,-0.025965,-0.018311,0.025852,0.000239,-0.001527,-0.001539,0.03458,0.094291,-0.994944,0.034586290111045394
-0.043083,0.026191,-0.195871,0.979333,-0.022062,-0.01775,0.029197,0.0008,-0.001718,-0.002421,0.034422,0.094646,-0.994916,0.03442880186999296
-0.043426,0.026173,-0.195309,0.97943,-0.02412,-0.003642,0.03144,-0.000672,0.000104,-0.001972,0.034307,0.095289,-0.994858,0.03431299836591918
-0.043747,0.026221,-0.194882,0.9795,-0.026499,-0.001333,0.031029,1.6e-05,0.002093,-0.002115,0.034316,0.095921,-0.994797,0.03432267184165317
-0.043891,0.026248,-0.194667,0.979535,-0.025156,-0.000831,0.032123,-0.000617,0.000876,-0.000781,0.034333,0.096206,-0.994769,0.034340159620592454
-0.043997,0.026305,-0.194455,0.979571,-0.018251,0.002965,0.031799,-0.000604,0.000901,-0.000809,0.034425,0.096428,-0.994745,0.03443115968736105
-0.044147,0.026447,-0.193952,0.97966,-0.001146,0.009085,0.024552,-0.001943,-7.8e-05,-0.000994,0.034694,0.096757,-0.994703,0.03470030156814301
-0.043998,0.026503,-0.193818,0.979692,0.006624,0.009527,0.01797,-0.003131,0.000822,-0.000737,0.034874,0.096482,-0.994724,0.034881418441623215
-0.043849,0.026558,-0.193683,0.979724,0.014393,0.00997,0.011389,-0.004319,0.001722,-0.000479,0.035054,0.096208,-0.994744,0.03506059081802226
-0.04374,0.026574,-0.193644,0.979736,0.015464,0.00764,0.007594,-0.004048,0.002492,-0.001021,0.035131,0.096,-0.994761,0.03513826221553584
-0.043632,0.02659,-0.193604,0.979748,0.016536,0.005311,0.0038,-0.003777,0.003262,-0.001563,0.035208,0.095792,-0.994779,0.035215617446962964
-0.043523,0.026605,-0.193564,0.979761,0.017607,0.002982,5e-06,-0.003505,0.004032,-0.002105,0.035284,0.095584,-0.994796,0.03529143623832163
-0.043234,0.026697,-0.193561,0.979771,0.01313,0.0135,0.002741,1.6e-05,0.001506,-0.001523,0.035578,0.095055,-0.994836,0.035584569646203934
-0.043137,0.026757,-0.193573,0.979772,0.013761,0.016754,-0.002959,-5e-05,0.000401,-0.0011,0.035731,0.094888,-0.994847,0.03573880929356882
-0.042897,0.026909,-0.193687,0.979756,0.018925,0.008681,-0.010911,0.000317,0.001964,0.001852,0.036111,0.094481,-0.994871,0.03611917890161045
-0.042784,0.026906,-0.193786,0.979741,0.018731,0.007551,-0.01038,0.001279,0.000327,0.000872,0.036141,0.094263,-0.994891,0.03614781390693236
-0.042652,0.026897,-0.193861,0.979732,0.02162,0.003388,-0.010963,0.002214,0.00036,0.000674,0.036166,0.094003,-0.994915,0.03617447355548954
-0.04252,0.026887,-0.193935,0.979724,0.024509,-0.000774,-0.011545,0.003149,0.000393,0.000475,0.036191,0.093744,-0.994938,0.03619935135435994
-0.042182,0.026847,-0.194103,0.979706,0.018205,0.001357,-0.004751,0.002111,0.003618,0.000445,0.036229,0.093074,-0.995,0.036236958513350646
-0.041932,0.026677,-0.194143,0.979714,0.022299,-0.020543,0.000252,0.001598,0.003829,0.004251,0.035989,0.092521,-0.99506,0.03599782629180498
-0.041777,0.026522,-0.194109,0.979731,0.030302,-0.017615,0.001824,0.00321,0.001514,0.000946,0.03575,0.092157,-0.995103,0.03575788745468563
-0.041622,0.026367,-0.194075,0.979749,0.038305,-0.014687,0.003396,0.004823,-0.000802,-0.00236,0.035511,0.091793,-0.995145,0.0355179718043561
-0.041119,0.026112,-0.194019,0.979788,0.040722,-0.000489,0.004878,0.00249,0.005725,-0.003401,0.035214,0.090708,-0.995255,0.035219994967388264
-0.040854,0.026093,-0.193857,0.979831,0.033599,-0.004723,0.007523,0.000946,0.004035,-0.000732,0.035294,0.090177,-0.9953,0.03530112421646947
-0.040627,0.026031,-0.193761,0.979861,0.032101,-0.008732,0.006028,0.001027,0.002805,0.000204,0.03527,0.089706,-0.995344,0.0352769834645805
-0.040401,0.025969,-0.193665,0.979891,0.030602,-0.012741,0.004533,0.001109,0.001575,0.001139,0.035246,0.089235,-0.995387,0.03525236049564023
-0.04026,0.025907,-0.193641,0.979904,0.031806,-0.009049,0.004284,0.000376,0.000399,0.001232,0.035181,0.088935,-0.995416,0.035188033710277705
-0.04012,0.025844,-0.193617,0.979916,0.03301,-0.005358,0.004036,-0.000357,-0.000777,0.001325,0.035115,0.088635,-0.995445,0.03512129006393653
-0.039638,0.025614,-0.193581,0.979949,0.04794,-0.016458,0.000235,-0.001978,0.001585,0.002475,0.034854,0.087604,-0.995545,0.03486156096129182
-0.039027,0.025212,-0.193603,0.979979,0.041473,-0.013865,0.001327,-0.002595,0.00504,-0.004437,0.034303,0.086254,-0.995682,0.03430970344860778
-0.038785,0.025095,-0.193585,0.979995,0.032933,-0.004316,0.004218,-0.000158,0.003882,-0.00565,0.03417,0.085735,-0.995732,0.03417621325817911
-0.038581,0.025065,-0.193546,0.980012,0.033534,-0.002103,0.006072,-0.001442,0.001386,-0.002062,0.034193,0.085322,-0.995767,0.03420027182506891
-0.038377,0.025034,-0.193507,0.980028,0.034135,0.000111,0.007926,-0.002725,-0.00111,0.001526,0.034216,0.084909,-0.995801,0.034222285224181526
-0.03773,0.024842,-0.193531,0.980054,0.06152,0.000148,-0.004824,-0.000902,-0.002901,-0.002619,0.034089,0.08357,-0.995919,0.03409575946369092
-0.03675,0.024733,-0.193666,0.980067,0.075494,0.015938,-0.008622,0.000385,-0.000341,-0.003661,0.034246,0.081615,-0.996075,0.03425224037503435
-0.036232,0.024806,-0.193725,0.980073,0.075143,0.020139,-0.006923,-0.002473,-0.001948,0.001379,0.034586,0.080631,-0.996144,0.034592191813137614
-0.035708,0.024775,-0.193805,0.980077,0.080794,0.012036,-0.011986,-0.001674,-0.001903,0.001732,0.034722,0.079595,-0.996222,0.03472901818771476
-0.034424,0.024675,-0.194043,0.980078,0.082722,0.016097,-0.013283,0.002839,-0.001673,-0.001579,0.035007,0.077053,-0.996412,0.035014531134770266
-0.033658,0.024679,-0.194189,0.980076,0.076618,0.013757,-0.012702,0.00136,-0.00118,-0.001129,0.035303,0.07556,-0.996516,0.03530990136016498
-0.03306,0.024667,-0.19429,0.980076,0.071155,0.011347,-0.008197,0.001309,-0.000559,-0.000877,0.035504,0.074387,-0.996597,0.03551207820589879
-0.032461,0.024654,-0.194391,0.980077,0.065692,0.008938,-0.003691,0.001259,6.1e-05,-0.000627,0.035705,0.073214,-0.996677,0.035712975216796825
-0.032038,0.024642,-0.194449,0.98008,0.062492,0.009868,-0.006718,0.001824,0.0,-0.001194,0.035842,0.072382,-0.996733,0.03585042758172095
-0.031478,0.02464,-0.194498,0.980088,0.046171,0.002981,-0.002268,0.00158,0.00016,-0.001643,0.036053,0.071287,-0.996804,0.03606173611744313
-0.031196,0.024609,-0.194533,0.980091,0.033729,0.002488,-0.003761,0.001856,8.8e-05,-0.001029,0.036101,0.070724,-0.996842,0.03610866201621458
-0.030914,0.024578,-0.194567,0.980094,0.021287,0.001995,-0.005255,0.002131,1.6e-05,-0.000416,0.036149,0.070161,-0.996881,0.0361556889965427
-0.030825,0.024556,-0.194606,0.980089,-0.007254,-0.002388,0.000827,7.2e-05,-0.00159,-1.5e-05,0.036136,0.06998,-0.996894,0.036144540592797224
-0.031047,0.024558,-0.194614,0.980081,-0.025554,-0.00749,0.000647,-0.001675,-0.001626,0.000523,0.036052,0.070416,-0.996866,0.036061111839573445
-0.031348,0.024555,-0.194539,0.980086,-0.027458,-0.00468,0.005105,-0.0017,-0.005614,-0.001028,0.035936,0.071001,-0.996829,0.03594294490297217
-0.031648,0.024553,-0.194464,0.980091,-0.029361,-0.00187,0.009562,-0.001726,-0.009601,-0.002579,0.03582,0.071585,-0.996791,0.03582721938476479
-0.031806,0.024594,-0.194391,0.9801,-0.029111,-0.001948,0.007921,-0.001012,-0.010727,-0.001571,0.035844,0.071909,-0.996767,0.03585123801448258
-0.032207,0.024643,-0.194317,0.9801,-0.039084,0.001392,-0.000475,-0.000522,-0.015836,-0.003487,0.035788,0.07271,-0.996711,0.03579611750319282
-0.032633,0.02476,-0.19434,0.980079,-0.052226,0.000843,-0.00429,-0.000814,-0.016691,-0.001845,0.03585,0.07359,-0.996644,0.03585740110748558
-0.033059,0.024877,-0.194363,0.980057,-0.065368,0.000293,-0.008106,-0.001107,-0.017545,-0.000204,0.035912,0.07447,-0.996576,0.03591858600875448
-0.033485,0.024995,-0.194385,0.980035,-0.07851,-0.000257,-0.011922,-0.001399,-0.0184,0.001436,0.035973,0.07535,-0.996508,0.035981749877321306
-0.03475,0.025159,-0.194518,0.97996,-0.111692,-0.009593,-0.006777,0.001155,-0.006889,-0.001533,0.03579,0.077896,-0.996319,0.035798271801346426
-0.035452,0.025264,-0.194469,0.979942,-0.125964,-0.007772,0.006854,0.001844,-0.006632,-0.000972,0.035726,0.079308,-0.99621,0.035733483487211205
-0.03621,0.025348,-0.194364,0.979933,-0.129725,-0.008714,0.011245,0.002451,-0.005947,-0.002313,0.035603,0.080819,-0.996093,0.035610368252214794
-0.037847,0.025534,-0.194208,0.979898,-0.129337,-0.014706,-0.00413,0.000665,0.001522,0.000505,0.03534,0.084089,-0.995831,0.03534841161894395
-0.038739,0.025604,-0.194194,0.979863,-0.136664,-0.008598,0.001303,0.001147,0.008037,-0.002896,0.03513,0.085863,-0.995687,0.03513829219804361
-0.039577,0.025691,-0.194137,0.979839,-0.135606,-0.012401,0.00607,-0.00016,0.010069,-0.00049,0.034979,0.087532,-0.995547,0.03498650453372067
-0.040414,0.025778,-0.19408,0.979814,-0.134549,-0.016204,0.010837,-0.001468,0.012102,0.001913,0.034828,0.089202,-0.995404,0.03483523730704195
-0.042161,0.025858,-0.193875,0.979779,-0.098336,-0.010039,0.011422,0.002387,0.004451,-0.00041,0.034323,0.092644,-0.995108,0.034329065329895866
-0.043207,0.026068,-0.193811,0.97974,-0.042252,0.00478,-0.011254,0.001204,0.000973,-0.000853,0.034331,0.094768,-0.994907,0.03433848875555626
-0.043495,0.02618,-0.193907,0.979705,-0.03737,0.013257,-0.014809,0.000815,0.008683,-0.004694,0.034429,0.095377,-0.994846,0.034436189498934774
-0.043768,0.026339,-0.193969,0.979677,-0.041504,0.016568,-0.008814,-0.001151,0.012753,-0.002458,0.034627,0.095974,-0.994781,0.03463507884813465
-0.044436,0.026723,-0.19407,0.979616,-0.044572,0.010514,-0.008921,-0.000655,0.010249,0.000787,0.035109,0.097433,-0.994623,0.03511638460721724
-0.044696,0.026799,-0.194138,0.979589,-0.039414,0.008795,-0.009909,0.001201,0.007687,0.0012,0.03515,0.097972,-0.994568,0.03515686902532698
-0.044999,0.026939,-0.194244,0.97955,-0.032979,0.00457,-0.016004,0.000572,0.006302,0.002425,0.035294,0.098622,-0.994499,0.035301955312270955
-0.045302,0.027078,-0.194349,0.979512,-0.026544,0.000345,-0.022098,-5.7e-05,0.004916,0.003651,0.035438,0.099272,-0.994429,0.03544507653382031
-0.045862,0.02715,-0.194716,0.979411,-0.023514,-0.00974,-0.021751,-0.00045,0.009312,0.000728,0.035322,0.100409,-0.994319,0.035329235850528634
-0.04609,0.027133,-0.194838,0.979376,-0.030863,-0.008264,-0.016439,-0.001264,0.012491,-0.000486,0.035187,0.100852,-0.994279,0.035193915992224684
-0.046363,0.027133,-0.194891,0.979353,-0.041378,0.000373,-0.009243,0.000653,0.012013,-0.002166,0.035075,0.101388,-0.994228,0.03508130233600343
-0.047178,0.027283,-0.194912,0.979306,-0.055346,-0.001922,0.00279,-0.000863,0.008291,0.002951,0.035045,0.103039,-0.99406,0.0350528723496078
-0.047573,0.027297,-0.194911,0.979286,-0.053244,-0.000195,-0.002094,0.000501,0.006385,0.001394,0.034918,0.103815,-0.993983,0.03492523758408372
-0.047967,0.027312,-0.194909,0.979267,-0.051142,0.001533,-0.006977,0.001864,0.004479,-0.000163,0.034792,0.104592,-0.993906,0.03480010427182557
-0.048362,0.027326,-0.194908,0.979247,-0.049041,0.00326,-0.011861,0.003228,0.002573,-0.001721,0.034666,0.105369,-0.993829,0.03467247232850919
-0.049192,0.027501,-0.194909,0.979201,-0.044225,-0.002541,0.003653,-0.001056,0.007899,0.00408,0.034683,0.107058,-0.993648,0.03468904298673122
-0.049804,0.027452,-0.194861,0.979181,-0.038035,-0.018959,0.003686,0.002309,0.007212,0.000578,0.034352,0.108233,-0.993532,0.03435799851324911
-0.049972,0.027421,-0.1948,0.979185,-0.034049,-0.014594,0.006818,0.002458,0.006808,-0.00109,0.034232,0.108547,-0.993502,0.034238061409795205
-0.050417,0.027384,-0.194648,0.979194,-0.020892,-0.005782,0.008282,0.001928,0.001959,-0.001826,0.034002,0.109397,-0.993416,0.034007915423787775
-0.050564,0.027344,-0.194592,0.979199,-0.009111,-0.007064,0.004609,0.000656,0.000666,-0.000621,0.033871,0.109666,-0.993391,0.03387821529105389
-0.050603,0.027238,-0.194568,0.979204,0.010838,-0.011222,-0.003285,-2.4e-05,-0.00053,-0.000675,0.033652,0.109701,-0.993395,0.033658022721301244
-0.050507,0.02715,-0.194595,0.979206,0.013824,-0.009041,-0.002476,0.000645,0.000202,-0.0011,0.033514,0.109481,-0.993424,0.03352034343532246
-0.050412,0.027062,-0.194623,0.979208,0.016809,-0.00686,-0.001666,0.001314,0.000934,-0.001525,0.033377,0.109261,-0.993453,0.033382184113174417
-0.050164,0.026889,-0.194636,0.979223,0.019323,-0.007753,0.004753,0.002924,-0.000559,-0.000223,0.033134,0.10871,-0.993521,0.03313927921099905
-0.050051,0.026844,-0.194593,0.979238,0.017414,-0.005118,0.004328,0.001098,-0.003943,-0.000334,0.033095,0.108472,-0.993549,0.03310022516541197
-0.049932,0.026796,-0.194562,0.979252,0.021196,-0.009764,0.001507,0.00044,-0.003379,0.000627,0.03305,0.10822,-0.993577,0.033056353524009166
-0.049628,0.026559,-0.194552,0.979276,0.021477,-0.010067,0.001031,0.001343,-0.001995,0.000326,0.032707,0.107533,-0.993663,0.0327125632938208
-0.049547,0.026477,-0.194546,0.979283,0.016764,-0.012862,0.001268,0.001247,-0.00191,0.001133,0.032578,0.107343,-0.993688,0.032584376383139935
-0.049415,0.026215,-0.194506,0.979305,-0.001672,-0.015461,0.002928,-0.000155,-0.000939,-0.00093,0.032123,0.106982,-0.993742,0.03212745973777334
-0.049463,0.026114,-0.194489,0.979309,-0.009771,-0.012762,0.005388,-0.000311,-0.001884,-0.001866,0.031907,0.107036,-0.993743,0.031912748144256445
-0.04957,0.026075,-0.194467,0.979309,-0.013616,-0.011477,0.003543,-0.000174,-0.002886,-0.001092,0.031792,0.107229,-0.993726,0.03179686368552251
-0.049904,0.025955,-0.194367,0.979315,-0.026708,-0.012768,0.006491,-0.000114,-0.000689,-0.000683,0.031437,0.107832,-0.993672,0.031442040468131864
-0.050095,0.025933,-0.194324,0.979314,-0.029124,-0.010937,0.007014,-0.000114,-0.000689,-0.000683,0.031323,0.108197,-0.993636,0.03132890299973635
-0.050303,0.025888,-0.19426,0.979317,-0.031214,-0.011723,0.008437,-0.000806,-0.000866,-0.000389,0.031161,0.108582,-0.993599,0.031166440758564406
-0.05083,0.025788,-0.194113,0.979322,-0.032381,-0.018192,0.007511,-0.00253,0.00131,-0.00039,0.030776,0.109569,-0.993503,0.03078084426677935
-0.051048,0.025695,-0.194043,0.979327,-0.032509,-0.017178,0.010252,-0.000962,0.0042,0.000175,0.030516,0.109957,-0.993468,0.030521338884315023
-0.051301,0.025595,-0.193879,0.979349,-0.022737,-0.01357,0.005393,-0.0005,0.003072,-0.000511,0.03024,0.110408,-0.993426,0.030245113145672516
-0.051554,0.025495,-0.193715,0.979371,-0.012965,-0.009963,0.000534,-3.8e-05,0.001944,-0.001197,0.029965,0.110859,-0.993384,0.029969046954042563
-0.051807,0.025395,-0.19355,0.979392,-0.003193,-0.006355,-0.004325,0.000425,0.000816,-0.001884,0.029689,0.11131,-0.993342,0.029693193131701903
-0.051918,0.025408,-0.193561,0.979384,-0.003481,0.003328,-0.004889,7.9e-05,0.000153,-0.000353,0.02967,0.111531,-0.993318,0.02967413210279296
-0.051893,0.025402,-0.19363,0.979372,0.006379,-0.008834,-0.010757,-0.002919,-0.000182,0.001775,0.029661,0.111483,-0.993324,0.029664282327920358
-0.051822,0.02526,-0.193711,0.979363,0.011821,-0.013491,-0.00774,-0.000533,-3.3e-05,0.000324,0.029401,0.111291,-0.993353,0.029404673076745633
-0.051722,0.02515,-0.193733,0.979367,0.011247,0.000488,0.001004,-0.000205,-0.001756,-0.002737,0.029222,0.111055,-0.993385,0.02922580399546871
-0.051565,0.025212,-0.193733,0.979374,0.008566,0.017036,0.00494,0.000917,-2.6e-05,-0.005529,0.029405,0.110771,-0.993411,0.029408509145241627
-0.051519,0.025378,-0.193639,0.979391,-0.007138,0.02026,0.014821,0.000567,0.002862,-0.002783,0.029757,0.110743,-0.993403,0.029762187950058555
-0.051648,0.02561,-0.193436,0.979418,-0.023535,0.01695,0.018133,-0.001993,-0.001817,0.002202,0.030185,0.111078,-0.993353,0.030189210377845138
-0.051837,0.025718,-0.193322,0.979427,-0.019212,-0.00048,0.004421,-0.001334,-0.002997,0.000939,0.030335,0.111484,-0.993303,0.030339996668784206
-0.052017,0.025727,-0.193323,0.979417,-0.021351,-0.003717,-0.001852,-0.000494,-0.001022,0.000724,0.030282,0.111839,-0.993265,0.030287387690909835
-0.052258,0.025721,-0.193337,0.979402,-0.023936,-0.00353,0.001371,-0.001766,0.0016,0.003272,0.030176,0.112308,-0.993215,0.030180169147355215
-0.052496,0.025665,-0.193291,0.9794,-0.018186,-0.01043,0.003205,-0.000944,0.002303,0.003258,0.029978,0.112751,-0.993171,0.02998308551884872
-0.052665,0.025523,-0.193224,0.979408,-0.016149,-0.015598,0.009738,-0.001048,0.002503,-0.000303,0.029643,0.113024,-0.99315,0.02964691963362838
-0.052857,0.02544,-0.193118,0.97942,-0.022004,-0.007036,0.014083,-0.000571,0.004823,-0.004447,0.029417,0.113363,-0.993118,0.029421857981885964
-0.053146,0.025496,-0.192966,0.979433,-0.030785,0.00677,0.012953,0.000727,0.002328,-0.00242,0.029433,0.113946,-0.993051,0.029436756549126777
-0.053429,0.02562,-0.192825,0.979442,-0.025276,0.006651,0.009217,-0.000176,-0.001387,-0.002105,0.029582,0.114541,-0.992978,0.02958603031347597
-0.053609,0.025664,-0.192808,0.979435,-0.007723,-0.002625,-0.003753,0.001701,-0.000787,-0.001212,0.029601,0.11491,-0.992935,0.029604275609174693
-0.053674,0.025705,-0.192901,0.979412,-0.002331,0.008671,-0.007142,0.00265,0.002176,0.000666,0.029644,0.115056,-0.992917,0.02964837779843253
-0.053694,0.025816,-0.19298,0.979392,-0.004414,0.015051,-0.002365,0.002269,0.007139,0.002432,0.029845,0.115138,-0.992901,0.029848663548120328
-0.053709,0.025952,-0.192974,0.979389,-0.001745,5.8e-05,0.001986,-0.000261,0.007449,0.005923,0.030106,0.11522,-0.992884,0.03010987494280179
-0.053693,0.025877,-0.192941,0.979398,0.001779,-0.003169,0.003152,0.001641,0.005497,-0.000319,0.029969,0.115159,-0.992895,0.029973089565574745
-0.053649,0.025887,-0.19284,0.97942,0.009914,7.8e-05,0.007915,0.00185,0.002109,-0.001667,0.030018,0.115074,-0.992903,0.03002165430824651
-0.053562,0.025891,-0.192766,0.97944,0.016511,-0.00128,0.004685,0.00091,0.001956,-0.000815,0.030068,0.114904,-0.992921,0.03007202938216946
-0.053445,0.02584,-0.192748,0.979451,0.019727,-0.002231,-0.000209,0.001753,0.001611,-0.001742,0.030015,0.114654,-0.992952,0.030019702628845676
-0.05328,0.025818,-0.192775,0.979455,0.020455,0.002598,-0.003501,0.003173,0.000496,-0.001007,0.030033,0.114325,-0.992989,0.03003755109538687
-0.053075,0.025826,-0.19281,0.979459,0.022508,0.00259,-0.00604,0.00177,0.00088,-0.00118,0.030125,0.113929,-0.993032,0.03012879276703511
-0.052856,0.02585,-0.192881,0.979456,0.022211,0.001505,-0.005182,0.001405,0.000989,-1.3e-05,0.030247,0.113512,-0.993076,0.030252653371043537
-0.05267,0.025868,-0.192883,0.979466,0.019183,0.000387,-0.000956,0.000873,-0.000197,0.000703,0.030355,0.113155,-0.993114,0.030360021502744694
-0.052484,0.025886,-0.192884,0.979475,0.016155,-0.000731,0.003271,0.000342,-0.001382,0.001418,0.030463,0.112799,-0.993151,0.03046744541426705
-0.052308,0.025842,-0.192862,0.97949,0.018603,-0.004369,0.001933,0.001318,-0.003159,0.002978,0.030447,0.112438,-0.993192,0.030452216530123834
-0.052091,0.025739,-0.192825,0.979511,0.022367,-0.012388,-0.001022,-0.001088,-0.003171,0.00215,0.030335,0.111974,-0.993248,0.030339027186621056
-0.051899,0.025556,-0.192817,0.979528,0.022437,-0.013208,0.001046,0.000484,-0.001854,-0.000825,0.030052,0.111528,-0.993307,0.03005614127648407
-0.051729,0.025373,-0.192794,0.979546,0.020723,-0.016612,0.004912,0.000341,0.000345,-0.000697,0.029762,0.111126,-0.993361,0.029766355145806354
-0.051557,0.025216,-0.192718,0.979574,0.010786,-0.011152,0.008543,0.000309,-0.000698,-0.003114,0.029531,0.110727,-0.993412,0.029534245576320492
-0.051476,0.025122,-0.192577,0.979609,0.008098,-0.007425,0.013539,-0.00109,-0.001649,-0.0023,0.029393,0.110529,-0.993438,0.02939752140192673
-0.051376,0.025035,-0.192483,0.979635,0.012829,-0.004782,0.010968,-0.001492,-0.004929,-0.001467,0.029273,0.110297,-0.993467,0.029276493265550325
-0.051265,0.024961,-0.19243,0.979653,0.008077,-0.001439,0.003453,-0.000524,-0.005606,-0.002466,0.029176,0.11005,-0.993498,0.029180530209529276
-0.051149,0.024946,-0.192381,0.979669,0.008729,-0.001469,-0.004685,-0.001731,-0.005898,-0.000864,0.029197,0.109816,-0.993523,0.029201604231673173
-0.051065,0.024894,-0.192417,0.979668,0.003936,-0.002491,-0.001119,-0.00056,-0.001748,-8.4e-05,0.029124,0.109633,-0.993545,0.02912828101372695
-0.050989,0.024886,-0.192426,0.97967,0.002611,0.000342,-0.001057,-0.002005,-0.000171,0.000328,0.029136,0.109483,-0.993562,0.029141040866807258
-0.050971,0.024864,-0.19241,0.979674,-0.000146,0.000155,0.002387,-0.000491,-0.001897,-0.001834,0.029102,0.109438,-0.993568,0.02910667813461478
-0.050978,0.024851,-0.192373,0.979682,-0.000395,0.000138,0.002697,-0.000442,-0.001361,-0.000161,0.029078,0.109446,-0.993567,0.029082672699028644
-0.051,0.02486,-0.19235,0.979685,-0.002966,0.003654,0.002157,0.001325,-0.002567,-0.001604,0.029089,0.109491,-0.993562,0.0290943426598984
-0.051025,0.024904,-0.192384,0.979676,-0.004379,0.006344,-0.002889,0.001759,-0.002387,-0.003302,0.029164,0.109558,-0.993553,0.029167050315499453
-0.05105,0.024949,-0.192418,0.979667,-0.005792,0.009034,-0.007935,0.002192,-0.002208,-0.004999,0.029238,0.109625,-0.993543,0.029241713311135915
-0.051077,0.025028,-0.192508,0.979646,-0.003853,-0.000861,-0.00622,-0.001874,-0.002181,0.001995,0.029372,0.109712,-0.993529,0.029375922728512374
-0.051045,0.024959,-0.192561,0.979639,0.001639,-0.000959,-0.001965,-0.000283,-0.001708,-0.001191,0.029244,0.109623,-0.993543,0.02924723661884255
-0.051012,0.02489,-0.192614,0.979632,0.007131,-0.001057,0.002291,0.001309,-0.001234,-0.004378,0.029115,0.109535,-0.993556,0.02911894510471852
-0.05084,0.024956,-0.192596,0.979642,0.016213,0.012339,0.000645,0.002486,-0.0002,-0.003182,0.029313,0.109223,-0.993585,0.02931692960751351
-0.050649,0.025043,-0.19261,0.979647,0.007947,0.010746,0.001915,0.001778,0.003539,-0.002751,0.029556,0.108883,-0.993615,0.02955989651852005
-0.050632,0.025186,-0.19252,0.979662,-0.00997,0.019159,0.017292,0.001322,0.002548,-0.002725,0.029852,0.108902,-0.993604,0.0298566245752124
-0.050739,0.025356,-0.192379,0.97968,-0.007435,0.006137,0.004971,0.000367,-0.004065,0.001414,0.03016,0.109173,-0.993565,0.030163869934917605
-0.05072,0.025417,-0.192391,0.979677,0.002215,0.003602,-0.00874,0.002002,-0.002263,0.001806,0.030285,0.109159,-0.993563,0.03028938885075815
-0.050707,0.025416,-0.19252,0.979653,0.000915,-5.5e-05,-0.005638,4e-05,0.001952,0.004608,0.030273,0.109136,-0.993566,0.030278124123678977
-0.050733,0.025398,-0.192561,0.979643,0.002037,-0.007554,-0.003591,-0.000738,0.002415,0.003327,0.030224,0.109183,-0.993562,0.030228154644073715
-0.050688,0.025232,-0.192586,0.979645,0.002607,-0.010894,-0.0006,-0.001666,0.001356,0.00052,0.029914,0.109031,-0.993588,0.029917669797257386
-0.050674,0.025202,-0.19257,0.97965,-0.004915,-0.007163,0.004861,-0.000897,0.002421,-0.002218,0.029861,0.108991,-0.993594,0.029866134070715353
-0.05085,0.025249,-0.192498,0.979654,-0.007872,-0.004716,0.002095,-0.000965,0.000309,-0.001938,0.029894,0.109351,-0.993554,0.02989797513769529
-0.051026,0.025297,-0.192425,0.979658,-0.01083,-0.002269,-0.000671,-0.001032,-0.001803,-0.001659,0.029927,0.109711,-0.993513,0.02993192998973694
-0.051202,0.025344,-0.192353,0.979661,-0.013787,0.000178,-0.003437,-0.001099,-0.003914,-0.00138,0.02996,0.110071,-0.993472,0.029963823695008045
-0.051323,0.025388,-0.192453,0.979634,-0.009832,0.012975,-0.01435,0.003196,-0.002614,-0.006177,0.029988,0.110328,-0.993443,0.029991861482439396
-0.051362,0.025554,-0.192566,0.979606,-0.005896,0.016379,-0.007531,0.001262,0.003053,-0.000854,0.030284,0.110471,-0.993418,0.030289184843182857
-0.05138,0.02573,-0.192605,0.979592,-0.004543,0.009009,-0.005391,-0.002349,0.00088,0.003644,0.030617,0.110574,-0.993396,0.030622500273531233
-0.051375,0.025684,-0.192645,0.979586,-0.001821,-0.004871,-0.000147,0.001052,0.001068,0.001576,0.030525,0.110548,-0.993402,0.03052984234181794
-0.051312,0.025667,-0.192613,0.979596,0.005765,0.000792,0.003577,0.002705,-0.000871,0.000492,0.03052,0.110417,-0.993417,0.030524604555431115
-0.051247,0.025651,-0.19258,0.979606,0.010871,-0.003576,0.001901,0.001846,-0.000616,0.000315,0.030518,0.110284,-0.993431,0.030522191371363354
-0.05117,0.025613,-0.192528,0.979622,0.008761,-0.002928,0.004244,0.000706,-0.001666,-0.001184,0.030478,0.110118,-0.993451,0.030483521943268633
-0.051087,0.025522,-0.192515,0.979631,0.008915,-0.004411,0.000245,0.000669,-0.00311,-0.003901,0.030335,0.10992,-0.993477,0.03033891117923547
-0.051019,0.025569,-0.192483,0.97964,0.002046,0.006507,0.001361,0.002817,-0.001688,-0.001603,0.030457,0.109803,-0.993487,0.030460960383225984
-0.050991,0.025623,-0.192504,0.979635,-0.001882,0.006462,-0.000602,0.001496,-0.002671,-0.001736,0.030571,0.109771,-0.993487,0.030575195891956654
-0.051012,0.025734,-0.192541,0.979624,-0.002898,0.006799,-0.00636,0.001279,-0.00261,-0.000378,0.030776,0.109855,-0.993471,0.030780345186372397
-0.051031,0.025728,-0.192616,0.979608,-0.002821,0.000951,-0.006076,0.001715,-0.0013,-0.000371,0.030749,0.109893,-0.993468,0.030752782150071236
-0.051021,0.025741,-0.192656,0.979601,-0.002057,-0.000768,-0.001676,0.001392,-0.001921,0.00031,0.030772,0.109879,-0.993469,0.030777674003203023
-0.05103,0.02572,-0.192665,0.979599,-0.001099,-0.004009,-0.001368,0.001068,-0.002544,0.000993,0.030727,0.109888,-0.993469,0.030732019943712524
-0.051047,0.025682,-0.192658,0.979601,-0.001864,-0.005944,-0.000686,0.001059,-0.003269,-0.00038,0.030648,0.109908,-0.993469,0.030651799415055875
-0.051058,0.025631,-0.192655,0.979602,-0.004682,-0.005362,-0.001501,0.001055,-0.003631,-0.001063,0.030544,0.109909,-0.993472,0.030547950631276424
-0.051109,0.025587,-0.192659,0.9796,-0.008235,-0.003624,0.001217,0.000245,-0.002808,-0.000872,0.030436,0.109992,-0.993466,0.030441534149157436
-0.051206,0.025583,-0.192626,0.979601,-0.013309,-0.002395,0.00416,0.000709,-0.003056,-0.000965,0.030395,0.11018,-0.993447,0.03039973292490713
-0.051346,0.025584,-0.192573,0.979604,-0.017403,-0.002733,0.006839,0.000874,-0.006104,-0.000167,0.030348,0.110452,-0.993418,0.030353331620525132
-0.051537,0.02561,-0.192497,0.979609,-0.023252,-0.002361,0.006843,0.001112,-0.009879,0.001074,0.030334,0.110832,-0.993376,0.03033879117200963
-0.051805,0.02564,-0.192426,0.979608,-0.03343,-0.003436,0.003659,-6e-06,-0.013549,0.002297,0.030298,0.111365,-0.993318,0.030301677291611154
-0.052168,0.025711,-0.192381,0.979595,-0.044381,0.001709,0.00445,-8e-05,-0.019592,0.004252,0.030299,0.1121,-0.993235,0.03030510856095041
-0.052564,0.025809,-0.192331,0.979581,-0.042656,0.004838,0.001629,-0.000391,-0.030263,0.007338,0.030345,0.11291,-0.993142,0.030349297496545632
-0.052852,0.025929,-0.192329,0.979563,-0.028751,0.005737,-0.002716,-0.000647,-0.040302,0.009435,0.030469,0.113517,-0.993069,0.03047294941911906
-0.052948,0.026026,-0.192351,0.979551,-0.014261,0.008081,-0.002337,-0.000818,-0.049678,0.011394,0.030618,0.113742,-0.993038,0.030623173225039442
-0.052862,0.026102,-0.192402,0.979544,-8e-06,0.009827,-0.005378,0.000908,-0.0627,0.01341,0.030794,0.113605,-0.993049,0.030799475133428848
-0.052595,0.026183,-0.192536,0.97953,0.011955,0.015749,-0.019978,0.001991,-0.07549,0.01296,0.031041,0.113118,-0.993097,0.03104619329528213
-0.052153,0.026261,-0.192914,0.979477,0.023328,0.016825,-0.050589,0.003536,-0.081323,0.010721,0.031323,0.112298,-0.993181,0.031327127074321476
-0.051661,0.026331,-0.193588,0.979368,0.022494,0.026983,-0.07848,0.004708,-0.080181,0.005538,0.031574,0.111385,-0.993276,0.031578826536570896
-0.051168,0.026477,-0.194446,0.97922,0.009236,0.029451,-0.084527,0.00331,-0.071848,0.007732,0.031956,0.110506,-0.993362,0.03196023074288844
-0.050785,0.026653,-0.195243,0.979076,-0.013139,0.02393,-0.076579,0.002962,-0.064159,0.010833,0.032359,0.109852,-0.993421,0.032365444035654965
-0.050578,0.02685,-0.195931,0.978944,-0.038559,0.025348,-0.061427,0.003857,-0.060035,0.013202,0.032751,0.109548,-0.993442,0.0327555536322408
-0.050606,0.027063,-0.196494,0.978824,-0.062137,0.01999,-0.050455,0.00703,-0.056315,0.014321,0.033093,0.109705,-0.993413,0.033098319959872
-0.050927,0.027363,-0.19694,0.978709,-0.091927,0.028063,-0.036902,0.009688,-0.053763,0.016085,0.033501,0.110463,-0.993315,0.033507971992177824
-0.05159,0.027827,-0.197254,0.978598,-0.124005,0.034838,-0.028871,0.008073,-0.054978,0.022793,0.034111,0.11195,-0.993128,0.03411684342135198
-0.052546,0.028339,-0.197534,0.978476,-0.145402,0.02721,-0.030476,0.005255,-0.05679,0.0356,0.034699,0.114026,-0.992872,0.034705786318457436
-0.053704,0.028764,-0.197812,0.978345,-0.154457,0.010236,-0.032583,0.002631,-0.056481,0.045145,0.035035,0.116463,-0.992577,0.03504281151111861
-0.054994,0.028946,-0.198118,0.978206,-0.15649,-0.026799,-0.039834,-0.001231,-0.048994,0.044206,0.03484,0.119061,-0.992275,0.034846751118613566
-0.056506,0.028818,-0.198382,0.97807,-0.184356,-0.055382,-0.022005,-0.002392,-0.033057,0.031901,0.033952,0.121968,-0.991953,0.03395902256990411
-0.058414,0.028625,-0.198392,0.977962,-0.23009,-0.062046,-0.001954,-0.002804,-0.028167,0.029484,0.032811,0.125612,-0.991537,0.03281647373151596
-0.060778,0.02849,-0.198229,0.977855,-0.266369,-0.06804,0.00993,-0.003323,-0.031475,0.038482,0.031623,0.130159,-0.990989,0.031627526150183084
-0.063392,0.028262,-0.198042,0.977733,-0.275376,-0.075162,0.003822,-0.003814,-0.028379,0.046909,0.030158,0.135155,-0.990365,0.030161395975618094
-0.066143,0.028019,-0.197806,0.977606,-0.283918,-0.091579,0.016245,-0.00648,-0.015266,0.052186,0.028616,0.140409,-0.98968,0.02862002749123217
-0.068894,0.027776,-0.197568,0.977471,-0.29246,-0.107995,0.028668,-0.009149,-0.002149,0.057432,0.027078,0.145659,-0.988964,0.027081279502271117
-0.071957,0.027389,-0.197115,0.977353,-0.329495,-0.10322,0.039207,-0.003318,0.007107,0.037188,0.025171,0.151453,-0.988144,0.025172492883245058
-0.075413,0.027215,-0.196522,0.977216,-0.37661,-0.079528,0.052641,0.000699,0.021854,0.024347,0.023549,0.158086,-0.987144,0.02355141685535119
-0.07933,0.027387,-0.195785,0.977049,-0.428485,-0.056929,0.067203,-0.000746,0.036474,0.023713,0.022453,0.165743,-0.985913,0.02245552097940954
-0.083699,0.027797,-0.194924,0.976845,-0.461276,-0.04505,0.074162,0.000248,0.038141,0.026164,0.021677,0.174359,-0.984443,0.02167853114053119
-0.088265,0.028286,-0.194082,0.976597,-0.470138,-0.055558,0.065871,-0.004965,0.045845,0.028704,0.020986,0.183378,-0.982818,0.020988290909645848
-0.09299,0.028612,-0.193267,0.97631,-0.48327,-0.07145,0.067102,-0.003008,0.05188,0.018544,0.019924,0.192634,-0.981068,0.019925885319083188
-0.097838,0.0289,-0.192424,0.975995,-0.472495,-0.074451,0.061854,-0.001329,0.05407,0.011323,0.018759,0.2021,-0.979185,0.018760852898285274
-0.102558,0.029138,-0.191656,0.975654,-0.453823,-0.083507,0.055899,-0.001975,0.064515,0.005385,0.017545,0.211291,-0.977266,0.017546400747276994
-0.107223,0.02925,-0.190896,0.975298,-0.455265,-0.070333,0.055179,0.001602,0.081355,-0.013103,0.016117,0.220315,-0.975296,0.016118747354347387
-0.111943,0.029592,-0.189972,0.974938,-0.466999,-0.05587,0.090207,0.002368,0.095356,-0.024036,0.015169,0.229518,-0.973186,0.015169241148563143
-0.116728,0.030208,-0.188849,0.974576,-0.476271,-0.033018,0.10135,0.001767,0.0975,-0.032051,0.014792,0.238931,-0.970924,0.014792590953731545
-0.121536,0.031082,-0.187722,0.974178,-0.479977,-0.00302,0.088347,0.00393,0.09103,-0.038407,0.014929,0.248465,-0.968526,0.01492939379595209
-0.126293,0.03213,-0.18688,0.973701,-0.470412,0.006365,0.053392,0.00256,0.088429,-0.039852,0.015366,0.257952,-0.966035,0.015367359421202797
-0.130794,0.033094,-0.186712,0.973106,-0.444858,0.001152,0.009958,0.000531,0.091743,-0.037744,0.015566,0.266911,-0.963596,0.015566949987370536
-0.135292,0.034058,-0.186541,0.972491,-0.419303,-0.00406,-0.033476,-0.001497,0.095081,-0.035718,0.015767,0.275846,-0.961073,0.015767840383212644
-0.139391,0.03479,-0.186775,0.971841,-0.380893,-0.011399,-0.060494,-0.004191,0.10233,-0.036483,0.015551,0.283928,-0.958719,0.01555181561343382
-0.142999,0.035301,-0.187224,0.971212,-0.335841,-0.004183,-0.066952,-0.003191,0.10808,-0.041929,0.015025,0.290982,-0.95661,0.015024385313430304
-0.146089,0.03582,-0.187707,0.97064,-0.285844,0.005928,-0.055867,-0.002864,0.108382,-0.038256,0.014694,0.297046,-0.95475,0.01469332244764441
-0.148662,0.036387,-0.188065,0.970158,-0.238013,0.018845,-0.034435,-0.003037,0.099117,-0.033115,0.014687,0.302137,-0.953151,0.014686568196892458
-0.150689,0.036986,-0.188267,0.969784,-0.186109,0.03296,-0.018156,-0.003304,0.083836,-0.027961,0.014997,0.306198,-0.95185,0.014997892378602256
-0.152174,0.0376,-0.18832,0.969518,-0.132354,0.038074,0.003882,-0.002731,0.068683,-0.018988,0.015593,0.309233,-0.950858,0.015593570186259457
-0.153213,0.03822,-0.188209,0.969351,-0.072778,0.039819,0.020856,-0.003294,0.050511,-0.008734,0.016425,0.311422,-0.95013,0.016425798028148093
-0.15373,0.038676,-0.188009,0.96929,-0.01649,0.027662,0.026029,-0.003074,0.035724,-0.002917,0.017171,0.31256,-0.949743,0.01717211688443554
-0.153793,0.038981,-0.187759,0.969317,0.024182,0.017887,0.031684,-0.003965,0.024962,0.000919,0.017818,0.312786,-0.949656,0.017818795104362687
-0.153598,0.039045,-0.187456,0.969404,0.051242,-0.002238,0.033279,-0.004543,0.016558,0.000109,0.018116,0.312435,-0.949766,0.018116015883710274
-0.153226,0.038934,-0.1871,0.969536,0.062625,-0.011844,0.037753,-0.001711,0.013751,-0.006381,0.018158,0.311684,-0.950012,0.018159658126254093
-0.152794,0.038821,-0.186699,0.969686,0.06288,-0.004905,0.043089,-0.000519,0.011709,-0.006958,0.018236,0.31082,-0.950294,0.01823639718469058
-0.152375,0.03874,-0.186275,0.969836,0.055181,-0.002399,0.042768,0.001008,0.006839,-0.007255,0.018376,0.309991,-0.950562,0.01837662131068439
-0.15204,0.038702,-0.185978,0.969947,0.047127,-0.003869,0.02891,0.002898,0.003131,-0.007252,0.018524,0.309338,-0.950772,0.01852664716721253
-0.151706,0.038663,-0.185682,0.970058,0.039073,-0.005339,0.015051,0.004789,-0.000576,-0.00725,0.018672,0.308685,-0.950981,0.01867364317037731
-0.151412,0.03864,-0.185557,0.970129,0.03683,0.003272,0.005505,0.003335,-0.00268,-0.004857,0.01878,0.308117,-0.951163,0.01878156032239385
-0.151087,0.03857,-0.185555,0.970183,0.041844,-0.007052,-0.00724,-0.000504,-0.002961,-0.00081,0.018771,0.307478,-0.95137,0.018771122380494457
-0.15071,0.038404,-0.185663,0.970227,0.039075,-0.010777,-0.016049,-0.000903,-0.000678,0.001457,0.018559,0.306706,-0.951623,0.01855971946099939
-0.15034,0.038195,-0.185776,0.970271,0.037766,-0.014041,-0.008937,-0.000398,-0.000299,0.000643,0.018261,0.305934,-0.951878,0.018260888872602923
-0.149949,0.038004,-0.185859,0.970323,0.039634,-0.008149,-0.005785,0.002862,0.001713,-0.00365,0.018013,0.305124,-0.952142,0.01801454254398602
-0.149551,0.037912,-0.185886,0.970383,0.035902,0.00412,0.006978,0.002107,0.004964,-0.005213,0.017979,0.304339,-0.952394,0.017980415035025774
-0.149261,0.037956,-0.185753,0.970452,0.019964,0.010184,0.022154,-0.002428,0.004112,-0.002895,0.018217,0.303802,-0.952561,0.01821860298678437
-0.149094,0.037976,-0.185556,0.970514,0.011629,-0.003903,0.017633,-0.004545,0.000909,0.000213,0.018382,0.303489,-0.952658,0.01838294214829558
-0.149018,0.037946,-0.185405,0.970556,0.007374,-0.006581,0.012231,-0.003258,-0.002055,0.00278,0.0184,0.303331,-0.952708,0.018401109792963083
-0.14895,0.037892,-0.185318,0.970585,0.009835,-0.001781,0.003123,-0.002395,-0.003038,0.002747,0.018348,0.303182,-0.952756,0.01834961116684676
-0.148843,0.037842,-0.18535,0.970597,0.017937,-0.002851,-0.006735,-0.003927,-0.002832,0.004783,0.018283,0.302962,-0.952827,0.018283581898810384
-0.148666,0.037757,-0.185448,0.970609,0.018499,0.000144,-0.007683,-0.00169,-0.000406,0.003618,0.018154,0.302598,-0.952946,0.018155940755451797
-0.148484,0.037664,-0.18555,0.970621,0.017124,-0.003804,-0.008875,-0.002159,0.001127,0.002073,0.018013,0.302222,-0.953068,0.018013500460910027
-0.148363,0.037645,-0.185653,0.970621,0.011362,-0.002571,-0.008623,-0.00318,0.001847,0.003019,0.017989,0.301986,-0.953143,0.01799095353150177
-0.148241,0.037625,-0.185755,0.97062,0.005601,-0.001338,-0.008371,-0.004202,0.002566,0.003964,0.017965,0.30175,-0.953218,0.01796710775558463
-0.148213,0.03757,-0.185886,0.970602,0.003362,-0.007531,-0.015879,-0.002576,0.00261,-0.001291,0.01783,0.30168,-0.953243,0.017830535633406162
-0.148234,0.037534,-0.186072,0.970564,-0.003689,0.001833,-0.015838,0.000106,0.002796,-0.000851,0.017693,0.30171,-0.953236,0.017694828037118613
-0.148315,0.037574,-0.186281,0.97051,-0.012985,0.013787,-0.019585,0.002414,0.001658,-0.002829,0.017676,0.301881,-0.953182,0.01767627292937278
-0.148483,0.037719,-0.18653,0.970431,-0.015226,0.0108,-0.026141,0.000549,-0.001233,0.004845,0.017814,0.302257,-0.95306,0.017815248159395374
-0.148592,0.037704,-0.186855,0.970352,-0.002349,0.004919,-0.034632,0.000332,-0.000978,0.004107,0.017641,0.302464,-0.952998,0.017642902572049302
-0.148576,0.03768,-0.187264,0.970277,0.012372,0.003533,-0.040913,0.001367,0.005465,0.00607,0.017474,0.302431,-0.953011,0.017475091998974582
-0.14841,0.037626,-0.187669,0.970226,0.023701,0.004601,-0.034802,0.001254,0.010065,0.006725,0.017308,0.302105,-0.953117,0.017308398569302535
-0.148116,0.037572,-0.187987,0.970212,0.034382,0.004765,-0.024822,0.00048,0.010993,0.005727,0.017219,0.301533,-0.9533,0.017218696374628705
-0.147748,0.037511,-0.188212,0.970227,0.040837,0.00249,-0.015327,0.00077,0.012026,0.002936,0.017172,0.300818,-0.953527,0.017173320963974083
-0.147415,0.037469,-0.18834,0.970254,0.033156,0.00584,-0.005828,0.000882,0.011621,0.000176,0.017181,0.300175,-0.95373,0.017181457374320183
-0.147234,0.037521,-0.188373,0.970273,0.016847,0.00654,0.00266,0.000633,0.008596,-0.001288,0.017342,0.29985,-0.953829,0.01734227518350284
-0.147216,0.037611,-0.188351,0.970277,0.004648,0.006928,0.002161,0.001082,0.005447,-0.001725,0.01753,0.299848,-0.953826,0.0175305127577868
-0.147301,0.037712,-0.188381,0.970254,-0.005574,0.007105,-0.003717,0.001803,0.003946,-0.001818,0.017683,0.300048,-0.95376,0.01768394001165351
-0.14749,0.037839,-0.188453,0.970206,-0.01927,0.007775,-0.006838,0.001917,0.002956,-0.00146,0.017833,0.300453,-0.95363,0.01783432912054637
-0.147792,0.037936,-0.188573,0.970133,-0.028863,0.005101,-0.012674,0.001331,0.001051,-0.000516,0.017867,0.301063,-0.953437,0.017867720056569114
-0.148136,0.038028,-0.188735,0.970046,-0.033441,0.004185,-0.018479,0.00052,-0.000832,0.001072,0.017861,0.301751,-0.953219,0.017861872435457008
-0.148361,0.038014,-0.188991,0.969962,-0.022098,-0.001852,-0.02348,0.00037,-0.00027,0.000928,0.017666,0.302178,-0.953088,0.01766740252832296
-0.148587,0.037999,-0.189247,0.969878,-0.010754,-0.007889,-0.02848,0.000219,0.000293,0.000784,0.01747,0.302605,-0.952956,0.01747038895508106
-0.148683,0.037919,-0.1895,0.969817,0.000302,-0.009949,-0.023833,0.000358,0.001742,0.001929,0.017199,0.302761,-0.952911,0.017198972556155365
-0.148692,0.0378,-0.189708,0.96978,0.002349,-0.009107,-0.018265,-0.000258,0.001707,0.001505,0.016899,0.302739,-0.952924,0.01690004859161752
-0.148658,0.037699,-0.18983,0.969765,0.004609,-0.00924,-0.010777,-0.001725,0.00124,0.000341,0.016679,0.302639,-0.952959,0.016679618584455668
-0.148648,0.037582,-0.18988,0.969761,0.003846,-0.007877,-0.002242,-0.000839,-0.000308,-0.000668,0.01644,0.302579,-0.952982,0.016441292038268218
-0.14863,0.037509,-0.189878,0.969767,0.001885,-0.005044,0.000885,0.000256,-0.000755,-0.001392,0.016306,0.302516,-0.953005,0.0163075693135683
-0.148641,0.037476,-0.189841,0.969774,0.000382,-0.002787,0.001168,-3.1e-05,-0.001125,-0.001376,0.016249,0.302526,-0.953003,0.016250903965184096
-0.148687,0.037428,-0.189847,0.969768,-0.005305,-0.001034,-0.003698,0.000656,-0.000678,-0.001276,0.016138,0.302596,-0.952982,0.016138092116330178
-0.148752,0.037426,-0.189882,0.969751,-0.007615,-0.000322,-0.005673,0.00014,-0.000234,0.000297,0.016098,0.302718,-0.952944,0.016097842582250138
-0.148829,0.037425,-0.189962,0.969724,-0.00755,-0.000359,-0.012984,0.001727,0.000653,-0.000914,0.01604,0.302864,-0.952899,0.01604082030015669
-0.14888,0.037453,-0.190086,0.96969,-0.007665,0.00576,-0.010408,0.000317,0.002566,-0.000959,0.016036,0.302974,-0.952864,0.0160362790920902
-0.148881,0.037395,-0.190153,0.969679,-0.000712,-0.003766,-0.008134,0.000425,0.003167,-0.001167,0.015902,0.302956,-0.952872,0.015902625093904377
-0.148883,0.037337,-0.190221,0.969668,0.00624,-0.013291,-0.00586,0.000534,0.003767,-0.001375,0.015767,0.302938,-0.95288,0.015768295373774086
-0.14879,0.037231,-0.190242,0.969682,0.015752,-0.007097,-0.002734,0.000465,0.00142,-0.002188,0.015592,0.302725,-0.952951,0.015592878586180345
-0.148608,0.037176,-0.190304,0.9697,0.024481,-0.00012,-0.006853,0.001216,0.001979,-0.004153,0.015538,0.302361,-0.953067,0.015538365994417247
-0.148413,0.037181,-0.190418,0.969707,0.018824,0.00922,-0.008534,0.001329,0.004902,-0.005944,0.015589,0.301995,-0.953182,0.015588970053152873
-0.148332,0.037282,-0.190498,0.9697,0.004691,0.014247,-0.003478,-0.001771,0.007109,-0.004652,0.01579,0.30188,-0.953215,0.015791468440815738
-0.14833,0.037352,-0.19054,0.969689,0.001573,0.003945,-0.003025,-0.002409,0.006902,-0.002301,0.015914,0.301901,-0.953206,0.01591472245670817
-0.148301,0.03737,-0.190582,0.969685,0.002424,-0.001701,-0.003297,-0.00154,0.007327,0.000473,0.015947,0.301854,-0.953221,0.015947930550846656
-0.148313,0.037356,-0.190597,0.969681,0.000441,-0.000501,0.002025,0.000147,0.006601,0.003092,0.01591,0.301873,-0.953215,0.015911452536701932
-0.148338,0.037347,-0.190566,0.969683,-0.000338,-3e-05,0.004114,0.000243,0.003399,0.005458,0.015893,0.301917,-0.953202,0.015893812542226767
-0.148341,0.03733,-0.190543,0.969688,0.004007,0.000387,0.00051,-0.000219,0.001869,0.00504,0.015867,0.301914,-0.953203,0.015866893516001748
-0.148352,0.037298,-0.190545,0.969687,0.004355,-0.004342,-0.00257,-0.000236,0.000326,0.005804,0.015799,0.301923,-0.953201,0.015799965144777366
-0.148387,0.037206,-0.190579,0.969679,0.000453,-0.007509,-0.00518,0.001297,0.000555,0.002439,0.015598,0.301956,-0.953194,0.015597494025429091
-0.148461,0.037123,-0.190636,0.969659,-0.004497,-0.010276,-0.004067,0.000359,0.00294,0.003361,0.015389,0.302066,-0.953163,0.015389887227086972
-0.148562,0.037026,-0.190654,0.969644,-0.003805,-0.019379,-0.004556,-0.001409,0.002543,0.001846,0.015156,0.302223,-0.953117,0.015156778707927858
-0.148645,0.036843,-0.190706,0.969628,-0.002094,-0.00901,-0.008664,0.00137,0.003487,-0.00559,0.014754,0.302313,-0.953095,0.014753557290380616
-0.148729,0.036948,-0.190729,0.969607,-0.002357,-0.000394,0.002933,-0.00192,0.002679,0.001454,0.014916,0.302512,-0.953029,0.01491676517179154
-0.148687,0.036896,-0.190717,0.969617,-0.002226,-0.004702,-0.002866,-0.000275,0.003083,-0.002068,0.014835,0.302412,-0.953062,0.014836244777933803
-0.148772,0.036906,-0.190731,0.969601,-0.001579,-0.002628,0.000267,-0.001192,0.002979,-0.000483,0.014818,0.302578,-0.953009,0.014817866599826705
-0.148839,0.036919,-0.190706,0.969596,-0.008476,-0.000179,0.002326,0.000493,0.003527,-0.001027,0.014823,0.302709,-0.952968,0.014824591770468399
-0.148959,0.036987,-0.190667,0.969582,-0.015222,0.004843,0.004881,-0.00017,0.002809,0.00079,0.014922,0.30296,-0.952886,0.014921281246369959
-0.149132,0.037069,-0.190633,0.969559,-0.017061,0.003786,0.003489,1.8e-05,0.002389,0.002424,0.015022,0.303317,-0.952771,0.015022769089036454
-0.149306,0.037119,-0.190639,0.969529,-0.012855,0.004485,-0.000707,-5.3e-05,0.00137,0.002188,0.015049,0.303666,-0.95266,0.015049368899868038
-0.149451,0.037187,-0.190685,0.969495,-0.008602,0.002951,-0.006164,-0.000378,0.001997,0.002003,0.01511,0.303965,-0.952563,0.015109668181530748
-0.149549,0.037199,-0.19076,0.969465,-0.005525,5.3e-05,-0.006111,7.3e-05,0.002041,0.002031,0.01507,0.304158,-0.952502,0.015070893096747454
-0.149623,0.037176,-0.190835,0.96944,-0.00222,-0.002664,-0.006558,0.000433,0.001539,-0.000101,0.014973,0.304291,-0.952462,0.014973752015993042
-0.149608,0.037152,-0.190902,0.96943,0.005531,-0.00035,-0.007651,0.000903,0.0017,-0.002181,0.014913,0.304253,-0.952474,0.014912146556116317
-0.149553,0.037137,-0.19099,0.969421,0.006796,0.003801,-0.007586,0.000164,0.001604,-0.001763,0.014877,0.304145,-0.95251,0.014877069191241274
-0.149472,0.037152,-0.191075,0.969416,0.012082,0.000967,-0.00572,-0.0013,0.000584,-0.000415,0.014911,0.303999,-0.952556,0.014911314239581211
-0.149329,0.037128,-0.191149,0.969425,0.02064,-0.000439,-0.00577,-0.001056,0.000407,-0.000251,0.014897,0.303721,-0.952645,0.014897995854277224
-0.149116,0.037039,-0.191198,0.969451,0.022153,-0.001185,-0.004193,-0.000771,8e-06,0.000111,0.014793,0.303284,-0.952785,0.014794168896390106
-0.148902,0.036949,-0.191247,0.969478,0.023666,-0.001931,-0.002615,-0.000486,-0.000392,0.000473,0.014689,0.302847,-0.952926,0.014688891871530444
-0.148709,0.036865,-0.191271,0.969506,0.0199,-0.002619,-0.0009,-0.000794,-0.001329,0.001473,0.014594,0.30245,-0.953053,0.01459475722724099
-0.148541,0.036768,-0.191309,0.969528,0.019406,-0.005018,-0.001819,-0.001223,-0.001562,-3e-06,0.014461,0.302098,-0.953167,0.014461254706671254
-0.148365,0.036681,-0.191329,0.969554,0.019176,-0.002146,-0.002348,-0.000647,-0.00096,0.000434,0.014355,0.301731,-0.953285,0.014355859474443206
-0.148209,0.036638,-0.191379,0.96957,0.014405,0.000456,-0.003336,7.3e-05,-0.00138,0.000255,0.014318,0.301421,-0.953384,0.01431852015686483
-0.148091,0.036621,-0.191412,0.969582,0.006418,0.002551,-0.003816,0.000466,-0.001574,-0.000683,0.014321,0.301191,-0.953456,0.014321825457763697
-0.148035,0.036632,-0.191475,0.969578,0.004227,0.004015,-0.006613,0.000339,-0.001557,0.000729,0.014345,0.301091,-0.953488,0.014345651387313122
-0.148004,0.036675,-0.191585,0.969559,0.001234,0.006212,-0.007139,0.001885,-0.001145,0.000561,0.014407,0.301049,-0.9535,0.01440695835061823
-0.147996,0.036735,-0.191699,0.969536,-0.000569,0.002557,-0.011726,0.000782,-0.000916,0.002496,0.01449,0.301058,-0.953496,0.014490946659703597
-0.148011,0.036754,-0.191863,0.9695,-0.00392,0.004042,-0.015722,0.001529,0.002081,-0.001754,0.01447,0.301097,-0.953484,0.014470842053809363
-0.148051,0.036838,-0.192008,0.969462,-0.004297,0.007113,-0.008997,-0.002185,0.003995,0.001967,0.014572,0.301206,-0.953448,0.014572645269848682
-0.148095,0.036826,-0.192094,0.969439,-0.003949,-0.00706,-0.007596,-0.002957,0.005903,0.00648,0.014504,0.301286,-0.953423,0.014505308025025901
-0.148171,0.036726,-0.192096,0.969431,-0.005311,-0.01063,0.004411,-0.000752,0.00292,0.002272,0.01428,0.301393,-0.953393,0.01428101840468506
-0.148236,0.036808,-0.192088,0.969419,-0.008829,-0.000585,0.004813,-0.0006,0.003145,0.000576,0.014417,0.301547,-0.953342,0.014416534943122722
-0.148301,0.036891,-0.192081,0.969408,-0.012347,0.00946,0.005215,-0.000447,0.003371,-0.00112,0.014554,0.3017,-0.953292,0.014553766065867293
-0.148366,0.036974,-0.192073,0.969396,-0.015864,0.019505,0.005618,-0.000294,0.003596,-0.002816,0.014691,0.301854,-0.953241,0.014691218438559861
-0.148525,0.037159,-0.192063,0.969366,-0.016529,0.010422,0.001891,-0.002335,0.00389,0.0013,0.014989,0.302224,-0.953119,0.014989589561332117
-0.148663,0.03721,-0.192068,0.969342,-0.015352,-0.003688,-0.005059,-0.000755,0.003709,0.000795,0.015032,0.302505,-0.953029,0.015032187594483978
-0.14881,0.03722,-0.192064,0.96932,-0.015525,-0.002626,-0.000483,-0.000674,0.003803,-0.000377,0.014995,0.302786,-0.952941,0.014994655012586329
-0.148933,0.037239,-0.192059,0.969302,-0.007835,0.000905,0.00212,-0.001135,0.003516,0.001464,0.014984,0.303026,-0.952865,0.014984389001294552
-0.148985,0.03727,-0.192005,0.969303,-0.001986,0.001993,0.008127,-0.001014,0.00092,0.003647,0.01504,0.303136,-0.952829,0.01504068285283099
-0.149006,0.037292,-0.191923,0.969315,0.000338,-0.001595,0.008572,-0.001626,-0.002152,0.003937,0.015099,0.303181,-0.952813,0.01510060677180129
-0.149003,0.037262,-0.191844,0.969333,0.001861,-0.007873,0.002599,-0.001203,-0.002919,0.000874,0.015068,0.303163,-0.95282,0.015068479660712482
-0.149046,0.037233,-0.191865,0.969323,-0.002427,-0.006451,-0.000574,-0.002662,-0.00256,0.000547,0.014989,0.303235,-0.952798,0.014988746166588986
-0.14909,0.037204,-0.191885,0.969313,-0.006715,-0.005028,-0.003747,-0.004121,-0.002201,0.000219,0.014909,0.303307,-0.952776,0.014908924713976427
-0.14917,0.037142,-0.191939,0.969293,-0.00406,-0.012701,-0.01217,-0.001323,-0.002202,-0.00311,0.01474,0.303437,-0.952738,0.014740413745219491
-0.149223,0.03711,-0.192059,0.969262,-0.007309,0.003616,-0.010954,0.000628,0.000377,-0.005129,0.01462,0.303526,-0.952711,0.01461990613425713
-0.149247,0.037246,-0.19219,0.969227,-0.005799,0.021821,-0.008916,-0.000341,-0.000178,-0.00317,0.014831,0.303624,-0.952676,0.014832639699273054
-0.149273,0.037342,-0.192297,0.969198,-0.005255,0.004399,-0.005187,-0.002297,0.001155,0.001844,0.014974,0.303712,-0.952646,0.014974642915872912
-0.149271,0.037348,-0.192385,0.969181,0.000222,0.001775,-0.00424,5.1e-05,0.002557,0.000149,0.014959,0.303712,-0.952646,0.014959499255714402
-0.149235,0.03736,-0.192402,0.969182,0.003278,0.00245,-4.4e-05,0.000682,0.003064,0.000511,0.01499,0.303649,-0.952666,0.014991615650977433
-0.149177,0.037402,-0.192385,0.969193,0.005666,0.003189,0.002461,-0.000177,0.001621,-0.000398,0.0151,0.303554,-0.952695,0.015101252843464365
-0.149099,0.037405,-0.192369,0.969208,0.007035,0.005201,0.003279,-0.000276,0.000105,0.000331,0.015143,0.303407,-0.952741,0.015142978150214181
-0.148996,0.037434,-0.192369,0.969223,0.009132,0.004322,-0.000865,-0.000462,-0.001321,-0.000357,0.015239,0.303223,-0.952798,0.015239954438162282
-0.148902,0.0375,-0.192398,0.969229,0.005719,0.007383,-0.004898,0.000757,-0.000724,-0.00186,0.015395,0.30307,-0.952844,0.015395889224132542
-0.148856,0.037582,-0.192462,0.96922,-0.001391,0.007402,-0.006119,0.000979,0.001505,-0.00152,0.015554,0.303014,-0.952859,0.015552832142367686
-0.148902,0.037643,-0.192531,0.969197,-0.008135,0.007903,-0.004359,0.001376,0.001118,-0.001306,0.01563,0.303126,-0.952822,0.01563109993801354
-0.148991,0.037745,-0.192589,0.969168,-0.012132,0.006689,-0.004012,0.001801,0.001889,-0.001236,0.015775,0.303334,-0.952754,0.0157750911949743
-0.149093,0.037837,-0.192604,0.969146,-0.010972,0.002499,-0.000466,0.000724,0.001539,0.000545,0.015908,0.30356,-0.952679,0.015908009010899303
-0.149167,0.037848,-0.192593,0.969136,-0.005742,-0.001446,0.000572,-0.000322,0.001165,0.000533,0.015903,0.303705,-0.952633,0.01590334895543655
-0.149189,0.037828,-0.19255,0.969142,0.001746,-0.00564,0.002905,-2.2e-05,0.000838,0.000636,0.015868,0.303738,-0.952623,0.01586938932821531
-0.149177,0.037769,-0.19247,0.969162,0.006453,-0.008744,0.003124,-0.000531,-0.00107,0.000666,0.015784,0.303691,-0.95264,0.01578502028517085
-0.149106,0.037681,-0.192422,0.969186,0.009574,-0.005237,0.002257,0.000165,-0.001446,0.000312,0.015657,0.303525,-0.952695,0.01565788566585301
-0.149027,0.037599,-0.192397,0.969206,0.009119,-0.004679,0.000828,-0.001108,-0.001571,0.000458,0.015537,0.303343,-0.952755,0.015538282598349887
-0.149002,0.037566,-0.192377,0.969215,0.005381,-0.002761,0.000488,-0.001161,-0.001056,0.000486,0.015491,0.303283,-0.952775,0.01549056537775625
-0.148977,0.037534,-0.192357,0.969224,0.001642,-0.000843,0.000149,-0.001214,-0.000542,0.000513,0.015444,0.303224,-0.952794,0.015444783683250128
-0.148953,0.037518,-0.192365,0.969227,0.000949,0.000609,-0.000903,-0.000527,-0.001124,-0.000795,0.015421,0.303173,-0.952811,0.01542084066003098
-0.148939,0.037523,-0.192395,0.969223,0.001189,0.001917,-0.002173,-0.000159,-0.00034,-0.00024,0.015426,0.303149,-0.952818,0.01542668332097963
-0.148919,0.037519,-0.192419,0.969222,0.000517,0.00154,0.000301,0.000191,0.001343,0.00136,0.015419,0.303109,-0.952831,0.015419401320911246
-0.148885,0.037542,-0.192427,0.969224,-0.000195,0.004656,0.001787,0.000137,0.000885,0.000885,0.015474,0.303054,-0.952848,0.015474844647552942
-0.148863,0.037579,-0.192417,0.969228,-0.000538,-0.001516,-0.002343,0.000683,4.9e-05,0.000373,0.015558,0.303026,-0.952855,0.0155583219525554
-0.148877,0.037575,-0.19244,0.969222,-0.003565,0.001714,-0.00231,0.001567,0.002637,-0.002764,0.015537,0.303052,-0.952847,0.015537878739598658
-0.148915,0.037609,-0.192459,0.969211,-0.00073,0.002449,0.001244,-0.001123,0.001304,0.000889,0.015582,0.303137,-0.952819,0.0155826796511426
-0.148896,0.037538,-0.192452,0.969218,0.008143,-0.015442,-0.002489,-0.002619,0.002683,0.005232,0.015455,0.303073,-0.952842,0.01545495982774142
-0.14886,0.037367,-0.192396,0.969241,0.008238,-0.01369,0.007568,-0.000535,0.001223,0.001044,0.015155,0.30294,-0.952889,0.015155699966030464
-0.148755,0.037282,-0.192289,0.969282,0.015018,-0.004058,0.006125,0.001455,-0.003278,-0.00324,0.015065,0.302709,-0.952964,0.015066212633381492
-0.148627,0.03728,-0.192277,0.969304,0.009827,0.01046,0.001036,0.002126,-0.000474,-0.005672,0.015117,0.302466,-0.95304,0.015116774615103648
-0.148586,0.037453,-0.192247,0.969309,-0.004356,0.017839,0.010422,0.000459,0.002513,-0.004277,0.015478,0.302452,-0.953039,0.01547725237988285
-0.148658,0.037638,-0.192179,0.969305,-0.009339,0.009904,0.007499,-0.001698,0.000813,0.000972,0.015826,0.302657,-0.952968,0.015828172515821786
-0.148724,0.037671,-0.192144,0.9693,-0.006774,-0.004106,0.003863,-0.000908,0.000894,-0.000318,0.015877,0.302792,-0.952924,0.01587681910018139
-0.148782,0.037683,-0.192076,0.969304,-0.005607,-0.000991,0.005528,-0.000288,0.002346,-0.000199,0.015898,0.302907,-0.952888,0.015898332127230696
-0.148801,0.037698,-0.191987,0.969318,-0.001864,0.001889,0.007431,1.3e-05,0.002195,0.002387,0.015947,0.302947,-0.952874,0.015947660734535907
-0.148772,0.037724,-0.191881,0.969343,0.003002,0.002479,0.01158,-0.000911,-0.000126,0.004587,0.016042,0.302899,-0.952888,0.01604263853010066
-0.148741,0.037722,-0.191783,0.969367,0.004874,-0.002751,0.008066,-0.001418,-0.002269,0.003736,0.016082,0.302838,-0.952906,0.01608162670131516
-0.148704,0.037676,-0.191714,0.969388,0.004193,-0.006958,-3.1e-05,-0.000298,-0.003288,-0.000323,0.016028,0.302751,-0.952935,0.01602873360636038
-0.148711,0.037611,-0.19175,0.969383,-0.002721,0.002526,-0.00386,0.000881,-0.001231,-0.001947,0.015888,0.30274,-0.952941,0.015888928065487494
-0.148769,0.037613,-0.191799,0.969364,-0.005713,-0.003964,-0.007672,-0.001632,-0.001296,-0.000271,0.015854,0.302851,-0.952906,0.01585454961140253
-0.148831,0.037536,-0.191866,0.969344,-0.001504,-0.013776,-0.009583,-0.000861,-0.002856,-0.002551,0.015659,0.30294,-0.952881,0.01566001553497253
-0.148845,0.037503,-0.191954,0.969326,-0.004517,0.006083,-0.003736,0.00277,-0.000189,-0.003824,0.015562,0.302956,-0.952877,0.015563107945974
-0.14885,0.037649,-0.191993,0.969312,-0.005266,0.023152,0.00239,0.001335,-0.000776,-0.001421,0.015831,0.30302,-0.952853,0.015831600205277126
-0.148834,0.037839,-0.192034,0.969299,0.000634,0.010879,-0.002336,-0.002226,-0.001478,0.00337,0.016192,0.303063,-0.952833,0.01619294066279958
-0.148814,0.037884,-0.192059,0.969295,-0.004012,0.003249,-0.002309,-0.00075,-0.000347,0.001901,0.01628,0.303041,-0.952838,0.016280126652779125
-0.148872,0.037908,-0.192077,0.969281,-0.008725,0.001283,0.00024,0.001058,-0.001046,0.000234,0.016297,0.303161,-0.9528,0.016297955518018957
-0.148962,0.037941,-0.192106,0.969261,-0.009033,0.002584,-0.00108,0.000953,-0.000502,0.000177,0.016316,0.303343,-0.952742,0.016317199326783726
-0.14905,0.037961,-0.192125,0.969243,-0.008412,0.000549,-0.001204,0.000251,-0.000132,4.6e-05,0.016314,0.303518,-0.952686,0.016315128339123564
-0.149155,0.037983,-0.192125,0.969226,-0.010303,0.002848,-0.001694,6.6e-05,-3.5e-05,1.2e-05,0.016316,0.303725,-0.95262,0.016316137493438975
-0.14924,0.03801,-0.192165,0.969203,-0.00843,0.000509,-0.003382,0.000256,0.00045,-0.000501,0.016322,0.303896,-0.952565,0.01632212758504415
-0.149327,0.038029,-0.192186,0.969185,-0.007773,0.000921,-0.00281,0.000714,0.002059,-0.000127,0.016316,0.304068,-0.952511,0.01631787924529998
-0.149415,0.038045,-0.192203,0.969168,-0.006074,0.001598,-0.001416,0.000394,0.003164,-0.000652,0.016308,0.30424,-0.952456,0.016308693567065484
-0.149464,0.03807,-0.192205,0.969159,-0.00155,0.000408,-0.000361,7e-05,0.002986,-0.00028,0.016337,0.304343,-0.952422,0.016337036732801413
-0.149484,0.038067,-0.192177,0.969161,0.001372,-0.002662,0.002406,7.3e-05,0.003455,0.000325,0.016332,0.304379,-0.952411,0.016332056286381267
-0.14947,0.038035,-0.192142,0.969172,0.004538,-0.004254,0.005615,-0.000168,0.00311,0.000988,0.016286,0.30434,-0.952424,0.016286704576826922
-0.149416,0.037995,-0.192063,0.969197,0.010822,-0.006487,0.007358,-0.000799,0.001575,0.001665,0.016255,0.304222,-0.952463,0.016255425490386118
-0.149315,0.037916,-0.191961,0.969236,0.015864,-0.010392,0.008495,-0.000113,0.000909,0.000927,0.016174,0.304001,-0.952534,0.016174496159426812
-0.149216,0.037795,-0.191866,0.969275,0.014134,-0.007078,0.007052,-0.000686,-0.001748,0.000226,0.016008,0.303766,-0.952612,0.016009226977637736
-0.149114,0.037712,-0.191774,0.969312,0.010773,-0.006376,0.005195,-0.000498,-0.001418,5.4e-05,0.015916,0.30354,-0.952686,0.015917683991816454
-0.149047,0.037675,-0.191695,0.969339,0.006286,-0.003878,0.003002,-0.001302,-0.001054,0.000925,0.015897,0.303399,-0.952731,0.01589723390845197
-0.149051,0.037618,-0.191675,0.969345,0.001203,-0.001413,0.001303,-0.000978,-0.001462,0.00023,0.015792,0.303385,-0.952737,0.015791595898707638
-0.149055,0.037562,-0.191654,0.96935,-0.00388,0.001052,-0.000397,-0.000653,-0.00187,-0.000465,0.015686,0.303371,-0.952743,0.01568811897107808
-0.149113,0.037543,-0.191646,0.969344,-0.005277,0.000596,-0.001845,-0.000156,-0.000446,-0.000111,0.015631,0.303474,-0.952711,0.015630980093373055
-0.149194,0.037551,-0.191656,0.969329,-0.006833,0.002005,-0.001387,-0.000822,-0.000399,-0.000666,0.01561,0.30363,-0.952662,0.015611330137925643
-0.149263,0.037558,-0.191685,0.969313,-0.007376,0.001285,-0.002323,-0.000645,0.000615,-0.000796,0.015588,0.303763,-0.95262,0.015588590339016639
-0.149306,0.037582,-0.19169,0.969304,-0.007155,0.003229,-0.00045,0.000593,0.001572,-0.001752,0.015616,0.303855,-0.95259,0.015616466309996427
-0.149363,0.037643,-0.191719,0.969287,-0.006432,0.005697,-9e-06,0.000137,0.000364,-0.000406,0.015701,0.303985,-0.952547,0.0157029364241775
-0.149383,0.037722,-0.19174,0.969277,-0.001218,0.005711,-0.002337,-0.000291,0.000188,0.002007,0.015841,0.304053,-0.952523,0.015841403706585024
-0.149375,0.037712,-0.191805,0.969266,0.002166,-0.004,-0.006372,0.001756,-2e-06,-0.00088,0.015803,0.304035,-0.95253,0.01580483301455676
-0.149348,0.037737,-0.191849,0.96926,0.004733,-0.005333,-0.003507,-0.000757,0.000577,0.002873,0.01585,0.303994,-0.952542,0.01585006398180477
-0.149321,0.037763,-0.191893,0.969255,0.007299,-0.006665,-0.000642,-0.003271,0.001156,0.006626,0.015896,0.303953,-0.952554,0.01589731342249929
-0.149256,0.037607,-0.19189,0.969271,0.011765,-0.018449,0.00226,-0.001722,0.002286,0.001766,0.015621,0.303772,-0.952617,0.015621916712820712
-0.149134,0.037494,-0.19182,0.969308,0.020881,-0.006776,0.002351,-0.000366,-5.9e-05,-0.005573,0.015474,0.303498,-0.952707,0.015473317982778794
-0.148881,0.037415,-0.191862,0.969342,0.026938,0.003567,-0.006134,0.001681,0.009077,-0.012874,0.015406,0.30299,-0.952869,0.015407258580559814
-0.148661,0.037454,-0.191941,0.969358,0.018572,0.018184,-0.003534,-0.000548,0.022814,-0.023686,0.015545,0.30259,-0.952994,0.015545013123188518
-0.148474,0.037593,-0.192027,0.969365,0.019537,0.007883,-0.007354,-0.007481,0.036522,-0.024823,0.015862,0.302288,-0.953085,0.01586130835320837
-0.148209,0.037454,-0.192179,0.96938,0.040362,-0.01151,-0.018455,-0.006461,0.05354,-0.036383,0.01565,0.301738,-0.953262,0.01564964100573659
-0.147625,0.037225,-0.192286,0.969457,0.062475,-0.006903,-0.007862,-0.008983,0.071896,-0.047015,0.015403,0.300549,-0.953642,0.015404241356517254
-0.147041,0.036995,-0.192394,0.969533,0.084588,-0.002297,0.002732,-0.011505,0.090252,-0.057648,0.015156,0.299358,-0.95402,0.015156714670572434
-0.14619,0.036902,-0.192305,0.969683,0.108204,0.018827,0.030128,-0.014996,0.101436,-0.0524,0.01534,0.297709,-0.954533,0.015340949960247098
-0.144964,0.037016,-0.191932,0.969937,0.15149,0.035829,0.058871,-0.017308,0.100815,-0.038077,0.01616,0.295421,-0.955231,0.016160618511727665
-0.143135,0.03707,-0.191452,0.970301,0.22039,0.022828,0.06038,-0.013419,0.096327,-0.03033,0.01713,0.291963,-0.956276,0.017131990142075393
-0.140653,0.037004,-0.191105,0.970735,0.272761,0.048062,0.037283,-0.005606,0.094233,-0.033182,0.018083,0.287217,-0.957695,0.01808415843139117
-0.137674,0.037009,-0.191056,0.971171,0.31348,0.046675,0.009583,-0.005644,0.093168,-0.020561,0.019278,0.281551,-0.959353,0.019278441733339664
-0.134411,0.036798,-0.191233,0.971601,0.332104,0.045282,-0.010092,-0.002828,0.099049,-0.032495,0.020098,0.275262,-0.961159,0.020099663008089606
-0.130953,0.036621,-0.191562,0.972016,0.361601,0.048126,-0.021425,0.003129,0.09957,-0.028351,0.021021,0.268607,-0.96302,0.021022707178130477
-0.127202,0.036247,-0.191985,0.972444,0.388343,0.033445,-0.018524,0.006903,0.099988,-0.037322,0.021655,0.261312,-0.965011,0.021656296139326164
-0.123243,0.03601,-0.192331,0.972894,0.40029,0.07193,-0.006529,0.009362,0.095954,-0.03745,0.022662,0.253658,-0.967029,0.02266286692650604
-0.119209,0.03582,-0.192495,0.973372,0.418395,0.045632,0.015761,0.005019,0.087316,-0.019661,0.023838,0.245859,-0.969012,0.023840355433346755
-0.115282,0.035493,-0.1924,0.973875,0.419256,0.034378,0.042653,0.004907,0.070039,-0.006305,0.024772,0.238199,-0.9709,0.024773511100405515
-0.111384,0.035072,-0.192054,0.974412,0.428597,0.011384,0.062684,0.002571,0.05212,0.015962,0.025565,0.230539,-0.972727,0.025568455643881983
-0.107514,0.034381,-0.191505,0.974979,0.431497,-0.014696,0.076809,0.000997,0.035492,0.025719,0.025862,0.222816,-0.974517,0.02586545285285536
-0.103898,0.033515,-0.190678,0.975563,0.419503,-0.033588,0.085359,0.001027,0.023566,0.027589,0.02577,0.215499,-0.976164,0.02577271528794491
-0.10028,0.032649,-0.189848,0.976133,0.40751,-0.052481,0.093909,0.001072,0.011652,0.029404,0.025663,0.208171,-0.977756,0.0256664356900382
-0.097078,0.031776,-0.189003,0.976649,0.364314,-0.025397,0.103745,0.003025,0.009472,0.028301,0.025373,0.201633,-0.979132,0.025374653701618337
-0.094239,0.031125,-0.18809,0.977125,0.321197,-0.023166,0.08631,0.000363,-0.003742,0.035789,0.025375,0.195875,-0.9803,0.025377928205880328
-0.091665,0.030596,-0.187392,0.97752,0.277033,0.006324,0.071554,-0.001862,-0.012698,0.039475,0.025461,0.190676,-0.981323,0.0254645804534813
-0.08922,0.030134,-0.186887,0.977857,0.268384,-0.032901,0.049009,-0.006476,-0.019491,0.049589,0.025585,0.185752,-0.982264,0.025588161629850257
-0.086826,0.029474,-0.186608,0.978146,0.252087,-0.011624,0.024033,-0.000788,-0.019764,0.035397,0.025255,0.180857,-0.983185,0.025257583400034055
-0.084439,0.029104,-0.186353,0.978415,0.255112,0.002156,0.036527,-0.003121,-0.030269,0.052264,0.02548,0.176081,-0.984046,0.025483416470728555
-0.08183,0.028578,-0.186136,0.978693,0.28064,0.002213,0.020346,-0.001152,-0.036441,0.042795,0.025476,0.170811,-0.984974,0.025477915647080837
-0.078955,0.027987,-0.186057,0.978962,0.303688,-0.016261,0.014465,-0.004425,-0.030149,0.035631,0.025415,0.165002,-0.985966,0.02541889530668766
-0.075981,0.027515,-0.185943,0.979232,0.299941,0.028473,0.027606,-0.002902,-0.037155,0.037534,0.02563,0.159038,-0.98694,0.025633673953239667
-0.072913,0.027239,-0.185783,0.979503,0.319341,0.016723,0.019589,-0.008412,-0.043726,0.045476,0.026269,0.152957,-0.987884,0.02627239494247336
-0.069607,0.02684,-0.185749,0.979761,0.337772,0.030634,0.021074,-0.006424,-0.04141,0.041688,0.026734,0.146368,-0.988869,0.026737894967271664
-0.066044,0.026581,-0.185511,0.98006,0.373286,0.031744,0.045318,-0.009683,-0.052195,0.05058,0.027597,0.139317,-0.989863,0.027601677353407048
-0.062022,0.025969,-0.185147,0.980408,0.436612,-0.002215,0.047763,-0.012492,-0.063567,0.036052,0.027953,0.131229,-0.990958,0.027957698203064856
-0.057354,0.025032,-0.18483,0.980776,0.500636,-0.005695,0.044502,-0.009474,-0.058366,0.016773,0.027901,0.121756,-0.992168,0.0279037109340382
-0.05188,0.02413,-0.184248,0.981213,0.535203,0.002594,0.060591,-0.008003,-0.062216,0.019337,0.028235,0.110703,-0.993452,0.028239520114363082
-0.046405,0.023227,-0.183661,0.981619,0.569771,0.010882,0.07668,-0.006516,-0.066053,0.021779,0.028554,0.099637,-0.994614,0.028558433425163704
-0.040929,0.022323,-0.183067,0.981994,0.604338,0.019171,0.09277,-0.005013,-0.069876,0.024098,0.028856,0.088557,-0.995653,0.028860611973083008
-0.03461,0.021365,-0.182461,0.982371,0.667508,0.037147,0.058811,-0.000336,-0.081875,0.012502,0.029346,0.075797,-0.996691,0.02935097644078797
-0.027641,0.02062,-0.182239,0.982649,0.718994,0.059385,0.022215,0.001086,-0.07948,0.019765,0.030451,0.061838,-0.997622,0.03045461583660894
-0.020284,0.019914,-0.182326,0.982827,0.75017,0.078411,-0.007792,0.003056,-0.075339,0.017861,0.031748,0.047133,-0.998384,0.03175276804505431
-0.012569,0.019364,-0.182582,0.98292,0.770045,0.104793,-0.014386,0.001389,-0.072244,0.028652,0.033477,0.031779,-0.998934,0.03348303547473747
-0.004596,0.018738,-0.182914,0.98294,0.783447,0.067027,-0.021273,-0.003446,-0.064602,0.02361,0.035155,0.01589,-0.999256,0.03516255936818124
0.003292,0.017993,-0.183193,0.982907,0.758686,0.079629,-0.001657,0.001537,-0.059753,0.013282,0.036577,0.00012,-0.999331,0.03658519487165685
0.010839,0.017391,-0.183245,0.982854,0.721303,0.072383,0.013192,0.002113,-0.058453,0.013695,0.038158,-0.014932,-0.99916,0.03816727890421324
0.017852,0.016751,-0.183181,0.982774,0.656113,0.067423,0.019488,0.007652,-0.055646,0.002856,0.039466,-0.028952,-0.998801,0.0394754406715981
0.024077,0.016292,-0.183054,0.982673,0.559932,0.073168,0.02362,0.010702,-0.048411,-0.009531,0.040834,-0.041355,-0.99831,0.04084555591206652
0.029155,0.016067,-0.182969,0.982555,0.426967,0.070819,0.008182,0.013562,-0.034268,-0.021186,0.042243,-0.051412,-0.997784,0.042254917842442515
0.0328,0.016133,-0.182925,0.982447,0.262237,0.075196,0.014033,0.014044,-0.026169,-0.021691,0.043701,-0.058547,-0.997328,0.043713435313352096
0.033967,0.016441,-0.182674,0.982449,0.181432,0.047341,0.01557,0.011878,-0.032316,-0.009867,0.044715,-0.060734,-0.997152,0.0447295773811803
0.035133,0.016749,-0.182423,0.982449,0.100628,0.019486,0.017107,0.009714,-0.038463,0.001952,0.045728,-0.062921,-0.99697,0.04574416294460716
0.036299,0.017057,-0.182172,0.982448,0.019823,-0.008369,0.018644,0.007551,-0.04461,0.013764,0.04674,-0.065108,-0.996783,0.046757589535197076
0.036549,0.016984,-0.181985,0.982475,-0.000257,-0.02083,0.010147,0.007201,-0.042678,0.009984,0.046676,-0.065635,-0.996751,0.046692414804550886
0.036521,0.016678,-0.181873,0.982502,-0.035853,-0.043549,0.021357,0.005486,-0.027621,0.004824,0.046056,-0.065697,-0.996776,0.04607300267420337
0.036149,0.016472,-0.181581,0.982573,-0.090168,-0.021406,0.038612,0.002693,-0.024458,0.00066,0.045499,-0.065055,-0.996844,0.04551353983800643
0.035346,0.016471,-0.181139,0.982684,-0.14019,-0.027779,0.041615,-0.003819,-0.022701,0.001073,0.045176,-0.063501,-0.996959,0.0451920357123373
0.034017,0.016453,-0.180735,0.982806,-0.189832,-0.025382,0.033694,-0.004034,-0.025272,-0.012506,0.044637,-0.060917,-0.997144,0.04465117479220008
0.032196,0.016628,-0.180443,0.982918,-0.233706,-0.014785,0.016326,-0.00394,-0.020322,-0.015387,0.044306,-0.057291,-0.997374,0.04432151607944875
0.029906,0.017,-0.180293,0.983011,-0.280088,-0.007596,0.007844,-0.002627,-0.01435,-0.012586,0.044206,-0.052665,-0.997633,0.04422046932576076
0.027263,0.017433,-0.180179,0.983102,-0.310534,0.000455,-0.003667,0.001211,-0.013692,-0.011749,0.044102,-0.047322,-0.997906,0.0441155826050748
0.024433,0.018007,-0.180228,0.983157,-0.32169,0.019872,-0.019665,0.005222,-0.011548,-0.006765,0.044214,-0.041553,-0.998158,0.04422885625609051
0.021553,0.018744,-0.180396,0.983179,-0.324593,0.027599,-0.031914,0.002013,-0.006852,0.001203,0.044634,-0.035618,-0.998368,0.04464839712587755
0.018609,0.019506,-0.180607,0.983186,-0.320322,0.022777,-0.025646,-0.000601,-0.008329,0.011875,0.045079,-0.029546,-0.998546,0.045093164028359896
0.015854,0.020115,-0.180844,0.983178,-0.293529,0.009558,-0.037067,0.000935,-0.00971,0.011211,0.045288,-0.023899,-0.998688,0.04530294720554257
0.013363,0.020619,-0.181093,0.983159,-0.262037,-0.012025,-0.024807,0.001547,-0.000623,0.009484,0.045383,-0.018808,-0.998793,0.045398995828763396
0.011085,0.020892,-0.181202,0.983162,-0.238015,-0.020957,-0.007381,-0.000497,0.006797,0.006773,0.045097,-0.014224,-0.998881,0.04511298998078601
0.008949,0.020992,-0.181104,0.983199,-0.224231,-0.031001,0.019451,0.00126,0.010131,0.006059,0.044519,-0.009993,-0.998959,0.044534746032151594
0.006947,0.021039,-0.180737,0.983282,-0.208027,-0.027538,0.043079,0.001412,0.00507,0.001128,0.043886,-0.006057,-0.999018,0.04389979907489292
0.005111,0.021138,-0.180204,0.983389,-0.181976,-0.024787,0.051265,0.001762,-0.002822,-0.004647,0.043417,-0.002434,-0.999054,0.04342944953571937
0.003529,0.02124,-0.179682,0.983489,-0.142641,-0.016827,0.040465,0.003746,-0.009477,-0.005797,0.043047,0.000691,-0.999073,0.04306011386205929
0.002245,0.021421,-0.179385,0.983543,-0.117063,0.005937,0.018683,0.002223,-0.008088,-0.003649,0.042943,0.00327,-0.999072,0.042955596795575306
0.001206,0.021641,-0.179252,0.983564,-0.101186,-0.001048,-0.002435,-6.5e-05,-0.006588,0.000651,0.043002,0.005387,-0.99906,0.04301623782887791
0.000304,0.021769,-0.179305,0.983553,-0.094894,-0.011391,-0.007886,0.00223,-0.001215,0.008235,0.04293,0.007208,-0.999052,0.04294414633391422
-0.000521,0.021821,-0.179377,0.983538,-0.083902,-0.0102,-0.009353,0.004312,-0.005551,0.00538,0.042737,0.008854,-0.999047,0.04274967445756772
-0.001186,0.021781,-0.179485,0.983519,-0.064063,-0.013761,-0.014188,0.003827,-0.004946,-0.000841,0.042417,0.010152,-0.999048,0.04243104721073329
-0.001607,0.02176,-0.179635,0.983491,-0.038342,-0.012582,-0.01738,0.000438,-0.003792,0.003432,0.042224,0.010978,-0.999048,0.04223673829224243
-0.001913,0.021638,-0.179799,0.983464,-0.025523,-0.018992,-0.015533,0.001746,-0.0008,0.000497,0.041873,0.011543,-0.999056,0.04188472261997749
-0.002112,0.021483,-0.179882,0.983451,-0.016923,-0.021997,-0.008813,0.002686,-0.000909,0.000469,0.041494,0.011883,-0.999068,0.04150705137369112
-0.002268,0.021352,-0.179963,0.983439,-0.013229,-0.01636,-0.004259,0.000758,0.001125,-0.001262,0.04118,0.012146,-0.999078,0.041192114963498165
-0.002415,0.021249,-0.179991,0.983436,-0.020178,-0.015043,-0.006484,0.002278,4e-06,-0.001709,0.040924,0.012399,-0.999085,0.04093613888168946
-0.00265,0.021151,-0.18008,0.983421,-0.028437,-0.012331,-0.013264,0.001774,0.004981,-7.8e-05,0.040647,0.01283,-0.999091,0.04065745153634072
-0.003071,0.021077,-0.18021,0.983398,-0.045691,-0.014903,-0.013384,0.002366,0.006412,-0.001295,0.040348,0.013637,-0.999093,0.040358264432740695
-0.003642,0.021019,-0.180328,0.983375,-0.060486,-0.010356,-0.01577,0.002376,0.005097,-0.00396,0.040026,0.014744,-0.99909,0.04003630397703577
-0.004213,0.021085,-0.180446,0.98335,-0.053807,-0.007018,-0.017588,0.001394,0.001175,-1.4e-05,0.039948,0.015896,-0.999075,0.039958063808036445
-0.004719,0.021122,-0.180627,0.983314,-0.040279,-0.0043,-0.019791,-0.000496,0.002326,0.001818,0.039835,0.016911,-0.999063,0.03984490122124882
-0.005111,0.021143,-0.180765,0.983286,-0.033614,-0.010464,-0.009186,-0.00103,0.003927,0.001741,0.039731,0.017695,-0.999054,0.03974191266598982
-0.005474,0.021115,-0.180866,0.983266,-0.025897,-0.01318,-0.010231,-0.002246,0.003681,0.002246,0.039543,0.018403,-0.999048,0.03955351485596712
-0.005774,0.021066,-0.180935,0.983252,-0.028739,-0.009418,-0.008224,-0.003856,0.004198,0.00064,0.039336,0.018978,-0.999046,0.03934708791459623
-0.006122,0.021012,-0.181017,0.983236,-0.037934,-0.007674,-0.011,-0.002721,0.003116,-0.002571,0.039102,0.019646,-0.999042,0.03911310952270462
-0.006581,0.021036,-0.181145,0.983209,-0.045624,-0.000887,-0.013919,-0.00202,0.001445,-0.003841,0.038981,0.020561,-0.999028,0.038991217629516205
-0.007091,0.021156,-0.181345,0.983166,-0.051821,0.006992,-0.0235,-0.001948,0.00352,-0.006022,0.039029,0.021616,-0.999004,0.039037799520914726
-0.007598,0.021342,-0.181547,0.983121,-0.053195,0.007573,-0.015706,-0.002076,0.003602,0.00076,0.039206,0.02269,-0.998974,0.03921479853486199
-0.008108,0.02143,-0.181692,0.983089,-0.045731,0.000791,-0.012684,-0.000393,0.002327,0.000533,0.03919,0.023728,-0.99895,0.03919891484439889
-0.008545,0.021409,-0.181787,0.983068,-0.037705,-0.016314,-0.007814,0.00112,0.001091,0.001506,0.038986,0.024585,-0.998937,0.038996148613840126
-0.008911,0.021444,-0.18182,0.983058,-0.036951,-0.007255,-0.006041,0.002209,0.003622,0.00016,0.03892,0.025317,-0.998922,0.03893082870728035
-0.009276,0.021479,-0.181853,0.983047,-0.036197,0.001804,-0.004268,0.003299,0.006154,-0.001187,0.038855,0.02605,-0.998905,0.038865780207743984
-0.009712,0.021535,-0.181851,0.983042,-0.05197,-0.000103,0.011496,0.003495,0.010453,6e-06,0.038807,0.026926,-0.998884,0.03881709243177497
-0.010298,0.021702,-0.181642,0.983071,-0.067865,0.008042,0.022705,0.002172,0.005123,-0.002711,0.038927,0.028132,-0.998846,0.03893795369493565
-0.010868,0.021792,-0.181452,0.983098,-0.048455,-0.01151,0.016923,0.002648,-0.000155,0.002509,0.038903,0.029277,-0.998814,0.03891312239314689
-0.01135,0.02177,-0.181349,0.983112,-0.039532,-0.008659,0.006953,0.002112,0.002936,-0.000522,0.038688,0.030212,-0.998794,0.03869773185895942
-0.011749,0.021742,-0.181215,0.983133,-0.032858,-0.017462,0.011924,-5.6e-05,0.003288,0.003688,0.038492,0.030981,-0.998779,0.03850187709235589
-0.012086,0.021616,-0.181058,0.983161,-0.026292,-0.0244,0.01503,-0.001348,0.002443,0.001944,0.038128,0.031593,-0.998773,0.03813672610896211
-0.012369,0.021411,-0.180881,0.983194,-0.021503,-0.029097,0.017576,-0.002587,0.002953,0.000234,0.037629,0.032067,-0.998777,0.037636584109115544
-0.012648,0.021197,-0.180703,0.983228,-0.024746,-0.025154,0.014849,-0.003073,0.006102,-0.004969,0.037112,0.032532,-0.998781,0.03712042902562132
-0.01302,0.021081,-0.180525,0.983258,-0.040122,-0.009062,0.017023,-0.001036,0.005804,-0.006054,0.036754,0.033215,-0.998772,0.03676353357403007
-0.013489,0.0211,-0.180342,0.983285,-0.051528,0.000193,0.011808,-0.00313,0.003381,-0.00519,0.036629,0.034138,-0.998746,0.03663755647029884
-0.014009,0.021164,-0.180234,0.983296,-0.049491,1.3e-05,0.004274,-0.002007,-0.001117,-0.005326,0.036571,0.035178,-0.998712,0.03657931379888955
-0.014498,0.021298,-0.180226,0.983288,-0.044789,0.01197,-0.00374,-0.00076,-0.000254,-0.006505,0.036659,0.036188,-0.998672,0.03666651794913968
-0.014922,0.021551,-0.180264,0.983269,-0.042487,0.022314,-0.005087,-0.001738,0.001439,-0.004556,0.037001,0.037114,-0.998626,0.03700950972115354
-0.015307,0.021849,-0.180315,0.983247,-0.040612,0.022737,-0.006826,-0.00046,0.002424,-0.0012,0.037445,0.037981,-0.998577,0.037454520505274674
-0.015658,0.022118,-0.180374,0.983225,-0.039128,0.024979,-0.006987,-4e-06,0.001857,-0.000588,0.037846,0.03877,-0.998531,0.037854388872717526
-0.015975,0.022415,-0.180419,0.983205,-0.035562,0.022168,-0.006435,6.6e-05,0.001999,0.001449,0.038313,0.039501,-0.998485,0.038322072257222214
-0.016264,0.022626,-0.180488,0.983182,-0.030969,0.016867,-0.005533,0.000148,0.001682,0.001407,0.038621,0.040149,-0.998447,0.03862964499441224
-0.016546,0.022849,-0.180528,0.983165,-0.030469,0.015596,-0.00471,0.001123,0.001215,0.001545,0.038955,0.040785,-0.998408,0.03896450037267476
-0.016845,0.023021,-0.180601,0.983143,-0.034061,0.011043,-0.00828,0.000889,0.001969,0.001454,0.039182,0.041438,-0.998372,0.03919145436250321
-0.017197,0.023184,-0.180697,0.983115,-0.04111,0.011331,-0.01168,0.002198,0.002238,-0.000876,0.039371,0.042192,-0.998334,0.03938036150803273
-0.01764,0.023363,-0.180837,0.983077,-0.051141,0.01218,-0.017259,0.002896,0.002723,-0.001663,0.039554,0.043133,-0.998286,0.03956564867920616
-0.018167,0.02357,-0.181025,0.983028,-0.057024,0.0047,-0.023332,0.003267,0.0022,-0.000566,0.039762,0.044252,-0.998229,0.03977306288566781
-0.018737,0.023698,-0.181256,0.982972,-0.055555,0.001859,-0.024944,0.002447,0.001904,-0.000543,0.039796,0.045427,-0.998175,0.03980706579766014
-0.019262,0.023786,-0.181504,0.982914,-0.046386,-0.003839,-0.027093,0.001009,0.002855,0.001414,0.039766,0.0465,-0.998126,0.03977741346867661
-0.019678,0.02379,-0.181748,0.98286,-0.033717,-0.011606,-0.02302,-0.000782,0.006684,0.00275,0.039611,0.047329,-0.998094,0.03962197079068229
-0.020006,0.023706,-0.181915,0.982825,-0.026111,-0.019631,-0.012661,-0.001317,0.009182,0.002695,0.039319,0.047949,-0.998076,0.03932905399879879
-0.020298,0.023581,-0.181973,0.982811,-0.023119,-0.020281,-0.003571,-0.001644,0.009288,0.000905,0.038963,0.04848,-0.998064,0.03897382232992043
-0.020612,0.023451,-0.18194,0.982814,-0.025058,-0.017695,-0.002309,-0.001581,0.00834,-0.000698,0.038596,0.049049,-0.99805,0.0386052362642217
-0.020927,0.023322,-0.181907,0.982816,-0.026998,-0.01511,-0.001047,-0.001517,0.007393,-0.002301,0.038229,0.049619,-0.998036,0.038238251676581195
-0.021241,0.023193,-0.181874,0.982819,-0.028938,-0.012524,0.000215,-0.001454,0.006445,-0.003904,0.037862,0.050188,-0.998022,0.03787172324660805
-0.021627,0.023135,-0.181866,0.982813,-0.032591,-0.004311,-0.001398,-0.000531,0.005313,-0.004869,0.037608,0.050926,-0.997994,0.03761719664251273
-0.022012,0.023188,-0.181885,0.9828,-0.033498,0.003907,-0.005171,-0.002013,0.005029,-0.003091,0.037572,0.051702,-0.997956,0.037579872277828094
-0.022391,0.023301,-0.181936,0.982779,-0.037351,0.008229,-0.005336,-0.000955,0.005063,-0.002704,0.037653,0.052489,-0.997911,0.03766091106393559
-0.02279,0.023455,-0.181981,0.982758,-0.03661,0.010958,-0.006512,-0.001402,0.003492,-2.8e-05,0.037807,0.05333,-0.997861,0.03781549592273988
-0.023125,0.023607,-0.18206,0.982732,-0.030194,0.009484,-0.009665,-0.000669,0.001665,-1.3e-05,0.037979,0.054046,-0.997816,0.03798756935014859
-0.023407,0.023713,-0.182177,0.982701,-0.022078,0.004043,-0.011625,-0.000259,0.001154,0.000352,0.038076,0.054644,-0.99778,0.03808635070051246
-0.023592,0.023783,-0.182299,0.982672,-0.013094,0.005087,-0.009752,0.000586,0.001076,0.00025,0.03814,0.055038,-0.997756,0.03814943331166137
-0.023691,0.023875,-0.182376,0.982653,-0.004155,0.00785,-0.006053,0.001098,0.001003,-0.000515,0.038281,0.055269,-0.997737,0.03828969652500908
-0.023685,0.023944,-0.182428,0.982642,0.002138,0.009246,-0.003249,0.001734,-0.000697,1e-06,0.038415,0.055284,-0.997731,0.03842460037099169
-0.023615,0.024029,-0.182479,0.982632,0.007833,0.009775,-0.005183,0.001656,-0.004063,0.000684,0.038606,0.055179,-0.99773,0.03861444094216655
-0.023506,0.024102,-0.182571,0.982616,0.011294,0.009011,-0.012578,0.003229,-0.006576,-0.000546,0.038783,0.054995,-0.997733,0.03879272278191319
-0.023406,0.024179,-0.182732,0.982587,0.00803,0.005179,-0.013416,0.002607,-0.005977,-0.000197,0.038963,0.054834,-0.997735,0.03897175604890434
-0.023306,0.024257,-0.182893,0.982557,0.004766,0.001347,-0.014254,0.001985,-0.005378,0.000152,0.039143,0.054672,-0.997737,0.03915276414811647
-0.023269,0.024248,-0.18306,0.982527,-0.00145,-0.01125,-0.014829,0.002066,-0.005222,0.001122,0.03913,0.054603,-0.997741,0.03913937522073129
-0.023303,0.024149,-0.183195,0.982504,-0.011056,-0.007996,-0.009897,0.003085,-0.005857,-0.002322,0.038915,0.054638,-0.997748,0.03892482071367191
-0.023413,0.0241,-0.183271,0.982488,-0.016962,-0.010648,-0.007586,0.00254,-0.005428,-0.003017,0.038773,0.054839,-0.997742,0.038783796009460754
-0.023619,0.024062,-0.183312,0.982476,-0.030021,-0.007687,-0.003077,0.003703,-0.002598,-0.003256,0.03862,0.055233,-0.997726,0.03863099056628682
-0.023971,0.024062,-0.183278,0.982474,-0.050399,-0.003102,0.004147,0.00457,0.00095,-0.004175,0.038494,0.055922,-0.997693,0.03850337780258415
-0.02449,0.024169,-0.183178,0.982477,-0.062464,-0.002444,0.006458,0.001815,-0.001012,0.000322,0.038518,0.056976,-0.997632,0.03852844628052243
-0.025074,0.024212,-0.183131,0.98247,-0.06505,-0.010152,0.00017,0.000793,-6.5e-05,0.001245,0.038392,0.058137,-0.99757,0.038400911051873446
-0.025701,0.024233,-0.183098,0.98246,-0.066313,-0.016066,-0.000403,0.000734,0.002185,0.002773,0.038204,0.059374,-0.997504,0.038213602707971805
-0.026362,0.024213,-0.18306,0.98245,-0.064736,-0.014851,0.000967,0.000697,0.002455,0.002019,0.037925,0.060663,-0.997438,0.03793356505659488
-0.026966,0.024182,-0.183036,0.982439,-0.058414,-0.016147,-0.001957,0.00032,0.004262,0.003786,0.037643,0.061837,-0.997376,0.03765207804001045
-0.027554,0.024088,-0.183028,0.982426,-0.059439,-0.020917,-0.001452,-0.000226,0.007969,0.002521,0.037242,0.062958,-0.997321,0.0372516629585337
-0.028228,0.023976,-0.183009,0.982413,-0.071291,-0.023252,-0.000696,0.000754,0.00967,-0.002022,0.036777,0.064239,-0.997257,0.03678500736840458
-0.029023,0.023945,-0.182988,0.982395,-0.083559,-0.011057,-0.000542,0.002225,0.009327,-0.002395,0.036425,0.065788,-0.997169,0.03643323469517039
-0.029887,0.024011,-0.182986,0.982368,-0.087666,-0.006734,-0.005465,-0.000257,0.006287,-0.002908,0.036237,0.067507,-0.997061,0.03624540652064833
-0.03076,0.024094,-0.183047,0.982327,-0.081611,-0.008175,-0.014673,0.000582,0.004227,-0.002807,0.036074,0.069254,-0.996947,0.0360831515330292
-0.031572,0.02416,-0.183216,0.982268,-0.072221,-0.006303,-0.019529,0.001708,0.00659,-0.00395,0.035894,0.070878,-0.996839,0.03590191077016655
-0.032201,0.024289,-0.183341,0.982222,-0.0583,-0.007414,-0.016223,-0.000224,0.006505,-0.001147,0.035907,0.072164,-0.996746,0.03591457351097021
-0.03283,0.024419,-0.183465,0.982174,-0.04438,-0.008524,-0.012917,-0.002156,0.006421,0.001654,0.035921,0.073449,-0.996652,0.03592883138693969
-0.03326,0.024426,-0.183562,0.982142,-0.027809,-0.010856,-0.008224,-0.001598,0.008283,0.001534,0.035769,0.0743,-0.996594,0.035776688445447166
-0.033527,0.024394,-0.18361,0.982124,-0.013815,-0.007717,-0.002251,-9.4e-05,0.007128,0.000244,0.035603,0.074814,-0.996562,0.03561160732179013
-0.033663,0.02435,-0.18362,0.982119,-0.000266,-0.005501,0.0,-0.000649,0.00622,-0.000514,0.035466,0.075065,-0.996548,0.03547423496762108
-0.033667,0.024273,-0.18363,0.982119,0.008995,-0.006327,-0.000706,-0.000139,0.004756,-0.000689,0.035312,0.075045,-0.996555,0.03532075019464452
-0.033622,0.024178,-0.183681,0.982113,0.014007,-0.006169,-0.004763,-0.000117,0.004564,-0.001974,0.035139,0.074923,-0.99657,0.03514684677195021
-0.033539,0.024104,-0.183762,0.982103,0.013091,-0.002636,-0.008028,7e-05,0.004817,-0.002929,0.035019,0.074737,-0.996588,0.03502599531599579
-0.033468,0.024037,-0.183865,0.982087,0.011317,-0.001388,-0.008925,0.00045,0.00323,-0.001692,0.034905,0.074577,-0.996604,0.03491275489455868
-0.033406,0.024001,-0.183957,0.982073,0.00802,-0.001596,-0.009674,2e-06,0.00272,-0.000469,0.034851,0.074445,-0.996616,0.03485799183890549
-0.033364,0.02397,-0.184063,0.982056,0.007486,-0.004419,-0.007414,-0.000283,0.001712,0.002423,0.034797,0.074354,-0.996625,0.03480463518948356
-0.033331,0.023885,-0.184144,0.982044,0.008005,-0.007547,-0.007736,-0.000484,8e-05,0.001837,0.034637,0.074262,-0.996637,0.03464376398821796
-0.033289,0.02375,-0.184193,0.982039,0.011278,-0.013999,-0.001741,-0.000574,-0.000652,0.001574,0.034384,0.074131,-0.996656,0.03439042948136249
-0.03322,0.023589,-0.184199,0.982044,0.010356,-0.016897,0.001349,-0.000319,-0.000672,0.000323,0.034093,0.073936,-0.99668,0.03409929811658393
-0.033153,0.023386,-0.184172,0.982056,0.009667,-0.014867,0.004074,-0.000839,-0.001277,-0.001079,0.033722,0.07373,-0.996708,0.033727408604985604
-0.033119,0.023191,-0.184118,0.982072,0.005635,-0.017579,0.006452,-0.001696,-0.001339,-0.001033,0.033355,0.073591,-0.996731,0.03336104332239129
-0.033135,0.022988,-0.184037,0.982092,-0.001745,-0.018544,0.006641,-0.002597,-0.002003,-0.00262,0.032957,0.073544,-0.996747,0.03296249858140265
-0.033228,0.022811,-0.183962,0.982107,-0.009994,-0.016498,0.006618,-0.002306,-0.002121,-0.003616,0.032581,0.07366,-0.996751,0.0325860735080612
-0.033395,0.022685,-0.183885,0.982118,-0.015862,-0.012409,0.005326,-0.00191,-0.003076,-0.003971,0.032277,0.073938,-0.99674,0.032282621535139645
-0.033583,0.022595,-0.183852,0.98212,-0.01918,-0.007909,0.000591,-0.001031,-0.002511,-0.002894,0.032034,0.074273,-0.996723,0.032038880350953494
-0.033801,0.022562,-0.183868,0.98211,-0.020345,-0.00357,-0.005491,-0.00103,-0.001318,-0.00174,0.031886,0.07469,-0.996697,0.031892293201917145
-0.033982,0.022494,-0.183931,0.982094,-0.018354,-0.004191,-0.003368,-0.000757,-0.000968,-0.001279,0.031681,0.075021,-0.996679,0.03168706079204009
-0.034162,0.022426,-0.183994,0.982077,-0.016364,-0.004812,-0.001245,-0.000484,-0.000619,-0.000818,0.031476,0.075351,-0.99666,0.0314821117330145
-0.034342,0.022357,-0.184057,0.982061,-0.014373,-0.005433,0.000879,-0.000211,-0.00027,-0.000357,0.031271,0.075682,-0.996642,0.031275202895699725
-0.034465,0.022294,-0.184081,0.982054,-0.005975,-0.005746,-0.000985,0.000876,-0.000851,-0.000365,0.031099,0.075901,-0.99663,0.031104135551467838
-0.034479,0.022227,-0.184095,0.982052,0.005484,-0.004365,-0.00305,0.001081,-0.000191,-0.000456,0.030961,0.075904,-0.996634,0.03096626533551786
-0.034394,0.022133,-0.184153,0.982046,0.014227,-0.00749,-0.005563,0.000856,0.002259,0.002122,0.030803,0.075705,-0.996654,0.030808605208799907
-0.034249,0.02197,-0.184231,0.98204,0.020253,-0.013718,-0.00845,0.002214,0.005321,-0.001397,0.030532,0.075362,-0.996689,0.030536127935504122
-0.034065,0.021838,-0.184309,0.982035,0.015952,-0.00667,-0.005684,0.001482,0.008325,0.001165,0.030335,0.074956,-0.996725,0.030339042575703006
-0.033948,0.021704,-0.184345,0.982035,0.01048,-0.014847,-0.005279,0.00174,0.009019,0.001196,0.030113,0.074678,-0.996753,0.030116439554979408
-0.033892,0.021529,-0.184373,0.982036,0.006184,-0.015244,-0.001569,0.003179,0.005557,6e-06,0.029788,0.074504,-0.996776,0.02979137322976495
-0.033875,0.02141,-0.184362,0.982041,0.009288,-0.007921,-0.000384,0.003442,0.00086,-0.0012,0.02956,0.074428,-0.996788,0.029564776908928808
-0.033786,0.021316,-0.184365,0.982046,0.01984,-0.007015,-0.002349,0.00349,-0.001552,-0.002109,0.029408,0.074218,-0.996808,0.029412914056206184
-0.033633,0.021226,-0.18442,0.982042,0.021851,-0.003286,-0.002942,0.002732,0.002262,-0.002459,0.029285,0.073887,-0.996837,0.02928863850225828
-0.033495,0.021189,-0.184439,0.982044,0.013531,-0.001142,0.002593,0.001883,0.004068,-0.002698,0.029261,0.073604,-0.996858,0.02926566941696515
-0.033416,0.021199,-0.184394,0.982055,0.006872,-0.002537,0.004593,0.001128,0.00371,0.000815,0.029314,0.073451,-0.996868,0.029317947903100914
-0.033426,0.021162,-0.184344,0.982065,0.00294,-0.004335,0.005901,0.000464,0.002969,0.000959,0.029242,0.073455,-0.99687,0.029245322660353602
-0.033436,0.021125,-0.184293,0.982075,-0.000992,-0.006133,0.00721,-0.0002,0.002228,0.001104,0.02917,0.07346,-0.996872,0.02917276499258934
-0.033481,0.021024,-0.184257,0.982083,-0.000148,-0.011933,0.004361,-0.000547,0.001515,0.00077,0.028957,0.073509,-0.996874,0.028960456808323373
-0.03351,0.020899,-0.184219,0.982092,0.003712,-0.011343,0.002732,-0.001444,0.001887,-0.000733,0.028703,0.07352,-0.996881,0.028707066768500343
-0.033497,0.020774,-0.184194,0.982099,0.003663,-0.011381,0.004234,-0.001846,0.003739,-0.001456,0.028465,0.073448,-0.996893,0.028468201547941614
-0.033493,0.020663,-0.18415,0.98211,0.004018,-0.010676,0.004076,-0.001529,0.004362,-0.004927,0.028252,0.073397,-0.996903,0.028254965335876563
-0.03349,0.020595,-0.184098,0.982121,0.005269,-0.003129,0.00463,-0.002069,0.002299,0.000136,0.028124,0.073365,-0.996909,0.028126388238145106
-0.033427,0.020506,-0.184082,0.982128,0.01139,-0.006915,0.00118,-0.003371,0.000948,0.000487,0.027972,0.073208,-0.996924,0.0279760646572255
-0.033315,0.020356,-0.184105,0.982131,0.019705,-0.008713,-0.005898,-0.00125,0.00162,-0.001875,0.027717,0.072935,-0.996951,0.027721151428587745
-0.033165,0.02025,-0.184158,0.982128,0.016246,-0.002053,-0.003745,-0.000612,0.004112,-0.004235,0.027561,0.072603,-0.99698,0.0275644743097794
-0.033053,0.020258,-0.18415,0.982133,0.013646,0.003656,0.002559,-0.002418,0.004132,-0.002209,0.027619,0.072386,-0.996994,0.027622193149726658
-0.03291,0.02022,-0.18411,0.982146,0.016502,-0.00126,0.003684,-0.004317,0.001108,-0.000573,0.027599,0.072091,-0.997016,0.02760336928590721
-0.032741,0.020135,-0.184036,0.982168,0.020977,-0.00611,0.008083,-0.002698,-9.3e-05,0.000472,0.0275,0.071725,-0.997045,0.02750432765932261
-0.032537,0.020047,-0.183949,0.982193,0.02771,-0.005459,0.008049,-0.001815,-0.001945,0.000593,0.027411,0.07129,-0.997079,0.027413182208379575
-0.032284,0.019932,-0.183871,0.982218,0.030534,-0.008638,0.008215,-0.001194,-0.001937,0.000644,0.027283,0.07075,-0.997121,0.027286341480218468
-0.032047,0.019773,-0.18381,0.98224,0.026664,-0.007924,0.006435,-0.000835,-0.001729,-0.000102,0.027063,0.070224,-0.997164,0.027065849339632343
-0.031809,0.019614,-0.183748,0.982263,0.022794,-0.00721,0.004655,-0.000476,-0.001522,-0.000849,0.026843,0.069698,-0.997207,0.026845757182862418
-0.031638,0.01949,-0.183683,0.982283,0.014079,-0.005403,0.005241,-0.000205,-0.001477,-0.001962,0.026666,0.069316,-0.997238,0.02666982733731655
-0.031534,0.019459,-0.183615,0.9823,0.005229,-0.002036,0.005367,-0.000151,-0.00101,-0.001203,0.02665,0.069098,-0.997254,0.026652075776729126
-0.031518,0.01946,-0.183561,0.98231,-0.005735,0.001795,0.002503,-0.000275,-0.002497,-0.003326,0.026661,0.069066,-0.997256,0.026663713335561175
-0.031592,0.019513,-0.183555,0.982308,-0.013777,0.006284,-0.001023,0.00091,-0.001784,-0.001567,0.026738,0.06923,-0.997242,0.026740999771169897
-0.03174,0.019598,-0.183588,0.982295,-0.020011,0.005626,-0.004454,0.000174,-0.001091,-0.000227,0.026848,0.069553,-0.997217,0.0268510949865927
-0.031942,0.019678,-0.183635,0.982278,-0.024805,0.001772,-0.006847,-0.000123,-0.00081,0.000315,0.026926,0.069979,-0.997185,0.026930449724131104
-0.032155,0.019709,-0.1837,0.982259,-0.022475,-0.000338,-0.004619,-4.9e-05,-0.000325,0.000127,0.026906,0.07041,-0.997155,0.02690818529166112
-0.03233,0.019729,-0.183718,0.982249,-0.017065,0.001682,-0.00234,4.8e-05,0.000283,0.00046,0.026878,0.07076,-0.997131,0.026881612581746237
-0.032462,0.019729,-0.183743,0.98224,-0.011278,-0.000465,0.000957,-0.000942,0.001307,0.000817,0.026828,0.071021,-0.997114,0.02683111459763974
-0.032558,0.01971,-0.183714,0.982243,-0.006439,-0.00392,0.004476,-0.000537,0.001451,-0.000587,0.026758,0.071202,-0.997103,0.02676049209313057
-0.032614,0.01968,-0.183631,0.982257,-0.002741,-0.003259,0.006893,0.000532,0.000767,-0.00055,0.026684,0.071299,-0.997098,0.02668692023976982
-0.032622,0.019639,-0.183577,0.982268,0.001395,-0.000366,0.004757,0.000958,0.000495,-0.000535,0.026605,0.071297,-0.9971,0.026607364060184584
-0.032595,0.019635,-0.183559,0.982272,0.001577,-5.5e-05,0.003912,0.001066,0.000635,-0.000345,0.026608,0.071242,-0.997104,0.026610750773081223
-0.032568,0.019631,-0.183541,0.982276,0.001758,0.000255,0.003068,0.001174,0.000774,-0.000155,0.026612,0.071187,-0.997108,0.02661413547757179
-0.032541,0.019627,-0.183523,0.982281,0.001939,0.000566,0.002224,0.001282,0.000914,3.4e-05,0.026615,0.071133,-0.997112,0.026617557441565503
-0.032489,0.019654,-0.183496,0.982287,0.004764,0.001539,0.002272,0.001128,0.000592,0.000523,0.026689,0.071039,-0.997116,0.026691703599308534
-0.032427,0.019694,-0.183466,0.982294,0.004762,0.002293,0.002101,0.000835,0.000988,-0.000624,0.026792,0.070931,-0.997121,0.026795298443432168
-0.032365,0.01972,-0.183469,0.982295,0.00418,0.00455,0.001847,0.001635,0.000394,-0.000469,0.026867,0.07082,-0.997127,0.02686899929484485
-0.032307,0.019774,-0.183461,0.982297,0.003487,0.006482,-0.000931,0.001717,0.000683,-0.001748,0.026994,0.070725,-0.997131,0.02699701199348615
-0.032255,0.019893,-0.183461,0.982296,0.002705,0.007406,0.001306,-0.000991,0.001707,0.000697,0.027246,0.070667,-0.997128,0.027249931866847907
-0.032213,0.019918,-0.183463,0.982297,0.003009,0.000454,-0.000779,-0.001922,0.002065,0.00082,0.02731,0.070594,-0.997131,0.027314392362872315
-0.032192,0.019873,-0.183452,0.9823,0.003132,-0.00672,0.004622,-0.000187,0.000615,0.000414,0.027231,0.070536,-0.997137,0.027234488822767022
-0.032157,0.019829,-0.18338,0.982316,0.00805,0.001355,0.006928,0.000362,-0.003472,-0.00216,0.027163,0.070448,-0.997146,0.027166127911671233
-0.032031,0.019856,-0.183338,0.982327,0.016878,0.003971,0.003759,-0.00014,-0.003033,-0.00251,0.027266,0.070211,-0.997159,0.027268550105712032
-0.031871,0.019911,-0.183308,0.982337,0.010285,0.014585,0.004818,0.001326,0.000616,-0.005575,0.027434,0.069916,-0.997176,0.02743764797080661
-0.031831,0.020138,-0.183247,0.982345,-0.007675,0.02382,0.007772,0.001036,0.000959,-0.00382,0.027899,0.069918,-0.997163,0.027902677213643038
-0.031897,0.020392,-0.183216,0.982343,-0.016131,0.018021,-0.000355,0.000492,-0.001012,-0.000948,0.028376,0.070139,-0.997134,0.02837960475283744
-0.032038,0.020563,-0.183265,0.982326,-0.023048,0.015224,-0.005738,0.001883,-0.000953,-7.4e-05,0.028656,0.070481,-0.997101,0.028660174379459984
-0.032264,0.020679,-0.183333,0.982304,-0.022565,0.007722,-0.004739,0.000739,0.000108,0.001461,0.028797,0.070968,-0.997063,0.028799998154124814
-0.032489,0.020796,-0.183401,0.982281,-0.022082,0.000221,-0.003739,-0.000405,0.001169,0.002996,0.028938,0.071454,-0.997024,0.0289420415152446
-0.032683,0.020813,-0.183406,0.982273,-0.020356,-0.006773,0.002298,-0.000142,0.001341,0.00283,0.0289,0.071843,-0.996997,0.02890360356712105
-0.032889,0.020752,-0.183348,0.982279,-0.020885,-0.009946,0.010527,0.000691,0.002523,0.000648,0.028708,0.072222,-0.996975,0.028712187714806686
-0.033131,0.020707,-0.183215,0.982296,-0.026048,-0.010399,0.013714,0.000899,0.003463,-0.002399,0.02854,0.072676,-0.996947,0.02854449034044608
-0.033417,0.020665,-0.183083,0.982312,-0.020301,-0.010577,0.011219,-0.000238,0.001835,-0.002121,0.028363,0.073218,-0.996913,0.02836658984447569
-0.033703,0.020623,-0.18295,0.982328,-0.014555,-0.010754,0.008724,-0.001375,0.000207,-0.001843,0.028186,0.07376,-0.996878,0.028188906058241356
-0.033821,0.020519,-0.182876,0.98234,0.002299,-0.008421,0.002913,0.000524,0.00019,-0.002726,0.027942,0.073953,-0.99687,0.02794680824102317
-0.033769,0.020491,-0.18282,0.982353,0.011302,-0.000233,0.006934,0.000884,0.004869,-0.003344,0.027911,0.073838,-0.99688,0.027915118838760508
-0.033637,0.020536,-0.182724,0.982374,0.015183,0.009966,0.011675,-0.00141,0.005132,8.5e-05,0.028055,0.073593,-0.996894,0.028059172318330192
-0.033434,0.020523,-0.182617,0.982401,0.023379,-0.003159,0.010034,-0.002167,0.003822,0.001886,0.028112,0.073187,-0.996922,0.02811610211125573
-0.033193,0.02044,-0.18252,0.982429,0.027378,-0.00559,0.008568,-0.000116,0.003021,-0.000162,0.028045,0.072681,-0.996961,0.02804860240723406
-0.032935,0.020373,-0.182426,0.982457,0.031118,-0.003564,0.008227,0.000305,0.002375,0.000373,0.028014,0.072148,-0.997,0.028018458065108647
-0.032689,0.0203,-0.182355,0.982479,0.028879,-0.002529,0.006646,-0.00013,0.001415,-0.001256,0.027966,0.071637,-0.997039,0.027970289099689922
-0.032448,0.020225,-0.182294,0.9825,0.029481,-0.002622,0.004533,1.3e-05,3.7e-05,-0.001757,0.027912,0.071135,-0.997076,0.027915599115880478
-0.032178,0.020176,-0.182264,0.982516,0.029361,-0.000691,0.001831,0.000621,0.001197,-0.001938,0.027917,0.070585,-0.997115,0.027920331031818568
-0.031929,0.020133,-0.182253,0.982527,0.025073,0.00236,-0.000815,0.000637,0.001226,-0.001571,0.027924,0.070081,-0.99715,0.027927750384258276
-0.031686,0.020134,-0.182251,0.982535,0.021666,0.003155,0.000629,0.000376,0.001323,0.000301,0.028014,0.069604,-0.997181,0.02801877489546322
-0.031507,0.02016,-0.182234,0.982544,0.013567,0.006664,0.000833,0.000342,0.000875,-0.000326,0.028134,0.069261,-0.997202,0.028136593129856387
-0.031385,0.020216,-0.182257,0.982542,0.010198,0.005289,-0.001714,-0.000424,-0.000436,0.001626,0.028286,0.069043,-0.997213,0.028289639486879892
-0.031295,0.020256,-0.182306,0.982535,0.006906,0.005488,-0.004779,0.000361,-0.000794,0.000246,0.028395,0.068883,-0.997221,0.028397742032916007
-0.03121,0.020299,-0.182391,0.982521,0.008753,0.005486,-0.008107,-0.000163,-0.002054,-0.001665,0.028503,0.068734,-0.997228,0.02850740237567952
-0.031087,0.020354,-0.182503,0.982503,0.013994,0.00958,-0.012401,-4.4e-05,-0.003544,-0.002251,0.028649,0.068516,-0.997239,0.0286527109812293
-0.030897,0.020419,-0.182656,0.982479,0.022592,0.010677,-0.014688,-0.000886,-0.001908,-0.000902,0.028835,0.06817,-0.997257,0.02883943005858916
-0.030621,0.020486,-0.182778,0.982464,0.025878,0.010048,-0.010903,-0.001568,-0.000727,-0.000961,0.02906,0.067657,-0.997285,0.029063916328615137
-0.030314,0.020531,-0.182853,0.982458,0.026946,0.012674,-0.003385,-0.001737,0.000138,-0.000541,0.029255,0.067073,-0.997319,0.029259853617081326
-0.029981,0.020612,-0.182862,0.982465,0.029223,0.015798,0.000365,-0.003485,-0.001348,-0.001921,0.029537,0.066448,-0.997353,0.029540662175233733
-0.029644,0.020764,-0.18286,0.982473,0.028735,0.024889,0.001092,-0.003064,-0.003163,-0.003092,0.029959,0.065842,-0.99738,0.029963218331276797
-0.029307,0.020965,-0.182891,0.982473,0.029179,0.030729,-0.005056,-0.002321,-0.004,-0.003403,0.030474,0.065254,-0.997403,0.03047983899642767
-0.028971,0.021206,-0.182971,0.982463,0.024518,0.038177,-0.00822,-0.00107,-0.001778,-0.004396,0.031066,0.064686,-0.997422,0.031071514441353264
-0.028681,0.02158,-0.183099,0.982439,0.023064,0.040486,-0.009551,-0.000647,-0.001075,-0.002658,0.0319,0.064257,-0.997423,0.03190455473750246
-0.028391,0.021955,-0.183227,0.982415,0.02161,0.042795,-0.010882,-0.000224,-0.000372,-0.000921,0.032735,0.063828,-0.997424,0.03273969570192339
-0.028085,0.02233,-0.183365,0.98239,0.021456,0.041571,-0.009357,0.000846,-0.000439,0.001671,0.033574,0.063371,-0.997425,0.033580236020373536
-0.027807,0.022677,-0.183479,0.982369,0.021307,0.036406,-0.009526,0.002514,6.3e-05,-1.2e-05,0.034351,0.062955,-0.997425,0.03435712137959738
-0.027523,0.023007,-0.183598,0.982347,0.018321,0.0423,-0.009498,0.003691,3.5e-05,-0.000489,0.035096,0.062523,-0.997426,0.03510258775856836
-0.027278,0.023319,-0.183703,0.982326,0.017029,0.031953,-0.007991,0.001977,-0.000709,0.002281,0.035792,0.06216,-0.997424,0.03579926527787427
-0.02706,0.023555,-0.183815,0.982306,0.018025,0.019293,-0.009567,0.001528,-0.001009,0.00233,0.036329,0.061823,-0.997426,0.03633636333845906
-0.026876,0.023722,-0.183888,0.982293,0.014211,0.018275,-0.003513,0.002998,-0.001649,-0.00015,0.036719,0.061524,-0.99743,0.03672781798434855
-0.026666,0.023911,-0.183939,0.982285,0.018559,0.021829,-0.002635,0.003953,-0.002981,-0.001793,0.037165,0.061183,-0.997434,0.03717355945673167
-0.026413,0.024112,-0.183973,0.982281,0.020913,0.026597,-0.000525,0.005133,-0.001785,-0.004156,0.03765,0.060762,-0.997442,0.037659862560474766
-0.026196,0.024397,-0.18397,0.98228,0.010822,0.0357,0.005577,0.004404,0.000442,-0.002894,0.038292,0.060441,-0.997437,0.03830017717101516
-0.02606,0.024758,-0.183911,0.982285,0.004798,0.029952,0.005802,0.003692,-0.001078,-0.0001,0.039053,0.060303,-0.997416,0.03906331671261391
-0.025972,0.025012,-0.183883,0.982287,0.001134,0.019848,-0.000495,0.004064,-0.001791,0.000939,0.039586,0.060222,-0.9974,0.039596652756576894
-0.02593,0.02519,-0.1839,0.98228,-0.00318,0.01266,-8.1e-05,0.005012,-0.001818,0.000936,0.039951,0.060207,-0.997386,0.03996084692572362
-0.025945,0.025332,-0.183916,0.982273,-0.001846,0.005446,-0.001144,0.003868,-0.002316,0.00447,0.040223,0.060289,-0.99737,0.0402333315764373
-0.025941,0.025275,-0.183881,0.982281,-0.000396,-0.005158,0.003212,0.002966,-0.001605,0.003349,0.040115,0.060258,-0.997376,0.04012495658583113
-0.025936,0.025218,-0.183846,0.982289,0.001055,-0.015762,0.007567,0.002064,-0.000893,0.002227,0.040007,0.060226,-0.997383,0.04001694766743589
-0.025963,0.025045,-0.183755,0.98231,-0.002937,-0.021691,0.014075,0.002621,3.9e-05,-0.001803,0.039662,0.060211,-0.997397,0.039672651876505136
-0.026032,0.024926,-0.18359,0.982342,-0.010276,-0.014787,0.019555,0.001795,-0.001279,-0.000382,0.039414,0.060297,-0.997402,0.03942349490826404
-0.026167,0.024786,-0.183396,0.982378,-0.014249,-0.015914,0.015629,-0.000233,-0.003575,-0.001506,0.0391,0.060504,-0.997402,0.039110566013503996
-0.026323,0.024628,-0.183257,0.982404,-0.010379,-0.021926,0.00598,0.001495,-0.005615,-0.001915,0.038741,0.060745,-0.997401,0.038751241196875494
-0.026449,0.024482,-0.183231,0.982409,-0.014173,-0.014323,0.001584,0.001309,-0.002583,-0.00282,0.038409,0.060938,-0.997402,0.0384195717616892
-0.026612,0.024441,-0.183173,0.982417,-0.018194,-0.005015,0.005072,0.00086,7e-06,-0.001832,0.038273,0.061242,-0.997389,0.038282658291207174
-0.026775,0.024383,-0.183117,0.982424,-0.015478,-0.016185,0.004676,-0.001184,-5e-06,-0.000338,0.038104,0.061539,-0.997377,0.03811219934460512
-0.026924,0.024244,-0.183039,0.982438,-0.01691,-0.01605,0.008763,0.000242,-0.000209,-3e-06,0.03778,0.061778,-0.997375,0.03778916298188122
-0.027088,0.024121,-0.182911,0.98246,-0.01815,-0.012775,0.012651,0.000738,0.001202,-0.001392,0.037487,0.06205,-0.997369,0.037495234078319506
-0.027289,0.024044,-0.182778,0.982481,-0.021638,-0.012683,0.013467,0.001442,0.000975,-0.002195,0.03727,0.062411,-0.997354,0.03727852229798589
-0.027528,0.023961,-0.182641,0.982502,-0.024209,-0.009179,0.012372,0.001473,-0.001522,-0.001882,0.037029,0.062846,-0.997336,0.0370364445048111
-0.027799,0.023934,-0.182567,0.982509,-0.022183,-0.008009,0.003838,0.000635,-0.002529,-0.001422,0.036881,0.063365,-0.997309,0.03688874641913004
-0.028049,0.023909,-0.182542,0.982507,-0.024707,-0.004585,0.000504,0.001819,-0.000834,-0.001635,0.036742,0.063845,-0.997283,0.0367495499428474
-0.028309,0.023917,-0.182558,0.982496,-0.026915,-0.004035,-0.001697,0.000791,0.000166,-0.000979,0.036661,0.06436,-0.997253,0.03666886179263477
-0.02858,0.023927,-0.182559,0.982488,-0.027161,-0.003008,-0.003324,0.000391,5e-06,-0.001244,0.036582,0.064895,-0.997221,0.03658907176420712
-0.028795,0.023943,-0.182587,0.982476,-0.022192,-0.004372,-0.002973,0.000357,0.001427,0.001027,0.036531,0.065324,-0.997195,0.03653979091867082
-0.028983,0.023918,-0.182572,0.982474,-0.019013,-0.007357,-0.000552,0.000412,0.001346,0.000318,0.036415,0.065684,-0.997176,0.036422710323036414
-0.029154,0.023865,-0.18253,0.982478,-0.011514,-0.007437,0.005999,0.000351,0.000844,-0.000373,0.036251,0.065998,-0.997161,0.03625865999661945
-0.029243,0.02383,-0.182421,0.982497,-0.005744,-0.00458,0.010346,0.003014,-0.000205,-0.001101,0.036157,0.066157,-0.997154,0.03616461505757187
-0.029292,0.023794,-0.182305,0.982518,-0.003973,-0.003703,0.01168,0.005434,-0.002074,-0.001,0.036075,0.066234,-0.997152,0.03608374034430819
-0.029332,0.023736,-0.182227,0.982532,-0.0016,-0.006063,0.004707,0.005128,-0.004327,0.001876,0.035953,0.06629,-0.997152,0.03596034420624151
-0.029379,0.023634,-0.182241,0.982531,-0.001191,-0.016821,-0.00672,0.004584,-0.005879,0.003701,0.035733,0.066345,-0.997157,0.035741768007050985
-0.029496,0.023379,-0.182321,0.982519,-0.0085,-0.027679,-0.00311,0.003094,-0.000295,0.00352,0.035185,0.066487,-0.997167,0.03519240685174166
-0.029614,0.023125,-0.182401,0.982506,-0.015808,-0.038537,0.0005,0.001604,0.00529,0.00334,0.034637,0.066628,-0.997177,0.03464458600146652
-0.029868,0.022785,-0.182324,0.982521,-0.025588,-0.044392,0.01527,-0.000139,0.006381,0.001153,0.033883,0.067001,-0.997177,0.0338886616571509
-0.030185,0.02245,-0.18205,0.982569,-0.031698,-0.044076,0.033844,0.000225,0.003857,-0.001681,0.033128,0.067492,-0.99717,0.03313305150628501
-0.030523,0.022128,-0.181649,0.982641,-0.031293,-0.040626,0.041518,0.000361,0.001045,-0.002417,0.032398,0.068025,-0.997157,0.03240448600320185
-0.030902,0.021875,-0.18126,0.982706,-0.028358,-0.031286,0.034926,0.00043,-0.001852,-0.002528,0.031791,0.068666,-0.997133,0.031796151815696255
-0.031244,0.021688,-0.181089,0.982731,-0.024428,-0.027772,0.017396,-0.000537,-0.00233,-0.001828,0.031312,0.069263,-0.997107,0.0313161688134839
-0.031585,0.021502,-0.180918,0.982756,-0.020497,-0.024258,-0.000134,-0.001504,-0.002807,-0.00113,0.030833,0.06986,-0.99708,0.030838736813667
-0.031826,0.02131,-0.180964,0.982744,-0.015298,-0.018376,-0.010834,-0.00125,0.001012,-0.005011,0.030366,0.070266,-0.997066,0.030370497327985645
-0.031986,0.021197,-0.181052,0.982725,-0.010292,-0.014737,-0.004557,-0.004928,0.00492,-0.000391,0.030079,0.070542,-0.997055,0.030083922771647363
-0.032057,0.021033,-0.181062,0.982724,-0.003929,-0.015326,9e-05,-0.004052,0.004369,-0.000664,0.029731,0.070623,-0.99706,0.029735040340397208
-0.032052,0.020863,-0.180985,0.982742,0.006931,-0.015401,0.009799,-0.003199,0.001413,-0.001011,0.029403,0.070549,-0.997075,0.029408269007407107
-0.03196,0.020715,-0.180874,0.982769,0.01802,-0.005589,0.011318,-0.002627,-0.001624,-0.002951,0.029156,0.070312,-0.997099,0.029158785383186153
-0.031763,0.020619,-0.180803,0.98279,0.024101,0.001466,0.002967,-0.000771,-0.002533,-0.004746,0.029042,0.069889,-0.997132,0.02904668696652189
-0.031591,0.02064,-0.18082,0.982792,0.013656,0.011713,0.000322,0.000383,-0.00091,-0.005254,0.029144,0.069558,-0.997152,0.029149212245102876
-0.0315,0.020769,-0.180857,0.982786,0.003275,0.018138,-0.002749,-0.001453,-0.001303,-0.003172,0.029429,0.069429,-0.997153,0.02943322342265397
-0.031438,0.02091,-0.180939,0.982769,0.004149,0.009249,-0.011568,-0.001502,-0.003147,9.2e-05,0.029722,0.06936,-0.997149,0.029727057112328696
-0.031404,0.020956,-0.181089,0.982742,7.2e-05,0.012405,-0.012963,-0.000115,-0.000973,-0.001943,0.029814,0.069314,-0.997149,0.029819263753219787
-0.031408,0.021123,-0.181199,0.982718,-0.005612,0.016899,-0.006135,-0.000266,-0.000718,-4.5e-05,0.030134,0.069386,-0.997135,0.030138270545761976
-0.031446,0.021239,-0.181282,0.982699,-0.003014,0.011478,-0.00631,-0.001479,-0.002898,0.002948,0.030342,0.069504,-0.99712,0.030346558123165494
-0.031425,0.021281,-0.181377,0.982681,8.7e-05,0.002847,-0.007668,-0.000944,-0.001146,0.003282,0.030426,0.069481,-0.997119,0.03043002035074295
-0.031538,0.021307,-0.181415,0.98267,-0.013124,0.007881,-0.00264,-0.000724,0.000933,0.000906,0.030433,0.069715,-0.997103,0.030437266274095154
-0.031652,0.021334,-0.181452,0.982659,-0.026335,0.012915,0.002388,-0.000504,0.003011,-0.001469,0.030441,0.069948,-0.997086,0.03044616035884181
-0.031892,0.021424,-0.181401,0.982658,-0.029188,0.000206,0.007634,-0.001472,0.001258,-0.000623,0.030535,0.070451,-0.997048,0.030539195403674828
-0.032156,0.021429,-0.181342,0.982661,-0.020615,-0.008471,0.006652,-0.000325,-0.000217,-0.001665,0.030452,0.070969,-0.997014,0.030457127073180344
-0.032365,0.021416,-0.181313,0.982659,-0.019523,0.002418,0.00349,0.001169,0.001664,-0.004441,0.030353,0.071373,-0.996988,0.030357522393174696
-0.032564,0.021523,-0.181237,0.982665,-0.021056,0.013414,0.011214,0.000755,0.003504,-0.00229,0.030495,0.0718,-0.996953,0.03050092323429031
-0.032714,0.021648,-0.181123,0.982678,-0.009989,0.0018,0.007517,-0.001816,-0.001085,0.002789,0.030695,0.072136,-0.996922,0.03070033338101175
-0.032764,0.021624,-0.181063,0.982688,-0.001217,-0.004291,0.002429,-0.000477,-0.000285,0.000733,0.030634,0.072224,-0.996918,0.030639388035423324
-0.032713,0.021596,-0.181039,0.982694,0.004859,0.000379,0.000321,0.00079,0.000159,-0.000197,0.0306,0.072113,-0.996927,0.03060463901848406
-0.032645,0.021585,-0.181037,0.982697,0.011527,-0.002247,-0.00133,0.000205,4.1e-05,-5.1e-05,0.030603,0.071975,-0.996937,0.030607902672968812
-0.032503,0.021518,-0.181062,0.982699,0.012555,-0.000534,-0.001988,0.000772,0.001392,-0.001528,0.030521,0.071673,-0.996961,0.030526058472755597
-0.032403,0.021506,-0.181103,0.982695,0.005965,0.006526,-0.003541,0.002278,0.001288,-0.001679,0.030532,0.071475,-0.996975,0.030535861571328544
-0.032338,0.021583,-0.181146,0.982687,0.003449,0.005366,-0.00496,0.00234,0.000286,-0.001719,0.030703,0.071376,-0.996977,0.030707694152372962
-0.032303,0.02167,-0.181216,0.982674,0.002153,0.003114,-0.005326,0.001276,-0.000155,-0.00032,0.030882,0.071341,-0.996974,0.03088636079271792
-0.032298,0.021747,-0.181319,0.982653,-0.00251,0.007255,-0.007365,0.002173,0.000433,-0.000866,0.031027,0.071362,-0.996968,0.031032007780485406
-0.032308,0.021811,-0.181402,0.982636,-0.003287,0.005984,-0.005608,0.001571,0.001945,0.001944,0.031144,0.071407,-0.996961,0.031148112390915167
-0.032324,0.021885,-0.181407,0.982633,-0.002678,0.001018,-0.00061,0.001734,0.002223,0.000604,0.031281,0.071466,-0.996952,0.03128735094676022
-0.032319,0.021885,-0.181395,0.982635,-0.00115,-0.000682,0.000873,0.00225,-0.000605,0.001013,0.031285,0.071456,-0.996953,0.031290029523792784
-0.032318,0.021885,-0.181392,0.982636,0.006032,-0.001175,-0.001928,0.00136,-0.002064,0.000996,0.031286,0.071453,-0.996953,0.03129063028586729
-0.032262,0.02182,-0.181469,0.982625,0.009791,-0.004148,-0.010623,0.001268,-0.000267,-0.000153,0.031174,0.071322,-0.996966,0.031177700040432195
-0.032136,0.021736,-0.18157,0.982612,0.013999,-0.002673,-0.009187,0.001287,0.001815,-0.002098,0.031046,0.071048,-0.99699,0.031051231407513924
-0.031993,0.021707,-0.181605,0.982611,0.016355,-0.003871,-0.00113,0.000397,0.000961,1e-05,0.031039,0.070757,-0.997011,0.031043882465789333
-0.031809,0.021648,-0.181612,0.982617,0.016463,-0.002907,0.006003,0.000587,0.001175,-0.001032,0.030989,0.070375,-0.997039,0.03099455572879236
-0.031635,0.021601,-0.181523,0.98264,0.016662,-0.001626,0.008759,-3.3e-05,-0.000769,-0.001286,0.030967,0.070015,-0.997065,0.030972004559506376
-0.031467,0.021508,-0.18141,0.982669,0.017993,-0.0073,0.008847,-0.000804,-0.004361,0.000849,0.030853,0.069647,-0.997094,0.030858530030911126
-0.031293,0.021413,-0.181322,0.982693,0.018949,-0.008857,0.004699,0.000689,-0.007443,0.00119,0.030737,0.069268,-0.997124,0.03074143345605329
-0.0311,0.021248,-0.181329,0.982701,0.026793,-0.013986,-0.003445,-0.000652,-0.007045,-0.000653,0.030482,0.06883,-0.997163,0.030486920366306375
-0.030841,0.021022,-0.181394,0.982702,0.030008,-0.017878,-0.009305,-0.000574,-0.003172,-0.000677,0.030128,0.068242,-0.997214,0.030132537878919504
-0.030586,0.020818,-0.181501,0.982694,0.023752,-0.014212,-0.00767,0.001404,0.000996,-0.001082,0.029813,0.06767,-0.997262,0.029817086205236907
-0.030344,0.02065,-0.181557,0.982695,0.019927,-0.012579,-0.001227,0.000996,0.002248,-0.000246,0.029566,0.067136,-0.997306,0.029571281916282728
-0.030171,0.020484,-0.181566,0.982702,0.015338,-0.007596,0.002696,0.001548,0.002325,-0.004265,0.029303,0.066736,-0.99734,0.0293074752862032
-0.030032,0.020418,-0.181517,0.982717,0.00718,0.00267,0.006374,-0.000284,0.000176,-0.002668,0.029228,0.066438,-0.997362,0.029231757214269426
-0.029968,0.020398,-0.181464,0.982729,0.006197,-0.006584,0.007918,-0.00204,-0.003253,-0.000196,0.029215,0.066304,-0.997372,0.029219343569196
-0.029955,0.020315,-0.181407,0.982742,0.006689,-0.013424,0.004264,-5.2e-05,-0.004254,0.000194,0.02906,0.066246,-0.99738,0.029064806062384246
-0.029928,0.020218,-0.181397,0.982747,0.004003,-0.003815,0.003552,0.000718,-0.004583,-0.001842,0.028881,0.066158,-0.997391,0.028884675224305465
-0.029856,0.020202,-0.18143,0.982743,0.010297,0.005116,-0.004621,-0.000255,-0.005978,-0.002949,0.028874,0.066012,-0.997401,0.02887721326447806
-0.029771,0.020255,-0.181474,0.982736,0.004795,0.013938,-0.010008,0.000794,-0.003857,-0.005855,0.029006,0.065866,-0.997407,0.029009379059304032
-0.029748,0.020397,-0.181529,0.982724,-0.015003,0.018635,-0.002119,-0.000591,0.000564,-0.003646,0.029289,0.065874,-0.997398,0.029293182659465667
-0.029887,0.020636,-0.181543,0.982712,-0.024407,0.013358,-0.001978,-0.000724,-0.001395,-0.00025,0.029706,0.066234,-0.997362,0.029711309524470493
-0.030051,0.020784,-0.181564,0.9827,-0.024332,0.011528,-0.005994,-0.000498,-0.001328,-5.5e-05,0.029937,0.066609,-0.99733,0.02994098736800685
-0.030252,0.020919,-0.18163,0.982679,-0.025336,0.009178,-0.004704,-0.00036,-0.000771,0.000525,0.030123,0.067055,-0.997294,0.030128540366487173
-0.030473,0.020989,-0.181673,0.982663,-0.023285,0.001021,-0.003701,0.000316,-0.000295,0.002388,0.030177,0.067515,-0.997262,0.030182567203484945
-0.030719,0.021003,-0.181695,0.982651,-0.024902,-0.004628,0.000824,-0.0001,-8e-06,0.001577,0.030114,0.068003,-0.997231,0.030118813967779035
-0.030961,0.020989,-0.181653,0.982651,-0.026407,-0.002913,0.002889,0.000467,0.000791,-0.00063,0.030001,0.068473,-0.997202,0.030005909068909643
-0.031203,0.020975,-0.181611,0.982651,-0.027913,-0.001198,0.004954,0.001033,0.001589,-0.002838,0.029889,0.068942,-0.997173,0.02989304522682632
-0.031481,0.021064,-0.181536,0.982655,-0.026004,-0.003908,0.005871,-0.00073,-0.001108,0.002138,0.029967,0.069518,-0.997131,0.029971907376604365
-0.03176,0.021038,-0.181517,0.98265,-0.020594,-0.00845,-0.001911,-0.001575,-0.002072,0.000304,0.029816,0.070056,-0.997097,0.02982044104461865
-0.031954,0.020985,-0.181562,0.982636,-0.018014,-0.0017,-0.006994,0.002246,-0.000678,-0.005692,0.029639,0.070418,-0.997077,0.029642309384025737
-0.032102,0.021075,-0.181638,0.982615,-0.018117,0.010359,-0.00303,0.001007,0.002601,-0.003982,0.029755,0.070744,-0.997051,0.0297597286450177
-0.032259,0.021266,-0.181627,0.982608,-0.018474,0.01286,-5.2e-05,-0.001825,0.002354,-5.9e-05,0.030074,0.071122,-0.997014,0.03007860793117555
-0.03236,0.021327,-0.181634,0.982602,-0.009083,-0.000355,-0.002965,-0.000263,0.001013,0.000538,0.030157,0.071342,-0.996996,0.030161125916790925
-0.03241,0.021397,-0.181679,0.982591,-0.005201,0.008139,-0.003769,0.002286,0.000595,-0.002946,0.030272,0.071467,-0.996984,0.0302771921545265
-0.032405,0.021525,-0.18172,0.98258,0.003743,0.012938,-0.00622,0.000436,0.000114,-0.000562,0.030523,0.071504,-0.996973,0.03052753716969012
-0.032353,0.021647,-0.181795,0.982566,0.00876,0.012756,-0.008395,8.3e-05,2.2e-05,-0.000106,0.030776,0.071448,-0.996969,0.03078084550936795
-0.032248,0.021677,-0.181896,0.98255,0.009252,0.006958,-0.007453,0.002027,0.000517,-0.000873,0.030867,0.071256,-0.99698,0.030870811400234354
-0.032138,0.021733,-0.181969,0.982539,0.005498,0.005963,-0.004454,0.001522,0.00268,-0.001824,0.031011,0.071062,-0.99699,0.031015773240387293
-0.032092,0.02184,-0.182001,0.982532,0.000694,0.009522,-0.00243,0.001521,0.003645,-0.001444,0.031235,0.071013,-0.996986,0.031240526966947697
-0.032123,0.021908,-0.182019,0.982526,-0.003989,0.005486,0.001027,0.001289,0.000922,-0.000692,0.031356,0.071098,-0.996976,0.03136150719359335
-0.032143,0.021982,-0.182005,0.982526,-0.001688,0.002508,-0.001186,0.000982,-8.4e-05,3e-06,0.031496,0.071165,-0.996967,0.031500608990175205
-0.032168,0.022035,-0.182033,0.982519,0.000759,0.002488,-0.002448,0.000927,-0.000266,0.000128,0.031588,0.071233,-0.996959,0.03159359286405724
-0.032164,0.022055,-0.18207,0.982512,0.002703,0.001982,-0.002418,0.001763,1.7e-05,0.00084,0.031626,0.071233,-0.996958,0.0316316800118375
-0.032083,0.022045,-0.182099,0.982509,0.008893,-0.001257,-0.002512,0.001063,-0.000249,0.000276,0.031634,0.071073,-0.996969,0.031639535958671375
-0.031946,0.022034,-0.182116,0.982511,0.016403,-0.001568,0.000756,0.000185,-4.3e-05,4.8e-05,0.031662,0.0708,-0.996988,0.03166683153157593
-0.031717,0.02198,-0.182105,0.982522,0.026542,-0.000951,0.001489,-0.000787,-0.002748,-0.00056,0.03164,0.070331,-0.997022,0.03164530001804156
-0.03141,0.021914,-0.182095,0.982535,0.033635,-0.005047,0.002646,-0.001429,-0.001245,0.000906,0.031622,0.069704,-0.997066,0.031628609195841983
