timestamp,quat_x,quat_y,quat_z,quat_w,rot_x,rot_y,rot_z,acc_x,acc_y,acc_z,grav_x,grav_y,grav_z,pitch_rad
1762015683.464339,0.238829,-0.630322,-0.0,0.738685,-0.162918,-0.208393,0.12648,0.863905,0.183883,-0.905381,-0.931218,-0.352839,-0.091311,1.197740581075447
1762015683.464616,0.12442,-0.158795,-0.055653,0.977858,-0.18274,-0.213086,0.148489,0.229151,0.098091,-0.068497,-0.29671,-0.261005,-0.918607,0.30124577420054727
1762015683.498174,0.104277,-0.08938,-0.061518,0.988612,-0.17554,-0.199237,0.149928,0.095211,0.057352,-0.016117,-0.163894,-0.217175,-0.962275,0.16463679614006332
1762015683.498763,0.083081,-0.024756,-0.065552,0.994076,-0.106174,-0.15213,0.133022,-0.034494,0.011037,0.025006,-0.038327,-0.168422,-0.984969,0.0383364115359777
1762015683.529219,0.082544,-0.025458,-0.064933,0.994144,-0.050123,-0.109233,0.0991,-0.0288,0.011954,0.03337,-0.039898,-0.167428,-0.985077,0.03990857925793076
1762015683.565669,0.079655,-0.037611,-0.063153,0.994109,0.07048,0.010681,0.000975,0.005542,0.0166,0.042314,-0.064718,-0.163123,-0.984481,0.06476325098913635
1762015683.565974,0.079583,-0.038218,-0.063179,0.99409,0.100676,0.063495,-0.047305,0.008931,0.020849,0.036883,-0.065928,-0.163054,-0.984412,0.06597584991093092
1762015683.595409,0.07997,-0.038426,-0.063562,0.994026,0.103121,0.093541,-0.086434,0.010835,0.024451,0.025589,-0.066228,-0.16387,-0.984256,0.06627653007477076
1762015683.63946,0.080792,-0.037695,-0.065138,0.993886,0.065996,0.140312,-0.158908,0.018665,0.026774,0.008639,-0.064403,-0.165508,-0.984103,0.06444762520409736
1762015683.639759,0.080741,-0.037009,-0.065859,0.993868,0.046166,0.146656,-0.171234,0.019883,0.022759,0.005054,-0.06293,-0.165366,-0.984223,0.06297157801015361
1762015683.64008,0.080689,-0.036324,-0.066579,0.99385,0.026336,0.152999,-0.183561,0.021102,0.018741,0.001466,-0.061457,-0.165222,-0.98434,0.061495737071135155
1762015683.675109,0.079086,-0.033714,-0.06904,0.993903,0.000965,0.130448,-0.157968,0.022785,-0.010189,-0.007721,-0.056096,-0.161863,-0.985218,0.05612543658866894
1762015683.706431,0.077206,-0.031363,-0.070933,0.993994,0.01441,0.07743,-0.094338,0.023883,-0.029658,-0.009757,-0.051397,-0.157934,-0.986111,0.051419663379663055
1762015683.706728,0.076815,-0.030434,-0.071432,0.994017,0.026307,0.057079,-0.064353,0.025189,-0.033108,-0.008852,-0.049529,-0.157059,-0.986346,0.049549295234861485
1762015683.743443,0.077567,-0.028777,-0.072018,0.993966,0.050824,0.030239,-0.014347,0.028991,-0.032266,-0.005902,-0.046035,-0.158342,-0.986311,0.04605125684210038
1762015683.743727,0.078555,-0.028126,-0.072115,0.9939,0.05868,0.023143,0.00157,0.026733,-0.032049,-0.006498,-0.044579,-0.160208,-0.986076,0.04459378360289165
1762015683.771724,0.079775,-0.027605,-0.072068,0.993821,0.067833,0.007991,0.01597,0.025214,-0.027094,-0.004071,-0.043371,-0.162544,-0.985748,0.04338459312492911
1762015683.807792,0.082685,-0.026469,-0.071737,0.993638,0.06789,0.000515,0.029379,0.023509,-0.012116,0.004073,-0.040738,-0.168116,-0.984925,0.040749279921183344
1762015683.808044,0.083557,-0.026014,-0.07162,0.993586,0.057344,-0.003833,0.02882,0.022088,-0.008849,0.002132,-0.039725,-0.169769,-0.984683,0.03973545163708109
1762015683.846936,0.085786,-0.024644,-0.071388,0.993447,0.027818,-0.001897,0.007181,0.015386,-0.006354,0.002309,-0.036716,-0.173967,-0.984067,0.03672424614123666
1762015683.846932,0.085337,-0.024967,-0.071417,0.993476,0.030917,-0.003118,0.01037,0.018154,-0.005056,0.002179,-0.03742,-0.173126,-0.984189,0.037428722412842126
1762015683.878998,0.086626,-0.023821,-0.071294,0.993401,0.014467,-0.006357,0.010708,0.009677,-0.004314,0.001298,-0.034976,-0.175506,-0.983857,0.034983130293712125
1762015683.879173,0.086806,-0.023567,-0.07126,0.993394,0.003203,-0.009178,0.00988,0.006556,-0.003015,0.001262,-0.034451,-0.175823,-0.983819,0.03445781116091186
1762015683.9367,0.086819,-0.023341,-0.071197,0.993403,-0.006483,-0.008395,0.010326,0.004939,-0.001521,0.003352,-0.034012,-0.175816,-0.983835,0.034018571413999416
1762015683.936954,0.086832,-0.023115,-0.071134,0.993411,-0.016169,-0.007611,0.010771,0.003321,-2.7e-05,0.005441,-0.033573,-0.175808,-0.983852,0.03357930415062712
1762015683.938476,0.086735,-0.022704,-0.070993,0.993439,-0.031357,-0.000551,0.00912,0.00207,0.006355,0.006337,-0.032795,-0.175555,-0.983923,0.03280088896366848
1762015683.966992,0.086563,-0.022539,-0.070963,0.99346,-0.03511,0.003451,0.004577,0.001218,0.008706,0.00588,-0.032498,-0.175193,-0.983998,0.03250371047951571
1762015683.998134,0.086099,-0.022171,-0.071062,0.993502,-0.032213,0.014986,-0.013093,0.001936,0.007903,0.004433,-0.031816,-0.174231,-0.984191,0.031821360185714596
1762015684.028585,0.085917,-0.022023,-0.0712,0.993511,-0.025007,0.015846,-0.017957,0.002633,0.006979,0.003442,-0.031525,-0.173854,-0.984267,0.03153021513248687
1762015684.028799,0.085734,-0.021875,-0.071338,0.99352,-0.0178,0.016706,-0.022821,0.003331,0.006055,0.00245,-0.031235,-0.173478,-0.984342,0.0312400903192388
1762015684.07198,0.085389,-0.021546,-0.07173,0.993529,-0.008332,0.013505,-0.02503,0.004193,0.001823,-0.001141,-0.030563,-0.172764,-0.984489,0.03056775879331282
1762015684.072329,0.085287,-0.021447,-0.071838,0.993532,-0.005792,0.011529,-0.01991,0.004063,0.001075,-0.000408,-0.030362,-0.172552,-0.984532,0.030366677399278102
1762015684.103048,0.085129,-0.021285,-0.072107,0.993529,-0.000626,0.000906,-0.011617,0.003271,-0.00094,-0.00101,-0.030019,-0.172225,-0.9846,0.030023514123937497
1762015684.103444,0.085087,-0.021252,-0.072168,0.993529,0.001006,-0.004339,-0.004201,0.003195,-0.000484,-0.000558,-0.029947,-0.172141,-0.984617,0.029951478248519358
1762015684.137787,0.085025,-0.021315,-0.072186,0.993532,0.00088,-0.012942,0.004829,0.001789,0.00085,-7.4e-05,-0.03008,-0.172027,-0.984633,0.030084534335515667
1762015684.169007,0.085015,-0.021388,-0.072147,0.993534,-0.000908,-0.016397,0.006903,0.001798,0.001332,0.000921,-0.030232,-0.172017,-0.98463,0.030236606212092267
1762015684.169513,0.085006,-0.021461,-0.072108,0.993536,-0.002696,-0.019853,0.008977,0.001806,0.001814,0.001915,-0.030385,-0.172008,-0.984627,0.030389672419444735
1762015684.239622,0.084916,-0.021718,-0.072007,0.993545,-0.007643,-0.019673,0.008447,0.001509,0.003686,2e-05,-0.030926,-0.171863,-0.984635,0.030930941231573174
1762015684.23995,0.084841,-0.021832,-0.072001,0.99355,-0.009238,-0.022723,0.00723,0.000942,0.002448,-0.000436,-0.031164,-0.171732,-0.984651,0.031169036201380132
1762015684.240246,0.084766,-0.021945,-0.071996,0.993554,-0.010833,-0.025773,0.006013,0.000375,0.001209,-0.000893,-0.031402,-0.1716,-0.984666,0.03140716663530397
1762015684.240481,0.084692,-0.022059,-0.07199,0.993558,-0.012429,-0.028824,0.004797,-0.000191,-2.9e-05,-0.001349,-0.03164,-0.171468,-0.984681,0.03164529671078604
1762015684.267757,0.084539,-0.02248,-0.071879,0.99357,0.00525,-0.025854,0.007415,-0.003252,-9.9e-05,0.00521,-0.032518,-0.171222,-0.984696,0.03252372373581707
1762015684.300223,0.0846,-0.022785,-0.071918,0.993555,0.008141,-0.013818,-0.008823,-0.009275,0.003946,0.006156,-0.033109,-0.171386,-0.984647,0.033115067246542666
1762015684.300471,0.084645,-0.022867,-0.071997,0.993544,0.00085,-0.014362,-0.013104,-0.01052,0.003061,0.005035,-0.03325,-0.17149,-0.984625,0.03325611684692344
1762015684.330118,0.084649,-0.022947,-0.072094,0.993534,-0.000608,-0.008203,-0.016088,-0.009521,0.001027,0.007191,-0.033392,-0.171511,-0.984616,0.033398213345524314
1762015684.361851,0.084674,-0.022999,-0.072348,0.993512,0.007104,0.006111,-0.008734,-0.009477,-0.007697,0.006189,-0.033448,-0.171578,-0.984603,0.03345422574150785
1762015684.362041,0.084722,-0.022999,-0.072368,0.993507,0.015146,0.006783,-0.002305,-0.007997,-0.007704,0.006444,-0.033437,-0.171672,-0.984587,0.03344321920966193
1762015684.40644,0.084893,-0.022992,-0.072222,0.993503,0.011411,0.023158,0.014975,-0.00528,-0.00392,0.005507,-0.033423,-0.172004,-0.984529,0.03342922884840664
1762015684.406806,0.084963,-0.022935,-0.072119,0.993506,0.006609,0.025492,0.017868,-0.004608,-0.002117,0.003042,-0.033317,-0.172131,-0.98451,0.03332318278932951
1762015684.437014,0.085138,-0.022702,-0.071811,0.993519,-0.002401,0.027206,0.014749,-0.003977,0.001585,-0.000343,-0.032881,-0.172433,-0.984472,0.03288693738875797
1762015684.46697,0.085202,-0.022602,-0.071685,0.993524,0.001053,0.026987,0.014083,-0.001879,0.003197,0.001672,-0.032696,-0.172542,-0.984459,0.032701839862892275
1762015684.467271,0.085267,-0.022503,-0.071559,0.99353,0.004507,0.026768,0.013417,0.000219,0.004809,0.003686,-0.032511,-0.172651,-0.984446,0.03251674192933323
1762015684.497891,0.085296,-0.022136,-0.071362,0.99355,-0.010356,0.03131,0.000566,0.004358,0.008833,-0.002248,-0.031812,-0.172651,-0.984469,0.031817374721200095
1762015684.53697,0.085237,-0.02197,-0.071378,0.993558,-0.003639,0.023023,-0.001692,0.005952,0.008321,-0.001588,-0.031488,-0.172513,-0.984504,0.03149320008716108
1762015684.537307,0.085178,-0.021804,-0.071395,0.993565,0.003079,0.014737,-0.00395,0.007545,0.00781,-0.000928,-0.031164,-0.172374,-0.984539,0.031169030483568887
1762015684.568167,0.08516,-0.021722,-0.071451,0.993565,0.003612,0.009331,-0.010636,0.009257,0.009193,-0.000942,-0.030996,-0.172327,-0.984552,0.03100096558345181
1762015684.568511,0.085141,-0.021641,-0.071506,0.993564,0.004145,0.003924,-0.017322,0.01097,0.010575,-0.000956,-0.030828,-0.172281,-0.984565,0.030832895126088035
1762015684.599321,0.085033,-0.02157,-0.071827,0.993552,-0.000373,-0.009304,-0.020442,0.009517,0.004885,-0.001947,-0.030646,-0.172069,-0.984608,0.03065080161260674
1762015684.599662,0.084994,-0.021615,-0.071985,0.993543,-4.7e-05,-0.013044,-0.025863,0.008771,0.002223,0.000616,-0.030715,-0.172003,-0.984617,0.030719845667493553
1762015684.634103,0.085016,-0.021935,-0.07219,0.993519,0.017636,-0.037457,0.001505,0.005282,-0.003963,0.001957,-0.031311,-0.172096,-0.984582,0.031316132044023115
1762015684.66438,0.085141,-0.022108,-0.072145,0.993508,0.023056,-0.03194,0.008029,0.004207,-0.003723,0.00283,-0.031645,-0.172366,-0.984525,0.03165026940600343
1762015684.664645,0.085265,-0.022281,-0.072101,0.993496,0.028476,-0.026424,0.014554,0.003132,-0.003483,0.003703,-0.031978,-0.172635,-0.984467,0.0319834412317854
1762015684.697345,0.085544,-0.022475,-0.071834,0.993487,0.014086,-0.012423,0.023224,0.002758,0.003612,0.003204,-0.032366,-0.173203,-0.984354,0.03237165946058857
1762015684.751882,0.085553,-0.022507,-0.071702,0.993495,0.004622,-0.011712,0.018657,0.002855,0.006084,0.00241,-0.032453,-0.17322,-0.984348,0.03245870981090181
1762015684.752182,0.085561,-0.02254,-0.07157,0.993503,-0.004842,-0.011,0.01409,0.002952,0.008556,0.001615,-0.03254,-0.173237,-0.984342,0.03254576017496224
1762015684.752246,0.08557,-0.022573,-0.071437,0.993511,-0.014306,-0.010288,0.009523,0.003049,0.011028,0.000821,-0.032627,-0.173254,-0.984337,0.032632778418304295
1762015684.784468,0.085392,-0.022647,-0.071389,0.993528,-0.004789,-0.006648,-0.009729,0.003631,0.008779,0.003984,-0.032809,-0.172913,-0.98439,0.03281490523387356
1762015684.784802,0.085382,-0.022684,-0.071526,0.993519,0.010791,-0.005483,-0.018007,0.002557,0.005892,0.004779,-0.03286,-0.172902,-0.984391,0.03286590788572247
1762015684.836937,0.08569,-0.022617,-0.071998,0.99346,0.033237,0.000342,-0.031128,0.001216,0.005301,0.005288,-0.0326,-0.173516,-0.984291,0.03260578793890568
1762015684.837185,0.085897,-0.02256,-0.072269,0.993423,0.033151,0.003719,-0.034551,0.001179,0.005007,0.004491,-0.032407,-0.173924,-0.984226,0.03241266548816828
1762015684.866767,0.086114,-0.0225,-0.07252,0.993388,0.036732,0.004959,-0.035206,0.001899,0.002698,0.004192,-0.032213,-0.174353,-0.984156,0.032218578903842866
1762015684.867097,0.086331,-0.022441,-0.072772,0.993352,0.040313,0.0062,-0.03586,0.002619,0.000389,0.003892,-0.032018,-0.174781,-0.984087,0.03202346068475111
1762015684.897921,0.087081,-0.022292,-0.0733,0.993251,0.058614,0.007613,-0.029684,0.002051,-0.003228,0.001165,-0.031516,-0.176255,-0.98384,0.03152121597935012
1762015684.902522,0.087832,-0.022245,-0.073616,0.993162,0.057109,0.001217,-0.022599,0.00475,-0.001478,-0.001639,-0.031254,-0.177738,-0.983581,0.03125910307582472
1762015684.964492,0.088175,-0.022312,-0.073752,0.99312,0.055947,-0.003964,-0.019227,0.004098,-0.003434,-0.001139,-0.031311,-0.178427,-0.983455,0.03131611350798902
1762015684.964763,0.088517,-0.02238,-0.073888,0.993078,0.054785,-0.009145,-0.015855,0.003446,-0.005391,-0.00064,-0.031369,-0.179117,-0.983328,0.03137413322608557
1762015684.965154,0.08886,-0.022447,-0.074024,0.993036,0.053623,-0.014326,-0.012484,0.002793,-0.007348,-0.000141,-0.031426,-0.179806,-0.9832,0.031431174496507
1762015684.997863,0.08976,-0.022719,-0.074147,0.99294,0.060488,-0.015762,-0.003122,0.002311,-0.00724,0.002913,-0.031807,-0.181621,-0.982854,0.0318123678113548
1762015685.001164,0.090542,-0.023018,-0.074183,0.992859,0.048302,-0.026749,-0.000508,0.000835,-0.006431,0.003628,-0.032274,-0.183205,-0.982545,0.032279599639411086
1762015685.030647,0.090868,-0.023244,-0.074192,0.992823,0.04248,-0.029207,-0.001254,3.4e-05,-0.007066,0.006044,-0.032671,-0.18388,-0.982406,0.032676801898910354
1762015685.089553,0.091144,-0.023436,-0.074246,0.99279,0.038376,-0.027341,-0.004987,-0.000438,-0.006248,0.006246,-0.033,-0.184454,-0.982287,0.03300599196679988
1762015685.089863,0.09142,-0.023628,-0.0743,0.992756,0.034271,-0.025475,-0.008719,-0.000909,-0.005429,0.006449,-0.03333,-0.185027,-0.982168,0.0333361764116061
1762015685.090109,0.091697,-0.023821,-0.074353,0.992722,0.030167,-0.023608,-0.012452,-0.001381,-0.004611,0.00665,-0.033659,-0.185601,-0.982049,0.033665343661709285
1762015685.136767,0.092098,-0.024171,-0.07461,0.992656,0.008978,-0.020745,-0.014071,-0.00266,-0.002756,0.003475,-0.034244,-0.186451,-0.981867,0.03425070596764879
1762015685.137287,0.09212,-0.02435,-0.074767,0.992638,-0.000517,-0.018264,-0.012134,-0.002332,-0.003589,0.003767,-0.034566,-0.186525,-0.981842,0.034572885317967046
1762015685.139024,0.092074,-0.024626,-0.07502,0.992617,-0.00455,-0.007413,-0.004575,-0.004014,-0.007151,0.005164,-0.035074,-0.186483,-0.981832,0.03508119223762796
1762015685.169313,0.092028,-0.024692,-0.075039,0.992618,-0.004796,-0.008414,0.000174,-0.004196,-0.005775,0.002813,-0.035207,-0.186403,-0.981842,0.03521428933562137
1762015685.200753,0.092004,-0.024765,-0.075029,0.992619,-0.004397,-0.007105,0.001193,-0.004195,-0.005073,0.003219,-0.035358,-0.186366,-0.981844,0.03536536948196712
1762015685.200946,0.09198,-0.024838,-0.075019,0.99262,-0.003998,-0.005797,0.002212,-0.004194,-0.004371,0.003625,-0.035509,-0.186328,-0.981846,0.035516456078063106
1762015685.230521,0.092068,-0.024985,-0.074947,0.992614,0.012568,-0.005448,0.007596,-0.002485,-0.001844,0.004883,-0.035799,-0.186521,-0.981798,0.0358066694352194
1762015685.260671,0.092216,-0.024999,-0.074934,0.992601,0.014392,0.001921,0.000462,-0.002213,0.001191,0.00425,-0.035809,-0.186814,-0.981742,0.03581667325847459
1762015685.260951,0.092364,-0.025014,-0.074921,0.992587,0.016216,0.009289,-0.006672,-0.001941,0.004227,0.003617,-0.035818,-0.187107,-0.981686,0.03582567453226511
1762015685.294241,0.092552,-0.025005,-0.075052,0.99256,0.005565,0.002647,-0.010313,-0.000855,0.003304,0.001459,-0.035746,-0.187481,-0.981618,0.035753602643134146
1762015685.300208,0.092634,-0.024991,-0.075257,0.992538,0.00014,0.005605,-0.014028,0.000797,0.001839,0.00251,-0.035666,-0.187646,-0.981589,0.03567356501301329
1762015685.329273,0.092611,-0.024971,-0.075338,0.992534,-0.002643,0.005825,-0.01286,0.000107,0.00249,0.003557,-0.035615,-0.187601,-0.981599,0.035622548443146974
1762015685.364228,0.092578,-0.024928,-0.075404,0.992533,-0.003193,0.006549,-0.010774,0.000246,0.001443,0.003188,-0.035522,-0.187533,-0.981616,0.03552946730835801
1762015685.364526,0.092546,-0.024884,-0.075471,0.992532,-0.003742,0.007272,-0.008689,0.000384,0.000396,0.002819,-0.035428,-0.187466,-0.981632,0.035435414899084
1762015685.393021,0.092428,-0.024763,-0.075528,0.992542,-0.00612,0.003779,0.00228,-0.000285,0.000233,0.001749,-0.035195,-0.187218,-0.981688,0.03520225948026737
1762015685.438885,0.092391,-0.024732,-0.075506,0.992548,-0.003674,0.003134,0.000956,-0.00019,0.000155,0.001163,-0.035143,-0.187139,-0.981705,0.035150224742325674
1762015685.439229,0.092353,-0.0247,-0.075485,0.992554,-0.001227,0.002488,-0.000368,-9.4e-05,7.7e-05,0.000577,-0.03509,-0.187061,-0.981721,0.03509721830109121
1762015685.440594,0.092342,-0.024658,-0.075496,0.992555,-0.00066,-0.00131,-0.006288,0.001357,0.002464,0.001641,-0.035006,-0.187032,-0.98173,0.03501315026756107
1762015685.469257,0.092391,-0.024601,-0.075573,0.992546,0.003647,0.001823,-0.007464,0.000608,-8.5e-05,-0.000353,-0.034871,-0.187122,-0.981718,0.03487805595962924
1762015685.499127,0.09246,-0.024608,-0.075624,0.992536,0.010511,-0.004179,-0.005516,0.00095,-0.001282,0.001182,-0.034864,-0.187262,-0.981691,0.03487107065378998
1762015685.499437,0.092529,-0.024615,-0.075674,0.992525,0.017374,-0.010182,-0.003569,0.001291,-0.002479,0.002717,-0.034857,-0.187401,-0.981665,0.03486405692884523
1762015685.53032,0.09288,-0.024436,-0.075857,0.992483,0.017774,0.015423,-0.012605,0.002263,-0.001064,0.004272,-0.034414,-0.18807,-0.981552,0.034420814120223894
1762015685.566766,0.093095,-0.024288,-0.075955,0.992459,0.012668,0.003959,-0.001883,0.002152,-0.003057,0.000522,-0.034068,-0.188475,-0.981487,0.03407459033333248
1762015685.567016,0.093158,-0.024282,-0.075962,0.992452,0.010666,-0.000733,0.002519,0.002755,-0.004865,0.000519,-0.034045,-0.188598,-0.981464,0.03405158268284395
1762015685.59664,0.093204,-0.024308,-0.075914,0.992451,0.007283,-0.00423,0.006969,0.003293,-0.003936,0.002248,-0.034098,-0.18869,-0.981444,0.03410462944520957
1762015685.631736,0.093281,-0.024437,-0.075723,0.992455,0.00201,-0.009491,0.018611,0.002463,-0.002823,0.00326,-0.034378,-0.188855,-0.981403,0.03438477680382574
1762015685.63199,0.093288,-0.024489,-0.075599,0.992463,0.000213,-0.009238,0.022998,0.001384,-0.003182,0.003444,-0.034504,-0.188872,-0.981395,0.03451086199591706
1762015685.661703,0.093283,-0.024539,-0.07543,0.992475,-0.000641,-0.007225,0.02622,0.001868,-0.00268,0.003672,-0.034636,-0.188865,-0.981392,0.034642930695994036
1762015685.662171,0.093279,-0.024589,-0.075262,0.992487,-0.001494,-0.005212,0.029441,0.002352,-0.002178,0.003901,-0.034768,-0.188857,-0.981389,0.03477500588410661
1762015685.693053,0.093295,-0.024633,-0.074833,0.992517,0.000445,0.003381,0.020525,0.001691,0.000224,0.004248,-0.034935,-0.18888,-0.981378,0.034942129444582914
1762015685.740508,0.09332,-0.024582,-0.074578,0.992535,-0.000962,0.005496,0.005127,0.003389,0.001858,0.000172,-0.034877,-0.188913,-0.981374,0.03488408415069981
1762015685.740888,0.09333,-0.024548,-0.07456,0.992536,-0.001342,0.005372,0.002653,0.002239,0.001474,0.001002,-0.034812,-0.188927,-0.981374,0.03481903140128701
1762015685.741348,0.09334,-0.024514,-0.074542,0.992537,-0.001722,0.005249,0.000178,0.001089,0.001089,0.001833,-0.034747,-0.188942,-0.981373,0.034754006246280826
1762015685.773554,0.093345,-0.024452,-0.074594,0.992534,0.001371,0.003375,-0.004648,0.00086,-9.8e-05,0.001639,-0.034612,-0.188944,-0.981378,0.03461890406751174
1762015685.805635,0.093377,-0.024337,-0.074692,0.992527,0.001496,0.002242,-0.001466,0.000468,-0.002759,0.002864,-0.034362,-0.188993,-0.981377,0.0343687671568662
1762015685.805924,0.093393,-0.024307,-0.074689,0.992526,0.003677,0.00495,-3.1e-05,0.001091,-0.002552,0.002758,-0.034299,-0.18902,-0.981374,0.03430573012549227
1762015685.835882,0.09342,-0.024273,-0.074677,0.992525,0.002433,0.004095,0.001292,0.001519,-0.002015,0.002287,-0.03423,-0.189069,-0.981367,0.034236688576947706
1762015685.866477,0.093442,-0.024185,-0.074593,0.992532,-3.7e-05,0.002892,0.005457,0.00097,-0.001863,0.002043,-0.034068,-0.189096,-0.981368,0.03407457513281847
1762015685.897206,0.093462,-0.024182,-0.074537,0.992534,-0.000255,0.003312,0.004997,0.001183,-0.000562,0.001709,-0.03407,-0.189134,-0.98136,0.03407659662472044
1762015685.897513,0.093483,-0.024179,-0.074482,0.992537,-0.000474,0.003732,0.004537,0.001396,0.00074,0.001374,-0.034072,-0.189172,-0.981353,0.034078584611554316
1762015685.899131,0.093478,-0.024191,-0.0744,0.992543,-0.004404,-0.001249,0.006279,0.00069,-0.001126,0.001362,-0.034111,-0.189162,-0.981353,0.03411762646698837
1762015685.927774,0.09346,-0.024206,-0.074339,0.992549,-0.003189,-0.001972,0.005227,0.000942,-0.001112,0.003192,-0.034156,-0.189127,-0.981358,0.03416265877355975
1762015685.938056,0.093403,-0.024244,-0.074244,0.99256,-0.001114,-0.003294,0.011511,-0.00017,-0.000791,0.003562,-0.034258,-0.189016,-0.981376,0.03426471282702073
1762015685.96837,0.093355,-0.02423,-0.074165,0.992571,-0.007978,0.000207,0.010545,-0.0006,3.3e-05,0.00266,-0.034252,-0.188917,-0.981396,0.034258684814601675
1762015685.996599,0.093245,-0.024243,-0.074079,0.992588,-0.014103,-0.001822,0.011099,-0.000823,0.000216,0.001711,-0.034311,-0.1887,-0.981435,0.034317742612988006
1762015686.000194,0.093069,-0.024241,-0.073917,0.992616,-0.008991,0.003853,0.008358,-0.002511,-0.002771,0.002575,-0.034366,-0.188347,-0.981501,0.034372771065803345
1762015686.036623,0.093044,-0.024256,-0.073837,0.992624,-0.003309,-0.003884,0.011419,-0.002573,-0.002164,0.001123,-0.034415,-0.188297,-0.981509,0.03442179590283356
1762015686.075638,0.093033,-0.024388,-0.073587,0.99264,0.006398,0.00066,0.014373,-0.002343,0.000666,0.005922,-0.034726,-0.188286,-0.9815,0.03473298722854131
1762015686.076136,0.093019,-0.024298,-0.073483,0.992652,-0.001063,0.003575,0.008706,-0.001373,0.002921,0.003068,-0.034569,-0.188242,-0.981514,0.03457589227299216
1762015686.105634,0.092985,-0.024249,-0.073438,0.992659,-0.003565,0.002925,0.004863,-0.000104,0.00376,0.002156,-0.034485,-0.188167,-0.981531,0.0344918535281769
1762015686.105962,0.092952,-0.0242,-0.073393,0.992667,-0.006067,0.002275,0.00102,0.001165,0.004599,0.001244,-0.034402,-0.188092,-0.981549,0.03440878014676382
1762015686.135605,0.09291,-0.024167,-0.073405,0.992671,-0.003741,0.002314,-0.002435,0.000727,0.004146,0.002319,-0.03434,-0.188007,-0.981567,0.03434675887335299
1762015686.168114,0.092836,-0.024073,-0.073541,0.99267,-0.003842,0.00456,-0.013627,0.00101,0.001062,0.00189,-0.034138,-0.187852,-0.981604,0.03414463099367235
1762015686.173903,0.092866,-0.024011,-0.073625,0.992662,0.000838,0.0045,-0.006599,0.000925,-0.000176,0.002352,-0.033996,-0.187905,-0.981599,0.03400254132281991
1762015686.234359,0.092879,-0.023969,-0.073636,0.992661,0.001398,0.004724,-0.003961,0.000792,-9.4e-05,0.002451,-0.033908,-0.187924,-0.981598,0.033914504122507134
1762015686.234694,0.092892,-0.023927,-0.073648,0.99266,0.001957,0.004948,-0.001323,0.00066,-1.2e-05,0.002549,-0.03382,-0.187944,-0.981597,0.033826460480705506
1762015686.234895,0.092904,-0.023885,-0.073659,0.992659,0.002517,0.005172,0.001315,0.000527,6.9e-05,0.002647,-0.033732,-0.187963,-0.981597,0.03373839000449645
1762015686.265453,0.092918,-0.023774,-0.073647,0.992662,-0.003928,0.006339,0.006434,0.001718,0.000385,-0.000344,-0.033512,-0.187973,-0.981602,0.03351828604292403
1762015686.265762,0.092934,-0.0237,-0.073632,0.992663,0.00271,0.011456,-0.001325,0.000872,-0.001343,-0.000591,-0.033366,-0.187994,-0.981603,0.03337220272896249
1762015686.295373,0.092949,-0.023645,-0.073607,0.992665,0.00648,0.00632,-0.000723,0.000529,-0.001362,-0.001003,-0.03326,-0.188015,-0.981603,0.033266129961110655
1762015686.339269,0.093101,-0.023639,-0.073577,0.992653,0.009967,-0.002221,0.003996,0.001189,-0.001815,0.003428,-0.03323,-0.188312,-0.981547,0.03323611606647416
1762015686.339583,0.093165,-0.023624,-0.073588,0.992646,0.010917,0.002192,0.001008,0.001341,-0.002106,0.003747,-0.033188,-0.188436,-0.981524,0.03319411320389343
1762015686.339982,0.093229,-0.023609,-0.073599,0.99264,0.011866,0.006605,-0.00198,0.001492,-0.002397,0.004066,-0.033147,-0.188561,-0.981502,0.03315307040872535
1762015686.37184,0.093376,-0.023484,-0.073639,0.992626,0.0041,0.00638,-0.002629,0.002213,-0.001943,0.002331,-0.032869,-0.188834,-0.981459,0.03287491443616979
1762015686.409025,0.093442,-0.023388,-0.073689,0.992618,-0.000545,0.004597,-0.004732,0.000816,-0.000459,0.002191,-0.03266,-0.188952,-0.981443,0.032665810756380344
1762015686.40932,0.093432,-0.023352,-0.073718,0.992618,-0.002275,0.005636,-0.006069,0.001946,-8.2e-05,0.002774,-0.032583,-0.188927,-0.98145,0.03258878165559334
1762015686.454325,0.093387,-0.023208,-0.07386,0.992615,-0.005473,0.008196,-0.009186,0.001976,-0.002894,0.003251,-0.032278,-0.188823,-0.981481,0.032283592231583634
1762015686.473115,0.093323,-0.023084,-0.07393,0.992619,-0.007301,0.007728,-0.00679,0.001173,-0.002071,0.002287,-0.032028,-0.188682,-0.981516,0.032033472632678445
1762015686.473359,0.093222,-0.022988,-0.07395,0.992629,-0.008468,0.007361,-0.001675,0.00205,-0.00097,0.0002,-0.031851,-0.188469,-0.981562,0.03185640363418446
1762015686.50254,0.093148,-0.02291,-0.073956,0.992637,-0.004519,0.005156,-6.6e-05,0.001655,-0.000943,0.001012,-0.031706,-0.188314,-0.981597,0.0317113129479197
1762015686.531944,0.093134,-0.022871,-0.073928,0.992642,-0.001404,0.004326,0.003314,0.001579,-0.000938,0.00117,-0.031636,-0.188278,-0.981606,0.03164128292094342
1762015686.532417,0.09315,-0.022827,-0.07392,0.992642,0.000271,-0.000224,0.001719,0.000196,0.000391,0.000772,-0.031547,-0.188304,-0.981604,0.03155223465585171
1762015686.56809,0.09319,-0.022831,-0.073916,0.992638,0.00227,-0.001692,4.7e-05,0.001584,-0.001211,0.001688,-0.031549,-0.188382,-0.981589,0.031554234707985344
1762015686.568803,0.093214,-0.022855,-0.073885,0.992638,-0.000585,-0.001825,0.001392,5.2e-05,-0.001489,0.001547,-0.0316,-0.188432,-0.981578,0.03160525277333694
1762015686.59929,0.093196,-0.022903,-0.073838,0.992642,-0.003686,-0.006359,0.008071,-0.00012,-0.002111,0.000954,-0.031706,-0.188403,-0.98158,0.031711310508439075
1762015686.637454,0.093131,-0.02298,-0.073734,0.992654,-0.003509,-0.006898,0.013765,0.001063,-0.002423,0.002435,-0.031889,-0.188282,-0.981597,0.03189441211423595
1762015686.639324,0.093096,-0.023043,-0.073631,0.992663,-0.002032,-0.002818,0.010732,0.001241,-0.001256,0.004977,-0.032038,-0.18822,-0.981604,0.032043489521488056
1762015686.668185,0.093066,-0.023078,-0.073497,0.992675,-0.006255,-0.004892,0.009886,0.000949,0.001293,0.002939,-0.032137,-0.188161,-0.981612,0.032142542915741756
1762015686.669891,0.092982,-0.023097,-0.073423,0.992688,-0.008914,-0.002148,0.003945,0.000531,0.002802,0.002628,-0.032202,-0.187996,-0.981642,0.03220756026185735
1762015686.699558,0.092853,-0.023095,-0.073407,0.992702,-0.013361,-0.001841,9.2e-05,0.001352,0.002695,0.001863,-0.032221,-0.187741,-0.98169,0.032226575746845676
1762015686.729337,0.092718,-0.023116,-0.07343,0.992712,-0.013799,-0.002987,-0.001637,0.000463,-0.000169,0.000842,-0.032278,-0.18748,-0.981738,0.032283605595915484
1762015686.744377,0.092603,-0.023101,-0.073456,0.992721,-0.010117,-0.003163,-0.001231,-0.001248,-0.001093,0.000973,-0.032261,-0.187253,-0.981782,0.03226659297317178
1762015686.774344,0.092508,-0.023165,-0.073468,0.992728,-0.009266,-0.003067,0.001208,-0.000908,-0.002301,0.002181,-0.0324,-0.187075,-0.981811,0.03240567696985405
1762015686.774999,0.092418,-0.023148,-0.073475,0.992736,-0.002646,0.004248,0.00015,-0.00026,-0.000971,0.003398,-0.032379,-0.186894,-0.981846,0.03238467113777643
1762015686.805607,0.092406,-0.02312,-0.073444,0.99274,-0.002325,0.002385,0.002713,-0.001465,-0.000591,0.001871,-0.03233,-0.186866,-0.981853,0.03233564367734378
1762015686.808966,0.092342,-0.023091,-0.073381,0.992751,-0.004871,0.002613,-0.000364,0.000402,0.000118,0.003851,-0.032294,-0.186735,-0.981879,0.03229962827085324
1762015686.838037,0.092335,-0.023001,-0.073324,0.992758,-0.001315,0.005217,0.004867,-0.003485,-0.002474,0.002314,-0.032128,-0.186707,-0.98189,0.03213353477421868
1762015686.868136,0.092353,-0.023018,-0.073286,0.992759,0.001421,-0.001622,0.005394,-0.000388,-0.001575,0.002826,-0.032166,-0.186742,-0.981882,0.03217155758917469
1762015686.86873,0.092353,-0.023026,-0.073234,0.992763,-0.005661,0.000572,0.001338,-0.000449,0.002367,0.002739,-0.032192,-0.186741,-0.981882,0.03219755013482078
1762015686.899376,0.09225,-0.022981,-0.07322,0.992774,-0.013981,-0.000454,-0.001634,0.000208,0.001616,-0.001161,-0.032121,-0.186532,-0.981924,0.03212651503964286
1762015686.938174,0.092117,-0.022999,-0.073246,0.992784,-0.012996,2.3e-05,-0.002172,0.00065,0.001678,0.001026,-0.032173,-0.186274,-0.981971,0.03217855056425668
1762015686.938972,0.091985,-0.022955,-0.073306,0.992793,-0.011009,-0.000653,-0.003771,0.002488,0.00161,0.000273,-0.032092,-0.186009,-0.982024,0.032097505008802756
1762015686.971202,0.091851,-0.022939,-0.073354,0.992802,-0.013181,-0.000111,-0.004868,0.001855,0.002028,0.002278,-0.032073,-0.185745,-0.982074,0.03207851379510467
1762015686.983276,0.091762,-0.02287,-0.073428,0.992807,-0.006144,0.006435,-0.007684,0.002833,-0.000348,0.00369,-0.031935,-0.185562,-0.982113,0.03194044587287106
1762015687.013076,0.091737,-0.022838,-0.073467,0.992807,-0.000932,0.001511,-0.00169,0.000453,-0.000607,0.000837,-0.031869,-0.185511,-0.982125,0.031874405294154154
1762015687.013278,0.091757,-0.022829,-0.07345,0.992806,0.001809,-0.003489,0.003824,0.002692,-0.001223,0.001691,-0.031851,-0.185548,-0.982119,0.031856383451739835
1762015687.041973,0.091819,-0.022906,-0.073395,0.992803,0.001934,-0.003717,0.004075,0.000287,0.001409,0.004,-0.032004,-0.185678,-0.982089,0.03200947583367867
1762015687.075693,0.09182,-0.02288,-0.073358,0.992806,0.000467,1.4e-05,0.002769,0.000343,0.003677,0.003281,-0.03196,-0.185677,-0.982091,0.031965441427423524
1762015687.076341,0.091777,-0.022866,-0.07336,0.99281,-0.001472,0.003767,-0.001256,0.000789,0.001061,0.000595,-0.031937,-0.185589,-0.982108,0.03194244165870658
1762015687.106868,0.091757,-0.0228,-0.073412,0.99281,-0.000358,0.00568,-0.003,-0.001018,-0.003899,-0.001697,-0.0318,-0.185543,-0.982121,0.03180537627411661
1762015687.107596,0.091756,-0.022836,-0.073396,0.99281,0.004321,-0.012904,-4.9e-05,-0.001595,-0.002009,-0.001061,-0.031874,-0.185544,-0.982119,0.03187939543052998
1762015687.138014,0.091865,-0.022893,-0.073354,0.992802,0.009319,0.004511,0.002527,0.002385,-0.000669,0.006635,-0.03198,-0.185766,-0.982074,0.03198543651383168
1762015687.17008,0.091935,-0.022826,-0.073363,0.992796,0.004613,0.004452,-0.00093,0.000323,-0.000621,0.000681,-0.031834,-0.185894,-0.982054,0.031839378570726454
1762015687.200729,0.091936,-0.022789,-0.07338,0.992796,0.002289,0.002209,-0.000462,0.000754,-0.001212,0.002053,-0.031756,-0.185893,-0.982057,0.031761330211940546
1762015687.205445,0.091927,-0.022755,-0.073406,0.992796,-0.00191,0.00229,-0.003357,0.000642,-0.000879,0.002049,-0.031687,-0.18587,-0.982063,0.031692313615260814
1762015687.238146,0.091866,-0.022743,-0.073451,0.992798,-0.007706,0.001091,-0.004163,0.001436,-0.001539,0.002312,-0.031664,-0.18575,-0.982087,0.0316692848260895
1762015687.269305,0.091758,-0.022716,-0.073515,0.992804,-0.011619,0.000889,-0.003707,0.001528,-0.002337,0.002868,-0.031614,-0.185536,-0.982129,0.03161926172523982
1762015687.269487,0.091659,-0.022707,-0.073542,0.992811,-0.008931,0.000837,-0.001332,0.000638,-0.003042,0.003302,-0.031606,-0.185339,-0.982166,0.03161127178654409
1762015687.299269,0.091575,-0.022684,-0.073548,0.992819,-0.009606,0.000893,0.000853,0.000671,-0.003231,0.003434,-0.031572,-0.185172,-0.982199,0.031577242156767056
1762015687.305124,0.091488,-0.022643,-0.073536,0.992829,-0.010012,0.004644,0.002467,0.001708,-0.001857,0.002909,-0.031505,-0.184994,-0.982235,0.03151019930356372
1762015687.334266,0.091388,-0.022562,-0.073514,0.992842,-0.00948,0.006715,0.001681,0.0011,-0.001183,0.002462,-0.031364,-0.184785,-0.982278,0.031369155924150335
1762015687.365565,0.091293,-0.022493,-0.073488,0.992854,-0.008315,0.004999,0.001297,0.000697,-0.000891,0.001537,-0.031246,-0.184587,-0.982319,0.031251097629719976
1762015687.366291,0.091214,-0.022417,-0.073505,0.992862,-0.006401,0.005383,-0.001344,0.001455,-0.000432,0.000929,-0.031105,-0.184421,-0.982355,0.031110018406455584
1762015687.396823,0.091165,-0.022366,-0.073532,0.992865,-0.004847,0.001208,-0.001029,0.001092,-0.001216,0.000798,-0.031005,-0.184319,-0.982377,0.03100997943025893
1762015687.411568,0.091119,-0.022349,-0.073566,0.992868,-0.002302,0.000573,-0.000489,0.001197,-0.001882,0.001809,-0.030973,-0.184226,-0.982396,0.03097794742362258
1762015687.440652,0.09106,-0.022342,-0.073566,0.992873,-0.004221,0.000759,0.0017,0.001077,-0.001872,0.001932,-0.030967,-0.18411,-0.982418,0.030971942573600253
1762015687.443828,0.090984,-0.022327,-0.073542,0.992882,-0.008156,0.000606,0.003956,0.001191,-0.002196,0.002351,-0.030954,-0.183957,-0.982447,0.03095893848126215
1762015687.474094,0.090911,-0.022304,-0.073495,0.992893,-0.007729,0.000523,0.005415,0.001074,-0.002019,0.002187,-0.030929,-0.183809,-0.982475,0.030933941342695493
1762015687.54417,0.090821,-0.022313,-0.073422,0.992906,-0.009387,0.000673,0.005285,0.001388,-0.000545,0.002207,-0.030974,-0.183631,-0.982507,0.03097895888486964
1762015687.545048,0.090731,-0.022322,-0.073349,0.99292,-0.011045,0.000823,0.005155,0.001702,0.000928,0.002227,-0.031019,-0.183453,-0.982539,0.031023975400206388
1762015687.54545,0.090642,-0.022332,-0.073276,0.992933,-0.012703,0.000973,0.005025,0.002017,0.002402,0.002246,-0.031064,-0.183275,-0.982571,0.03106899088410305
1762015687.546173,0.090515,-0.022321,-0.07323,0.992948,-0.014685,0.00064,0.003662,0.000807,0.00185,0.001771,-0.03107,-0.183022,-0.982618,0.03107499279260763
1762015687.576819,0.090383,-0.022293,-0.073214,0.992962,-0.013499,0.000401,0.001956,0.000247,0.001595,0.001552,-0.031037,-0.182758,-0.982668,0.03104198233055119
1762015687.582604,0.090261,-0.022272,-0.073192,0.992975,-0.009145,-0.000812,0.0014,-9.5e-05,0.000262,0.001904,-0.031019,-0.182514,-0.982714,0.031023971113459423
1762015687.61181,0.09018,-0.022275,-0.073175,0.992984,-0.004448,-0.002058,0.002292,0.000123,0.000569,0.002725,-0.031041,-0.182354,-0.982743,0.031045981946477844
1762015687.64873,0.090143,-0.022277,-0.073167,0.992988,-0.001488,0.000839,0.000868,-0.000216,0.000165,0.002811,-0.03105,-0.182281,-0.982756,0.031054994176601333
1762015687.650566,0.090113,-0.022265,-0.073154,0.992992,-0.003688,-0.00063,0.000904,-0.000422,-0.000435,0.001725,-0.031034,-0.182221,-0.982768,0.03103897523928327
1762015687.681236,0.090062,-0.022277,-0.073152,0.992996,-0.004385,0.000415,-0.000755,-0.000696,-0.002378,0.003663,-0.031066,-0.182122,-0.982785,0.031071001053957523
1762015687.683154,0.090027,-0.02227,-0.073142,0.993,-0.001595,-0.000504,0.000419,-0.002065,-0.003665,0.003195,-0.031059,-0.182051,-0.982798,0.031064009149306324
1762015687.711782,0.090009,-0.022308,-0.073119,0.993003,-0.000646,-0.002638,0.002633,-0.000588,-0.00314,0.003778,-0.031141,-0.182021,-0.982801,0.03114604770023619
1762015687.74399,0.089976,-0.022317,-0.073111,0.993006,-0.007458,0.002143,-0.000248,0.000155,-0.001656,0.003571,-0.031166,-0.181957,-0.982812,0.031171061646328116
1762015687.746203,0.089863,-0.022268,-0.073124,0.993017,-0.01428,0.004625,-0.002529,0.000612,-0.001772,0.002713,-0.031083,-0.181727,-0.982858,0.03108799639237897
1762015687.775776,0.089701,-0.022177,-0.073166,0.99303,-0.017521,0.005642,-0.00507,0.000696,-0.001862,0.001567,-0.030919,-0.181397,-0.982924,0.030923921570863343
1762015687.782515,0.089517,-0.022109,-0.073203,0.993045,-0.020691,0.001383,-0.004889,0.000915,-0.002252,0.00145,-0.030805,-0.181026,-0.982996,0.030809866484679035
1762015687.837766,0.089263,-0.022066,-0.073256,0.993065,-0.025532,0.000991,-0.00427,0.001108,-0.001524,0.001609,-0.030747,-0.180521,-0.983091,0.030751829367917677
1762015687.837998,0.089009,-0.022022,-0.073308,0.993085,-0.030373,0.000598,-0.003652,0.001302,-0.000796,0.001769,-0.030689,-0.180016,-0.983185,0.030693814367792203
1762015687.84226,0.08868,-0.021984,-0.073338,0.993113,-0.034948,0.002099,-0.000681,0.00157,-0.000837,0.002228,-0.030659,-0.179363,-0.983305,0.030663808471628043
1762015687.870868,0.088358,-0.021931,-0.073354,0.993142,-0.031584,0.002003,0.002227,0.001476,-0.002182,0.00212,-0.030599,-0.178722,-0.983424,0.030603767554040574
1762015687.901367,0.088103,-0.021867,-0.073329,0.993168,-0.024117,0.002291,0.004141,0.001249,-0.002396,0.001681,-0.030515,-0.178209,-0.983519,0.030519749394727767
1762015687.902993,0.087876,-0.021819,-0.073276,0.993193,-0.022943,0.000905,0.004521,0.00133,-0.002008,0.003474,-0.030463,-0.177753,-0.983604,0.030467699040642646
1762015687.932064,0.087647,-0.021822,-0.073234,0.993216,-0.026712,-0.001103,0.005407,0.00285,-0.004319,0.004532,-0.030511,-0.177301,-0.983684,0.030515724005388597
1762015687.965115,0.087365,-0.021772,-0.073168,0.993247,-0.03683,0.000314,0.010252,0.000281,-0.012746,0.003793,-0.030466,-0.176736,-0.983787,0.030470705003916104
1762015687.966758,0.086911,-0.021754,-0.073044,0.993296,-0.056545,-0.005129,0.017418,0.001368,-0.020677,0.007486,-0.030521,-0.175835,-0.983946,0.03052575260043706
1762015687.995642,0.086225,-0.021685,-0.072854,0.993372,-0.082499,0.016765,0.021085,0.001344,-0.025419,0.017834,-0.030518,-0.174467,-0.98419,0.03052273854655363
1762015688.002166,0.085244,-0.021382,-0.072583,0.993483,-0.118451,0.02855,0.032143,-0.000759,-0.032809,0.017292,-0.030111,-0.17248,-0.984553,0.03011554246514116
1762015688.032272,0.083963,-0.020966,-0.07223,0.993626,-0.152177,0.040021,0.040086,-0.000553,-0.037209,0.016977,-0.029535,-0.169885,-0.985021,0.029539301574250956
1762015688.060915,0.082355,-0.020435,-0.071784,0.993804,-0.184651,0.04712,0.047747,-0.000879,-0.040003,0.016127,-0.028792,-0.166623,-0.9856,0.02879598576785143
1762015688.06108,0.08049,-0.019845,-0.07131,0.994003,-0.207506,0.050239,0.045599,0.000156,-0.041178,0.015188,-0.027972,-0.162845,-0.986255,0.027975651059635172
1762015688.090567,0.078441,-0.019216,-0.070884,0.99421,-0.225016,0.047832,0.040292,-2.5e-05,-0.039652,0.015226,-0.027088,-0.158697,-0.986956,0.02709130505634575
1762015688.136852,0.076157,-0.018591,-0.070637,0.994417,-0.245359,0.042465,0.02843,-0.001572,-0.036737,0.011384,-0.026215,-0.154089,-0.987709,0.026218007274046985
1762015688.13719,0.073872,-0.017966,-0.070389,0.994618,-0.265702,0.037097,0.016568,-0.003122,-0.033824,0.00752,-0.025339,-0.149479,-0.98844,0.02534171651367744
1762015688.138849,0.071311,-0.017456,-0.07028,0.994822,-0.288514,0.029165,0.003352,-0.003415,-0.029903,0.005816,-0.024708,-0.144337,-0.98922,0.024710516359339917
1762015688.170242,0.068489,-0.016957,-0.070304,0.995027,-0.310189,0.028965,-0.003426,-0.002526,-0.031168,0.005567,-0.024116,-0.138681,-0.990043,0.024118348517636102
1762015688.199129,0.065463,-0.01646,-0.070356,0.995236,-0.326368,0.027185,-0.002183,-0.001982,-0.032042,0.005893,-0.023551,-0.132618,-0.990887,0.02355318670188333
1762015688.201043,0.062268,-0.015954,-0.070382,0.995447,-0.340924,0.031833,0.005379,-0.001443,-0.032721,0.007286,-0.022998,-0.126215,-0.991736,0.02300003436708077
1762015688.230527,0.058903,-0.015384,-0.070305,0.995666,-0.360264,0.035349,0.014651,0.000946,-0.033612,0.007951,-0.022352,-0.119459,-0.992588,0.022353850434633973
1762015688.261254,0.055468,-0.014766,-0.070134,0.995885,-0.35835,0.037929,0.028935,-0.000724,-0.036629,0.006983,-0.02163,-0.11255,-0.993411,0.02163167860308143
1762015688.263097,0.052068,-0.014193,-0.069823,0.996098,-0.349976,0.03138,0.041421,0.000448,-0.031673,0.006038,-0.021005,-0.105712,-0.994175,0.021006543148971293
1762015688.298163,0.048705,-0.013668,-0.069414,0.996304,-0.35529,0.030715,0.046406,0.001334,-0.026001,0.008074,-0.020473,-0.098948,-0.994882,0.020474430003926854
1762015688.298832,0.045166,-0.013136,-0.069005,0.996507,-0.384898,0.028638,0.045489,0.00141,-0.021213,0.008735,-0.019948,-0.09183,-0.995575,0.019949320681069957
1762015688.329425,0.041279,-0.012615,-0.068611,0.996709,-0.417284,0.025347,0.038775,0.001267,-0.02044,0.009947,-0.019483,-0.084018,-0.996274,0.019484227973856343
1762015688.337498,0.037203,-0.012079,-0.068282,0.996899,-0.423037,0.028966,0.034262,0.000225,-0.022819,0.011122,-0.019002,-0.075826,-0.99694,0.01900314350563038
1762015688.366785,0.033143,-0.011578,-0.067995,0.997068,-0.415913,0.018362,0.031812,8.2e-05,-0.022198,0.011887,-0.01858,-0.067666,-0.997535,0.018581069370372575
1762015688.396627,0.02919,-0.011079,-0.067749,0.997214,-0.406629,0.026227,0.022086,0.002015,-0.018025,0.015726,-0.018141,-0.059719,-0.99805,0.018142001906172784
1762015688.397508,0.025159,-0.010531,-0.067652,0.997336,-0.423484,0.029878,0.00533,0.00247,-0.011892,0.016895,-0.017602,-0.051608,-0.998512,0.017602914081362917
1762015688.437244,0.020994,-0.009934,-0.067722,0.997434,-0.433123,0.033741,-0.009262,0.000166,-0.013874,0.014698,-0.016973,-0.043226,-0.998921,0.016973817301035223
1762015688.441512,0.016808,-0.009362,-0.067861,0.997509,-0.429608,0.022106,-0.00743,-0.001862,-0.014493,0.010905,-0.016396,-0.034803,-0.99926,0.01639672958214661
1762015688.47065,0.012652,-0.008868,-0.067977,0.997567,-0.428038,0.020118,-0.008794,0.000376,-0.009416,0.013023,-0.015974,-0.026448,-0.999523,0.015974672289520413
1762015688.500758,0.008427,-0.008344,-0.068113,0.997607,-0.437258,0.019073,-0.010524,0.000929,-0.007263,0.013299,-0.015501,-0.01795,-0.999719,0.015501616473213181
1762015688.501153,0.004205,-0.007829,-0.068279,0.997627,-0.419788,0.023655,-0.010799,0.001053,-0.007036,0.012031,-0.015047,-0.009459,-0.999842,0.015047568540233869
1762015688.532574,0.000258,-0.007328,-0.068408,0.997631,-0.388728,0.02581,-0.009178,0.000872,0.000749,0.013122,-0.014586,-0.001518,-0.999892,0.014586524050462462
1762015688.540508,-0.00347,-0.006771,-0.068561,0.997618,-0.376045,0.031231,-0.018628,0.002686,0.01228,0.013219,-0.013986,0.005995,-0.999884,0.013986459068338649
1762015688.569083,-0.007205,-0.006201,-0.068824,0.997584,-0.384352,0.039681,-0.032441,0.002733,0.018855,0.011308,-0.013363,0.013522,-0.999819,0.013363401431706123
1762015688.59799,-0.01094,-0.005554,-0.069218,0.997526,-0.382208,0.036154,-0.037381,9e-06,0.020592,0.002106,-0.012596,0.021056,-0.999699,0.012596332441317344
1762015688.598756,-0.014601,-0.004973,-0.069603,0.997455,-0.359985,0.028291,-0.034314,0.003077,0.020477,0.004286,-0.011953,0.028436,-0.999524,0.01195328639948928
1762015688.631758,-0.017984,-0.004435,-0.07,0.997375,-0.326687,0.033529,-0.04062,0.004048,0.023932,0.003369,-0.011364,0.035253,-0.999314,0.01136424241803
1762015688.635027,-0.020969,-0.003868,-0.070436,0.997288,-0.27995,0.031215,-0.040265,0.005134,0.030307,-0.003089,-0.01067,0.041279,-0.999091,0.010670199104974605
1762015688.664217,-0.023537,-0.003414,-0.070862,0.997203,-0.238676,0.023259,-0.041949,0.00809,0.039223,-0.005858,-0.010144,0.046459,-0.998869,0.010144170841313006
1762015688.69508,-0.025794,-0.003021,-0.071345,0.997114,-0.217349,0.024684,-0.052741,0.010001,0.045352,-0.007037,-0.009705,0.051007,-0.998651,0.009705153708488559
1762015688.69673,-0.027934,-0.002652,-0.071931,0.997015,-0.205266,0.01782,-0.063379,0.008144,0.044372,-0.005902,-0.009307,0.055319,-0.998425,0.009307137659547852
1762015688.745155,-0.029838,-0.002364,-0.072609,0.996911,-0.166239,0.011169,-0.065894,0.009197,0.036422,-0.002475,-0.009047,0.059148,-0.998208,0.009047125474575559
1762015688.74806,-0.031275,-0.002209,-0.073209,0.996824,-0.113245,0.004458,-0.066825,0.017631,0.037269,0.0006,-0.008983,0.062029,-0.998034,0.008983120115200086
1762015688.794637,-0.03235,-0.002242,-0.073888,0.996739,-0.112401,-0.017683,-0.059999,0.013233,0.028495,-0.004808,-0.009251,0.064157,-0.997897,0.009251131381937403
1762015688.794824,-0.033424,-0.002276,-0.074566,0.996653,-0.111557,-0.039824,-0.053173,0.008839,0.019721,-0.010221,-0.009521,0.066285,-0.997755,0.009521146752171026
1762015688.795819,-0.034567,-0.002652,-0.074945,0.996585,-0.103652,-0.066677,-0.011192,0.00616,0.00888,-0.005619,-0.010466,0.068499,-0.997596,0.010466194064987123
1762015688.825573,-0.035626,-0.003236,-0.074901,0.996549,-0.080842,-0.065348,0.015281,0.009295,0.013913,0.012352,-0.011786,0.070522,-0.997441,0.011786268104057114
1762015688.855628,-0.036438,-0.003615,-0.074643,0.996538,-0.070737,-0.035224,0.031796,0.007795,0.015058,0.016235,-0.012644,0.072083,-0.997318,0.012644343103849839
1762015688.856276,-0.037287,-0.003828,-0.074215,0.996538,-0.082313,-0.023225,0.048579,0.005961,0.01277,0.021736,-0.013164,0.073747,-0.99719,0.013164381500280592
1762015688.887571,-0.037992,-0.00388,-0.073645,0.996553,-0.042875,-0.000428,0.063072,0.006166,0.001165,0.028289,-0.01333,0.07515,-0.997083,0.013330396661514816
1762015688.928835,-0.037799,-0.003482,-0.072907,0.996616,-0.006799,0.029829,0.069504,0.002557,0.00932,0.022219,-0.012452,0.074835,-0.997118,0.012452324077515287
1762015688.929143,-0.037607,-0.003083,-0.07217,0.996678,0.029278,0.060087,0.075936,-0.001052,0.017475,0.016148,-0.011575,0.074519,-0.997152,0.01157526327260574
1762015688.938017,-0.03745,-0.002386,-0.071382,0.996743,-0.008329,0.068546,0.085837,-0.006331,0.019255,-0.002473,-0.010102,0.074316,-0.997184,0.010102167542704607
1762015688.968462,-0.037759,-0.001743,-0.070412,0.996802,-0.050756,0.043377,0.108401,-0.005971,0.018103,-0.009521,-0.008793,0.075031,-0.997142,0.008793117110624296
1762015688.998604,-0.038303,-0.001293,-0.069304,0.996859,-0.051199,0.033873,0.112671,-0.002147,0.021245,-0.005715,-0.007886,0.076186,-0.997062,0.007886085179987
1762015688.998848,-0.038762,-0.000948,-0.068191,0.996919,-0.042826,0.024433,0.103239,-0.001828,0.02899,-0.008734,-0.007177,0.077156,-0.996993,0.007177063051634312
1762015689.037583,-0.039229,-0.000697,-0.067269,0.996963,-0.046825,0.015707,0.080869,-0.001443,0.034862,-0.009182,-0.006667,0.078126,-0.996921,0.006667050721188212
1762015689.039263,-0.039801,-0.000561,-0.06657,0.996988,-0.067437,-0.002957,0.058993,-0.005437,0.034915,-0.017171,-0.006417,0.079287,-0.996831,0.006417045167356099
1762015689.078035,-0.040633,-0.000646,-0.066059,0.996988,-0.083443,-0.020023,0.038949,-0.007171,0.032412,-0.014488,-0.006656,0.080935,-0.996697,0.00665605019082188
1762015689.078706,-0.041593,-0.000811,-0.065765,0.996968,-0.097559,-0.029674,0.018863,-0.006996,0.031459,-0.011228,-0.007087,0.082827,-0.996539,0.0070870574975502474
1762015689.111804,-0.042688,-0.001011,-0.065654,0.996928,-0.105018,-0.021913,-0.000789,-0.006441,0.026305,-0.007597,-0.00762,0.084981,-0.996353,0.007620077038052944
1762015689.112521,-0.043769,-0.00116,-0.065732,0.996876,-0.092813,-0.016699,-0.012934,-0.008025,0.018883,-0.00512,-0.008066,0.087112,-0.996166,0.008066086414912996
1762015689.143104,-0.044582,-0.001242,-0.06587,0.996831,-0.06051,-0.004529,-0.012956,-0.006913,0.016611,-0.006978,-0.00835,0.088718,-0.996022,0.008350095236090656
1762015689.200352,-0.045097,-0.00115,-0.065967,0.996802,-0.052988,0.007837,-0.013447,-0.006983,0.017564,-0.005987,-0.008243,0.089753,-0.99593,0.00824309288520298
1762015689.200542,-0.045612,-0.001058,-0.066063,0.996772,-0.045465,0.020204,-0.013938,-0.007053,0.018516,-0.004998,-0.008135,0.090789,-0.995837,0.00813508911382152
1762015689.201046,-0.046053,-0.000818,-0.066176,0.996744,-0.034487,0.028199,-0.006782,-0.006091,0.014949,-0.006442,-0.007726,0.091698,-0.995757,0.007726076024706683
1762015689.233739,-0.046369,-0.000556,-0.066182,0.996729,-0.030224,0.019891,0.007235,-0.006606,0.016355,-0.006727,-0.007246,0.092361,-0.995699,0.007246065012896764
1762015689.233989,-0.0467,-0.000302,-0.066157,0.996716,-0.036314,0.028986,0.000261,-0.003983,0.018711,-0.001625,-0.006781,0.093053,-0.995638,0.0067810524097607445
1762015689.261641,-0.047089,2.6e-05,-0.066172,0.996697,-0.036843,0.032109,-0.004653,-0.004888,0.018095,-0.000962,-0.00618,0.09387,-0.995565,0.006180041073839716
1762015689.299457,-0.047407,0.000369,-0.066245,0.996677,-0.023632,0.040709,-0.002255,-0.00382,0.015997,0.002518,-0.005545,0.094549,-0.995505,0.005545027125286484
1762015689.301696,-0.047596,0.000832,-0.066272,0.996665,-0.018549,0.050376,-0.000334,-0.00161,0.020505,0.004323,-0.004651,0.094984,-0.995468,0.004651016463582172
1762015689.33754,-0.047836,0.001389,-0.066353,0.996648,-0.028048,0.058295,-0.008023,-0.001224,0.021291,0.004638,-0.003579,0.095536,-0.99542,0.0035790060070461935
1762015689.338558,-0.048144,0.001978,-0.066464,0.996625,-0.026945,0.060544,-0.012128,-0.001322,0.017104,0.005517,-0.002458,0.096227,-0.995356,0.0024580034042077405
1762015689.372574,-0.048365,0.002539,-0.066557,0.996607,-0.020679,0.051901,-0.005042,-5.5e-05,0.016236,0.002529,-0.001377,0.09674,-0.995309,0.001377000070800691
1762015689.372808,-0.048534,0.003015,-0.066616,0.996593,-0.013067,0.04781,-0.011906,0.005265,0.020885,0.005177,-0.000458,0.097139,-0.995271,0.0004579998881095729
1762015689.412273,-0.048649,0.003501,-0.066771,0.996576,-0.0103,0.051455,-0.026539,0.006083,0.0216,0.005584,0.000482,0.097432,-0.995242,-0.00048200005107497835
1762015689.41247,-0.04873,0.003979,-0.067045,0.996551,-0.008654,0.043664,-0.027284,0.004321,0.014215,0.000907,0.001396,0.097657,-0.995219,-0.0013960006653198271
1762015689.443002,-0.048767,0.004311,-0.067324,0.996529,-0.003796,0.025233,-0.023613,0.004757,0.008994,-0.003887,0.002027,0.097777,-0.995206,-0.002027001962831537
1762015689.449264,-0.04876,0.004479,-0.067588,0.996511,0.013381,0.01556,-0.025287,0.005509,0.005971,0.000324,0.002336,0.097785,-0.995205,-0.002336001709745177
1762015689.478204,-0.048561,0.004552,-0.067821,0.996505,0.029862,0.005006,-0.013773,0.00599,0.004426,0.000879,0.002485,0.097399,-0.995242,-0.002485003329187128
1762015689.508094,-0.048295,0.004621,-0.068015,0.996504,0.02046,0.016507,-0.022273,0.007176,0.006527,0.001277,0.002639,0.096882,-0.995292,-0.002639004050787988
1762015689.508713,-0.048272,0.004777,-0.068255,0.996488,-0.010536,0.015665,-0.018603,0.008025,0.002509,-0.002907,0.00293,0.096857,-0.995294,-0.0029300041779739424
1762015689.53927,-0.048428,0.004992,-0.068479,0.996464,-0.015458,0.019012,-0.019392,0.009089,-0.000228,-0.002176,0.003316,0.097196,-0.99526,-0.0033160052051729267
1762015689.570575,-0.048629,0.005197,-0.068625,0.996443,-0.018355,0.019884,-0.010354,0.008948,-0.000618,0.001714,0.003683,0.097626,-0.995216,-0.0036830096393467575
1762015689.571192,-0.04884,0.005362,-0.0687,0.996427,-0.030398,0.008157,-0.001972,0.005576,-0.003098,0.00528,0.003974,0.098067,-0.995172,-0.003974009985692151
1762015689.601548,-0.049229,0.005492,-0.068688,0.996408,-0.035237,0.013731,0.001616,0.006994,-0.005412,0.011823,0.004181,0.098859,-0.995093,-0.004181010798832546
1762015689.640305,-0.049422,0.005626,-0.068613,0.996403,-0.01845,0.010575,0.00674,0.007401,-0.005409,0.011407,0.004429,0.09926,-0.995052,-0.004429013048691069
1762015689.640568,-0.049614,0.005759,-0.068538,0.996397,-0.001662,0.007419,0.011864,0.007808,-0.005406,0.010991,0.004677,0.099661,-0.99501,-0.0046770191807870695
1762015689.6691,-0.049567,0.005905,-0.068391,0.996409,0.003087,0.013767,0.011387,0.00685,-0.000979,0.002421,0.004987,0.099586,-0.995017,-0.004987017998787779
1762015689.669932,-0.049636,0.006012,-0.068251,0.996415,-0.021026,0.008774,0.018002,0.004177,-0.000854,-0.002354,0.005205,0.099737,-0.995,-0.005205024644626679
1762015689.700504,-0.04987,0.006204,-0.068105,0.996412,-0.030082,0.016949,0.013867,0.003791,-0.005039,-0.006374,0.00557,0.100227,-0.994949,-0.005570028832402868
1762015689.730458,-0.050139,0.006456,-0.06791,0.99641,-0.026237,0.024392,0.01794,0.004297,-0.003706,-0.01208,0.006055,0.100795,-0.994889,-0.006055035736099695
1762015689.731249,-0.050461,0.006653,-0.067632,0.996411,-0.041278,0.005714,0.03215,0.002355,0.000589,-0.01562,0.006434,0.101459,-0.994819,-0.006434043851702091
1762015689.751506,-0.050859,0.006682,-0.067294,0.996414,-0.039608,-0.001333,0.03406,0.005376,0.001788,-0.001453,0.006472,0.102252,-0.994737,-0.006472048232864517
1762015689.780465,-0.051255,0.006785,-0.067036,0.99641,-0.037322,0.00342,0.021304,0.003799,0.001973,0.001342,0.006649,0.103053,-0.994654,-0.006649046632602584
1762015689.810338,-0.051443,0.006845,-0.066764,0.996418,-0.000532,0.011528,0.024486,0.005914,0.00197,0.014096,0.006772,0.103431,-0.994614,-0.006772048914890979
1762015689.811139,-0.051339,0.006924,-0.066537,0.996438,0.016885,-0.001407,0.024035,0.001062,0.00464,0.01499,0.006967,0.103233,-0.994633,-0.006967054983470833
1762015689.842543,-0.05111,0.006934,-0.066321,0.996464,0.019213,-0.005227,0.016945,0.000427,0.0081,0.018392,0.007039,0.102778,-0.994679,-0.007039061022440599
1762015689.8736,-0.050997,0.006843,-0.066171,0.996481,0.008183,-0.007473,0.008909,0.000114,0.003651,0.020085,0.006889,0.102541,-0.994705,-0.0068890539675565965
1762015689.903544,-0.051025,0.006775,-0.066113,0.996484,-0.002544,-0.008115,0.00636,-0.002439,0.001704,0.016698,0.006755,0.102587,-0.994701,-0.006755052041635263
1762015689.904008,-0.05115,0.006703,-0.066041,0.996483,-0.013045,-0.003536,0.009174,-0.003906,-0.002641,0.013442,0.006602,0.102826,-0.994677,-0.006602050908343407
1762015689.940758,-0.051362,0.00672,-0.065908,0.99648,-0.021481,0.005042,0.016431,-0.005772,-0.003326,0.008022,0.006623,0.103248,-0.994634,-0.006623045745255474
1762015689.946426,-0.051631,0.006828,-0.065701,0.996479,-0.030403,0.012883,0.024132,-0.005808,-2.2e-05,-0.001032,0.006824,0.103796,-0.994575,-0.006824054303491094
1762015689.975566,-0.052002,0.007031,-0.065442,0.996476,-0.044048,0.018127,0.026414,-0.004724,0.003464,-0.007899,0.007205,0.104557,-0.994493,-0.007205060878932735
1762015690.006361,-0.052481,0.007288,-0.065218,0.996463,-0.052713,0.02304,0.020538,-0.004797,0.006096,-0.013016,0.007678,0.105542,-0.994385,-0.007678077000442091
1762015690.007083,-0.052975,0.007534,-0.065063,0.996446,-0.049452,0.018947,0.011075,-0.003428,0.008598,-0.01435,0.008121,0.106554,-0.994274,-0.00812108726644034
1762015690.036642,-0.053412,0.00771,-0.065011,0.996424,-0.039614,0.010683,-0.00172,-0.00232,0.009209,-0.01359,0.00842,0.107444,-0.994175,-0.008420103535523926
1762015690.080301,-0.053691,0.007721,-0.065179,0.996398,-0.028299,0.004791,-0.014573,-0.001452,0.00807,-0.006649,0.008387,0.108001,-0.994115,-0.00838710172186581
1762015690.080579,-0.05397,0.007732,-0.065346,0.996372,-0.016983,-0.001102,-0.027426,-0.000585,0.006932,0.000292,0.008354,0.108558,-0.994055,-0.00835409729123509
1762015690.087127,-0.054144,0.007692,-0.065635,0.996344,-0.010268,-0.002751,-0.030199,0.000995,0.002579,0.006202,0.008221,0.108903,-0.994018,-0.008221095759925752
1762015690.115369,-0.054221,0.007655,-0.065922,0.996321,-0.002452,-0.001247,-0.025734,0.002211,-0.00088,0.009028,0.008104,0.109052,-0.994003,-0.008104088798461948
1762015690.14441,-0.054277,0.007589,-0.066193,0.996301,-0.002848,-0.004976,-0.024226,0.002559,-0.001838,0.010376,0.007937,0.109157,-0.993993,-0.007937082023237091
1762015690.146134,-0.054349,0.007556,-0.066419,0.996282,-0.006158,-0.001627,-0.018844,0.002554,-0.001964,0.010656,0.007836,0.109298,-0.993978,-0.007836081290751048
1762015690.176506,-0.054458,0.007542,-0.06657,0.996266,-0.007804,-8e-05,-0.010338,0.002389,-0.002462,0.008976,0.007777,0.109513,-0.993955,-0.007777077926311529
1762015690.237805,-0.054616,0.007657,-0.066516,0.99626,-0.010902,0.00464,-0.003121,0.002066,-0.002102,0.006256,0.00799,0.109841,-0.993917,-0.007990085462551174
1762015690.238161,-0.054774,0.007771,-0.066462,0.996254,-0.013999,0.00936,0.004097,0.001743,-0.001742,0.003536,0.008203,0.11017,-0.993879,-0.008203091240571806
1762015690.23865,-0.054932,0.007886,-0.066408,0.996248,-0.017097,0.014079,0.011314,0.00142,-0.001382,0.000817,0.008416,0.110498,-0.993841,-0.008416096952643691
1762015690.269008,-0.055046,0.008053,-0.066306,0.996247,-0.004506,0.016237,0.011001,0.002813,-0.001093,-0.001066,0.008746,0.110747,-0.99381,-0.008746112787407258
1762015690.26926,-0.055034,0.008225,-0.066241,0.996251,0.003165,0.012335,0.005506,0.002592,0.003094,-0.002385,0.009098,0.110744,-0.993807,-0.009098128426762457
1762015690.304816,-0.054987,0.00834,-0.066245,0.996252,0.000823,0.007009,-0.005079,0.002842,0.004343,-0.002249,0.009332,0.110666,-0.993814,-0.009332133977141038
1762015690.306729,-0.055026,0.008366,-0.06635,0.996243,-0.004331,0.00083,-0.014461,0.003069,0.002958,0.001333,0.009367,0.110748,-0.993804,-0.009367140493176305
1762015690.33537,-0.055077,0.008344,-0.066528,0.996228,-0.002648,-0.006234,-0.016837,0.001917,0.000313,0.001722,0.009296,0.110849,-0.993794,-0.009296131889110479
1762015690.344358,-0.055097,0.008247,-0.066708,0.996216,0.001199,-0.010815,-0.016005,0.002087,-0.000661,0.006406,0.009082,0.110877,-0.993793,-0.00908212159222563
1762015690.374573,-0.055129,0.008186,-0.066861,0.996205,-0.006836,-0.000837,-0.015506,0.002458,-0.001406,0.009649,0.008937,0.110934,-0.993788,-0.008937115345296755
1762015690.413993,-0.055248,0.008277,-0.066911,0.996194,-0.009909,0.004913,-0.005371,0.002479,-8.1e-05,0.006515,0.009097,0.111183,-0.993758,-0.00909712830739796
1762015690.414275,-0.055367,0.008368,-0.066962,0.996183,-0.012982,0.010663,0.004764,0.002499,0.001244,0.003382,0.009258,0.111433,-0.993729,-0.00925813063862478
1762015690.443048,-0.05553,0.008507,-0.066901,0.996177,-0.019361,0.012355,0.012428,0.003257,0.004122,0.000586,0.00952,0.111775,-0.993688,-0.009520143223596903
1762015690.44375,-0.055741,0.008659,-0.066784,0.996172,-0.026765,0.011575,0.013447,0.004321,0.006048,-0.001973,0.009807,0.112211,-0.993636,-0.009807157275865442
1762015690.474216,-0.055983,0.008818,-0.066682,0.996163,-0.021779,0.009054,0.009578,0.003571,0.00484,-0.000438,0.010102,0.112713,-0.993576,-0.010102174157663143
1762015690.536884,-0.056054,0.008878,-0.066624,0.996163,-0.015653,0.007132,0.006576,0.002888,0.003832,0.000183,0.01022,0.11286,-0.993558,-0.010220181356155173
1762015690.53701,-0.056124,0.008939,-0.066567,0.996162,-0.009528,0.005211,0.003575,0.002205,0.002824,0.000804,0.010338,0.113008,-0.99354,-0.010338187182851885
1762015690.537286,-0.056195,0.009,-0.066509,0.996161,-0.003402,0.00329,0.000573,0.001521,0.001817,0.001425,0.010455,0.113155,-0.993522,-0.01045519400282593
1762015690.541217,-0.056224,0.009048,-0.066493,0.99616,-0.000528,0.002543,0.000849,0.000363,0.000676,0.002262,0.010549,0.11322,-0.993514,-0.010549195038638309
1762015690.570529,-0.056238,0.009086,-0.066466,0.996161,-0.002465,0.001166,0.001506,0.000802,0.000501,0.001654,0.010627,0.113251,-0.99351,-0.010627195558120502
1762015690.600515,-0.056284,0.009113,-0.066468,0.996158,-0.006598,0.000319,0.003117,-0.00068,-0.002237,0.000569,0.010673,0.113347,-0.993498,-0.010673204076278368
1762015690.601181,-0.05639,0.009115,-0.066424,0.996155,-0.008439,-0.006848,0.004152,-0.000353,-0.002657,0.00359,0.010668,0.113557,-0.993474,-0.01066820456010299
1762015690.63424,-0.056451,0.009105,-0.066356,0.996156,-0.000834,0.001445,0.004371,0.000487,-0.001328,0.008354,0.010649,0.113676,-0.993461,-0.010649199187464643
1762015690.640101,-0.056448,0.009151,-0.066324,0.996158,0.000194,0.00419,0.004828,0.000447,-0.000469,0.005052,0.010745,0.113676,-0.99346,-0.010745204302102136
1762015690.669218,-0.056462,0.009205,-0.066279,0.99616,-0.006722,0.003742,0.002101,0.00014,0.001938,0.002387,0.010854,0.11371,-0.993455,-0.010854209815294715
1762015690.70049,-0.056581,0.009234,-0.06625,0.996155,-0.013765,0.001297,0.000906,0.000913,0.000645,0.002092,0.010901,0.113951,-0.993427,-0.010901211185818114
1762015690.700747,-0.05673,0.00928,-0.066224,0.996148,-0.012242,-0.000831,0.002289,0.000371,0.000262,0.000849,0.010974,0.114253,-0.993391,-0.010974221068543177
1762015690.732977,-0.056863,0.009277,-0.06621,0.996141,-0.010393,-0.002157,0.001852,0.000787,0.001622,-0.000249,0.010952,0.114516,-0.993361,-0.010952219299465714
1762015690.747713,-0.057002,0.009274,-0.066222,0.996132,-0.013572,-0.003129,-0.000216,0.000602,0.001618,-0.000192,0.010927,0.114792,-0.993329,-0.010927222348796865
1762015690.776723,-0.057174,0.009263,-0.066237,0.996122,-0.017969,-0.00193,-0.001491,0.00087,0.000849,0.004028,0.010879,0.115131,-0.993291,-0.010879211827557774
1762015690.777339,-0.057327,0.009322,-0.066259,0.996111,-0.011127,0.008458,0.00126,0.00131,-0.000668,0.005301,0.010974,0.115444,-0.993253,-0.010974224293696317
1762015690.836782,-0.057402,0.00947,-0.066224,0.996107,-0.011308,0.011509,0.001146,0.002208,0.001705,0.004033,0.011264,0.115612,-0.993231,-0.011264233521457473
1762015690.837118,-0.057477,0.009619,-0.066188,0.996104,-0.01149,0.01456,0.001031,0.003106,0.004077,0.002764,0.011553,0.11578,-0.993208,-0.011553253482997558
1762015690.83742,-0.057592,0.009764,-0.0662,0.996095,-0.014762,0.012015,-0.002623,0.003561,0.003255,0.003196,0.011827,0.116028,-0.993176,-0.0118272701710044
1762015690.868659,-0.057709,0.009869,-0.066232,0.996085,-0.012167,0.006937,-0.004434,0.00375,0.002044,0.001684,0.012017,0.116274,-0.993145,-0.012017282980883707
1762015690.898248,-0.057812,0.009918,-0.06627,0.996076,-0.007962,0.003343,-0.004677,0.004118,0.002576,0.001006,0.012096,0.116485,-0.993119,-0.01209629246707363
1762015690.900143,-0.057925,0.009919,-0.066314,0.996067,-0.014357,-0.004326,-0.003228,0.004259,0.00278,0.000745,0.012077,0.11671,-0.993093,-0.012077288860299745
1762015690.92928,-0.058117,0.009879,-0.066356,0.996053,-0.020902,-0.00589,-0.001239,0.003918,0.000453,0.001264,0.011967,0.117086,-0.99305,-0.011967281801362374
1762015690.968735,-0.058326,0.009846,-0.066362,0.996041,-0.015822,-0.004877,0.000905,0.003647,0.000439,0.002316,0.011873,0.117496,-0.993002,-0.011873283421936375
1762015690.969927,-0.058466,0.009834,-0.066325,0.996035,-0.011018,-0.006288,0.007521,0.002501,0.000547,0.000661,0.011834,0.117773,-0.99297,-0.011834276561445853
1762015690.984527,-0.058584,0.009777,-0.066217,0.996036,-0.009232,-0.006813,0.009981,0.003089,0.001846,0.000713,0.011717,0.117999,-0.992945,-0.0117172632830559
1762015691.014421,-0.058677,0.009735,-0.066115,0.996038,-0.00707,-0.00465,0.008759,0.003306,0.002325,0.000732,0.011633,0.118177,-0.992924,-0.011633267046590673
1762015691.046578,-0.058744,0.009705,-0.066035,0.996039,-0.002214,-0.004363,0.007714,0.00156,0.002355,0.001473,0.011575,0.118304,-0.99291,-0.011575257993754
1762015691.046889,-0.058771,0.009666,-0.065962,0.996043,0.000452,-0.003954,0.005384,0.001233,0.003403,0.001643,0.011502,0.118352,-0.992905,-0.011502254598907921
1762015691.079299,-0.058782,0.009603,-0.065914,0.996046,-0.000384,-0.006285,0.004946,0.00098,0.003737,0.000825,0.01138,0.118365,-0.992905,-0.011380244977212727
1762015691.079788,-0.058803,0.009528,-0.065889,0.996047,-0.00411,-0.002594,0.001463,0.000469,0.002296,0.002943,0.011231,0.118396,-0.992903,-0.011231235468661671
1762015691.13663,-0.058807,0.009527,-0.06589,0.996047,-0.000994,-0.0028,0.002377,-0.000395,0.000874,0.001632,0.011229,0.118404,-0.992902,-0.011229236108097368
1762015691.136989,-0.05881,0.009526,-0.065891,0.996047,0.002122,-0.003007,0.003291,-0.001259,-0.000549,0.000321,0.011226,0.118411,-0.992901,-0.011226238138837667
1762015691.139734,-0.058782,0.009506,-0.065855,0.996051,0.004335,0.000175,0.000513,-0.000168,0.000853,0.003697,0.011195,0.118352,-0.992909,-0.011195229341355153
1762015691.169237,-0.058756,0.009507,-0.065864,0.996052,0.000262,-0.000344,0.00038,-0.000661,8.7e-05,0.001357,0.011199,0.1183,-0.992915,-0.011199231278215519
1762015691.199361,-0.058731,0.009464,-0.065867,0.996054,0.005322,-0.003204,0.000407,1.7e-05,-0.000863,0.004179,0.011117,0.118245,-0.992922,-0.011117231413787473
1762015691.199771,-0.058673,0.009467,-0.065899,0.996055,0.003706,0.003472,-0.004122,5.7e-05,0.001183,0.004577,0.011127,0.118131,-0.992936,-0.01112722603897967
1762015691.231317,-0.058685,0.009509,-0.065922,0.996052,-0.006798,0.003352,-0.003051,0.000403,0.001981,0.002776,0.011206,0.11816,-0.992931,-0.011206238294224034
1762015691.260513,-0.058815,0.009588,-0.065975,0.99604,-0.018616,0.00544,-0.006236,0.00098,0.003379,0.002996,0.011339,0.118429,-0.992898,-0.01133924050430645
1762015691.261985,-0.059018,0.009668,-0.066028,0.996024,-0.018106,0.002653,-0.004937,0.000535,0.00067,0.001428,0.011466,0.118843,-0.992847,-0.011466249571315772
1762015691.302115,-0.059163,0.009701,-0.066089,0.996011,-0.009226,0.004659,-0.005999,0.001728,0.002713,0.001997,0.011504,0.119137,-0.992811,-0.01150425578079912
1762015691.303851,-0.059223,0.009739,-0.066169,0.996002,-0.003774,0.001192,-0.007491,0.003362,0.003787,0.001966,0.011562,0.119261,-0.992796,-0.01156225320200254
1762015691.356083,-0.05927,0.009757,-0.066245,0.995994,-0.004255,0.001221,-0.005288,0.002291,0.002041,0.002555,0.011583,0.119358,-0.992784,-0.011583255728989694
1762015691.356365,-0.059318,0.009775,-0.06632,0.995986,-0.004736,0.00125,-0.003085,0.001221,0.000295,0.003144,0.011604,0.119456,-0.992772,-0.01160425676294743
1762015691.357826,-0.05935,0.009773,-0.066321,0.995984,-0.001472,0.002391,0.002849,0.000967,-0.000725,0.002853,0.011595,0.11952,-0.992764,-0.011595260790546487
1762015691.386885,-0.059378,0.009813,-0.066285,0.995984,-0.003183,0.002851,0.006058,0.002115,0.001912,0.002917,0.011676,0.119581,-0.992756,-0.011676262859911435
1762015691.438782,-0.059525,0.009861,-0.066216,0.995979,-0.010204,9e-05,0.007226,0.001097,-0.000431,0.000363,0.011761,0.119877,-0.992719,-0.011761272153722885
1762015691.439239,-0.059672,0.00991,-0.066147,0.995975,-0.017224,-0.002671,0.008394,8e-05,-0.002773,-0.002191,0.011846,0.120174,-0.992682,-0.011846279019301097
1762015691.440167,-0.059821,0.009837,-0.066075,0.995971,-0.008665,-0.011303,0.012457,0.001508,-0.001863,0.001668,0.01169,0.12046,-0.992649,-0.011690270331142784
1762015691.47022,-0.059886,0.009776,-0.065982,0.995974,-0.004713,-0.001909,0.001856,0.001941,0.00152,0.004633,0.011571,0.120579,-0.992636,-0.011571261622032673
1762015691.476774,-0.059955,0.009772,-0.065971,0.995971,-0.008979,3.9e-05,0.000668,0.000932,3.4e-05,0.002778,0.011554,0.120716,-0.99262,-0.011554255279771702
1762015691.506877,-0.060043,0.009803,-0.065973,0.995965,-0.004595,0.000368,-0.002535,0.000959,-0.001333,0.002248,0.011604,0.120895,-0.992597,-0.01160426589873242
1762015691.537348,-0.060087,0.009804,-0.06595,0.995964,-0.007811,-0.005251,0.003613,0.000775,-0.000196,-0.000481,0.011603,0.120982,-0.992587,-0.011603259052860151
1762015691.538483,-0.060205,0.009747,-0.065941,0.995958,-0.011505,-0.0088,0.00279,0.002126,0.001116,2.6e-05,0.011476,0.121208,-0.992561,-0.011476249520022274
1762015691.567228,-0.060379,0.009664,-0.065928,0.995949,-0.017311,-0.010302,0.000256,0.002132,0.00135,0.002275,0.011288,0.121543,-0.992522,-0.01128823950391487
1762015691.597671,-0.060498,0.009567,-0.065919,0.995943,-0.006617,-0.005546,0.000523,0.000871,0.000456,0.002608,0.011081,0.121766,-0.992497,-0.011081226548016873
1762015691.636214,-0.060509,0.009546,-0.065842,0.995948,-0.003045,-0.000451,0.004824,0.000963,0.001655,0.004339,0.011046,0.121785,-0.992495,-0.01104622505255071
1762015691.636646,-0.060521,0.009525,-0.065765,0.995953,0.000528,0.004644,0.009125,0.001055,0.002854,0.00607,0.011012,0.121805,-0.992493,-0.011012222147083287
1762015691.637794,-0.060491,0.009601,-0.065673,0.99596,0.0037,0.007798,0.008746,0.001008,0.002595,0.004984,0.011179,0.121754,-0.992497,-0.011179236757252655
1762015691.666522,-0.060413,0.009714,-0.065588,0.995969,0.009693,0.010331,0.005661,0.001197,0.003694,0.003568,0.011426,0.121612,-0.992512,-0.01142624804824231
1762015691.674309,-0.060301,0.009798,-0.065584,0.995975,0.010579,0.008567,-0.003363,0.002673,0.005549,0.000799,0.011608,0.121401,-0.992536,-0.011608256874243881
1762015691.702846,-0.060216,0.009868,-0.06563,0.995977,0.005575,0.00418,-0.006701,0.001975,0.004542,0.000358,0.011752,0.121242,-0.992553,-0.011752275287909642
1762015691.765249,-0.06018,0.00986,-0.065696,0.995974,0.007225,0.003091,-0.005058,0.002307,0.00138,0.002207,0.011732,0.121172,-0.992562,-0.011732271393761628
1762015691.765374,-0.060145,0.009851,-0.065763,0.995972,0.008876,0.002002,-0.003416,0.00264,-0.001781,0.004056,0.011713,0.121101,-0.992571,-0.011713268799763725
1762015691.76545,-0.060081,0.009865,-0.065773,0.995975,0.003576,0.002097,0.002148,0.001422,-0.001259,0.004081,0.011747,0.120977,-0.992586,-0.011747267868202307
1762015691.794166,-0.060068,0.009892,-0.065747,0.995978,-0.001512,0.005349,0.006027,0.001307,-0.001087,0.005147,0.011806,0.120953,-0.992588,-0.01180627458320609
1762015691.795938,-0.060105,0.00999,-0.065659,0.99598,-0.003184,0.00931,0.010097,0.001296,-0.00218,0.003252,0.012006,0.121039,-0.992575,-0.012006290166816237
1762015691.825668,-0.060136,0.010106,-0.065541,0.995985,-0.001246,0.007514,0.009669,0.000727,0.0014,0.002182,0.012248,0.121114,-0.992563,-0.012248306716951263
1762015691.832507,-0.060163,0.010177,-0.065474,0.995987,-0.006524,0.007537,0.006004,0.000259,0.003206,0.001954,0.012395,0.121176,-0.992554,-0.012395313057904023
1762015691.863842,-0.060283,0.010246,-0.065468,0.995979,-0.016487,0.001121,-0.000878,-0.000856,0.001509,0.001609,0.012517,0.121422,-0.992522,-0.012517327513123898
1762015691.89377,-0.060459,0.010277,-0.065494,0.995967,-0.014144,0.001268,-0.00304,0.000164,0.00041,0.002504,0.012552,0.121777,-0.992478,-0.012552331061465624
1762015691.895458,-0.060551,0.010328,-0.065531,0.995958,-0.00815,0.005483,-0.002278,-0.000503,0.002244,0.001588,0.012637,0.121966,-0.992454,-0.012637334210826606
1762015691.924321,-0.060664,0.010402,-0.065573,0.995948,-0.011508,0.008338,-0.004933,0.000755,0.003656,0.00171,0.012764,0.1222,-0.992423,-0.012764351903417638
1762015691.954048,-0.060819,0.010499,-0.065619,0.995934,-0.019601,0.006397,-0.004173,0.00014,0.000677,0.000317,0.012931,0.122522,-0.992382,-0.012931354670641968
1762015691.956276,-0.060983,0.0106,-0.065666,0.99592,-0.011494,0.004465,-0.000842,0.001007,-0.002535,0.000612,0.013105,0.122861,-0.992337,-0.013105379806355118
1762015691.987536,-0.061034,0.010667,-0.065631,0.995919,-0.001446,0.006969,0.005224,0.000522,-0.000332,0.002356,0.013235,0.122971,-0.992322,-0.013235386523295686
1762015691.992122,-0.061023,0.010771,-0.065605,0.99592,-0.0028,0.009995,0.003164,-0.0001,0.001087,0.001534,0.013448,0.122962,-0.99232,-0.013448408841433676
1762015692.038744,-0.061122,0.010849,-0.065593,0.995914,-0.010095,0.004515,0.000691,0.000158,0.000236,0.001392,0.013592,0.123167,-0.992293,-0.013592416837527942
1762015692.040582,-0.061237,0.010955,-0.065596,0.995905,-0.006348,0.005256,0.001786,-0.000601,-0.002618,0.001626,0.013786,0.12341,-0.99226,-0.013786436790033857
1762015692.095504,-0.061205,0.010972,-0.06556,0.995909,-0.005335,0.008228,0.000346,0.00035,0.00048,0.002931,0.01383,0.123348,-0.992267,-0.013830442314618548
1762015692.095697,-0.061173,0.01099,-0.065524,0.995914,-0.004321,0.0112,-0.001094,0.001302,0.003579,0.004235,0.013873,0.123286,-0.992274,-0.013873447889609309
1762015692.095962,-0.061309,0.011139,-0.065541,0.995902,-0.022158,0.01686,-0.002401,-0.000105,0.002285,0.002363,0.014149,0.123576,-0.992234,-0.01414947543983869
1762015692.125409,-0.061595,0.011333,-0.065562,0.995881,-0.034001,0.01334,-0.002158,0.00156,0.000843,6e-05,0.014497,0.124168,-0.992155,-0.014497512191824212
1762015692.129938,-0.061924,0.011498,-0.065585,0.995857,-0.032123,0.014025,-0.0003,0.003181,0.002365,0.000652,0.014778,0.124843,-0.992066,-0.014778544505692178
1762015692.162883,-0.062261,0.011592,-0.06558,0.995836,-0.036964,0.000992,-0.002274,0.003632,0.003919,-0.000592,0.014922,0.125524,-0.991978,-0.014922559100488592
1762015692.192857,-0.06262,0.011612,-0.065607,0.995811,-0.030397,-0.000841,-0.003624,0.00496,0.003901,0.000905,0.01491,0.126238,-0.991888,-0.01491055140765839
1762015692.193604,-0.062852,0.01163,-0.065657,0.995793,-0.018181,-0.001121,-0.001831,0.003271,0.001993,0.002705,0.014908,0.126703,-0.991829,-0.014908547319222866
1762015692.224206,-0.063031,0.011587,-0.065646,0.995783,-0.011771,-0.003382,0.001458,0.001633,0.001286,0.004406,0.014801,0.127051,-0.991786,-0.014801536790441206
1762015692.22872,-0.063118,0.011559,-0.065603,0.99578,-0.005771,-0.001872,0.00343,0.000155,0.001429,0.002904,0.014738,0.127219,-0.991765,-0.014738535815922356
1762015692.257829,-0.063151,0.011574,-0.065537,0.995783,-0.001464,-0.00049,0.005534,0.000445,0.001597,0.000149,0.014773,0.127287,-0.991756,-0.01477353602993945
1762015692.287882,-0.063204,0.01155,-0.065422,0.995787,-0.007085,-0.003694,0.008108,-0.000958,0.003775,0.001255,0.014732,0.127386,-0.991744,-0.01473253009131614
1762015692.289441,-0.063319,0.011579,-0.065388,0.995782,-0.009583,0.007328,-0.003411,-0.0001,0.001648,0.002601,0.01478,0.127619,-0.991713,-0.014780540145383615
1762015692.336352,-0.063377,0.011625,-0.065306,0.995783,-0.004352,-0.005971,0.010891,-0.00069,0.000579,-0.002923,0.014875,0.127738,-0.991696,-0.01487555442066519
1762015692.338864,-0.063365,0.011556,-0.065202,0.995791,0.005632,-0.002511,0.009063,0.001359,0.001853,0.00595,0.014753,0.127704,-0.991703,-0.01475352929723263
1762015692.368004,-0.063296,0.011605,-0.065203,0.995795,-0.001739,0.008627,-0.006015,-0.000332,0.002695,0.002949,0.014858,0.127573,-0.991718,-0.01485854508052172
1762015692.369723,-0.06333,0.011743,-0.065302,0.995785,-0.002244,0.009391,-0.007048,0.000586,-0.000999,0.00146,0.015116,0.12766,-0.991703,-0.015116572616800465
1762015692.399398,-0.063305,0.011834,-0.06537,0.995781,0.008121,0.003274,-0.004436,0.000751,-0.00188,0.000722,0.015292,0.127624,-0.991705,-0.015292591944889192
1762015692.429956,-0.063234,0.011828,-0.065402,0.995783,0.002568,-0.001883,-0.003109,0.0004,0.000725,-0.002058,0.015285,0.127482,-0.991723,-0.015285596764681556
1762015692.431776,-0.063297,0.011748,-0.06548,0.995775,-0.011907,-0.008266,-0.004579,0.001333,0.003256,0.002232,0.015108,0.127597,-0.991711,-0.0151085751473221
1762015692.460662,-0.06346,0.01174,-0.065531,0.995761,-0.013282,-0.00036,-0.004931,0.000302,-0.001913,0.003515,0.015063,0.12792,-0.99167,-0.015063571112129985
1762015692.490548,-0.063534,0.011757,-0.065556,0.995755,0.000518,0.005941,0.004866,0.000415,7.8e-05,0.002749,0.015085,0.12807,-0.99165,-0.015085578175185183
1762015692.490985,-0.063491,0.011834,-0.065498,0.99576,0.0049,0.007448,0.007203,0.001371,0.001882,-0.000245,0.015251,0.127994,-0.991658,-0.015251586347880751
1762015692.525309,-0.063444,0.011951,-0.065454,0.995765,0.006912,0.010999,0.001265,0.001996,0.007144,0.001407,0.015495,0.127915,-0.991664,-0.01549562142075666
1762015692.526121,-0.063273,0.01204,-0.065489,0.995772,0.020976,0.009954,-0.003698,0.002122,0.010156,-0.004292,0.015691,0.127588,-0.991703,-0.015691645942388616
1762015692.587854,-0.063007,0.012115,-0.065482,0.995789,0.036762,0.00643,0.008024,0.002952,0.022838,-0.011386,0.015876,0.12707,-0.991767,-0.01587666211398126
1762015692.588617,-0.062752,0.012064,-0.065506,0.995804,0.032208,-0.005339,-0.004782,0.004461,0.037653,-0.019756,0.015805,0.126558,-0.991833,-0.015805662625918062
1762015692.65932,-0.061753,0.011894,-0.065593,0.995863,0.080892,-0.007813,-0.005048,0.004816,0.039486,-0.017852,0.015588,0.124555,-0.99209,-0.015588635228905221
1762015692.659623,-0.060754,0.011724,-0.06568,0.99592,0.129575,-0.010287,-0.005313,0.00517,0.04132,-0.015953,0.015371,0.122552,-0.992343,-0.015371606188231886
1762015692.659935,-0.059755,0.011553,-0.065767,0.995977,0.178259,-0.012761,-0.005579,0.005524,0.043154,-0.014057,0.015154,0.120549,-0.992592,-0.015154575641125167
1762015692.689284,-0.057977,0.011365,-0.065793,0.996083,0.232212,-0.003988,0.002063,0.009085,0.054863,-0.012749,0.015012,0.116995,-0.993019,-0.015012564474810955
1762015692.689657,-0.055678,0.011162,-0.065841,0.996213,0.261357,-0.004751,-0.007269,0.010992,0.064774,-0.015566,0.014908,0.112404,-0.993551,-0.014908548561442215
1762015692.72119,-0.053012,0.010901,-0.065929,0.996356,0.294155,-0.013938,-0.008473,0.010615,0.064304,-0.016113,0.014733,0.107075,-0.994142,-0.014733529855449082
1762015692.725728,-0.049912,0.010487,-0.066,0.996515,0.346432,-0.02663,-0.001926,0.010663,0.058877,-0.012534,0.014313,0.100861,-0.994798,-0.01431348255876638
1762015692.755819,-0.046212,0.009931,-0.065976,0.996701,0.408962,-0.034749,0.012337,0.009758,0.057448,-0.010708,0.013698,0.093429,-0.995532,-0.01369842446010964
1762015692.770102,-0.042016,0.009262,-0.065845,0.996902,0.446804,-0.04674,0.022824,0.009237,0.065079,-0.013138,0.012934,0.084992,-0.996298,-0.012934356549682452
1762015692.799982,-0.037566,0.008403,-0.065599,0.997103,0.463654,-0.065137,0.027239,0.00936,0.076866,-0.012204,0.011828,0.076016,-0.997036,-0.011828281019817673
1762015692.806006,-0.03292,0.007403,-0.065359,0.997291,0.489424,-0.072623,0.026569,0.010215,0.078567,-0.008373,0.010462,0.066629,-0.997723,-0.010462190536355902
1762015692.836574,-0.027961,0.006358,-0.06514,0.997464,0.530714,-0.071077,0.020066,0.01201,0.075624,-0.002528,0.009041,0.056609,-0.998356,-0.00904111855564391
1762015692.866651,-0.022569,0.005312,-0.064991,0.997616,0.579819,-0.07281,0.017001,0.009955,0.065955,-0.000723,0.007666,0.045721,-0.998925,-0.007666073810822598
1762015692.866822,-0.016709,0.004181,-0.06478,0.997751,0.620567,-0.082467,0.02294,0.00874,0.064763,-0.001103,0.006178,0.033884,-0.999407,-0.0061780373088767
1762015692.895304,-0.010524,0.002937,-0.064526,0.997856,0.65287,-0.08731,0.023753,0.009453,0.066172,0.003636,0.004504,0.021382,-0.999761,-0.004504016279732687
1762015692.940062,-0.003851,0.00153,-0.06438,0.997917,0.685158,-0.097579,0.014174,0.008289,0.059539,0.006761,0.002558,0.007883,-0.999966,-0.0025580019119986687
1762015692.940478,0.002823,0.000123,-0.064231,0.997931,0.717446,-0.107849,0.004595,0.00713,0.052907,0.009699,0.000608,-0.005618,-0.999984,-0.0006080000581787206
1762015692.94448,0.009917,-0.001434,-0.064187,0.997888,0.754476,-0.11626,-0.003063,0.006338,0.042284,0.01789,-0.00159,-0.019976,-0.999799,0.001590000980731531
1762015692.973276,0.017385,-0.003082,-0.064254,0.997777,0.783815,-0.116095,-0.013219,0.005003,0.033496,0.021661,-0.003915,-0.035089,-0.999377,0.003915008135034513
1762015692.985544,0.025106,-0.00471,-0.064433,0.997595,0.796148,-0.112468,-0.024725,0.005698,0.027119,0.019909,-0.006162,-0.050698,-0.998695,0.006162039117891906
1762015693.015612,0.032832,-0.006341,-0.064741,0.997342,0.779254,-0.115939,-0.039239,0.006334,0.027467,0.017368,-0.008398,-0.06631,-0.997764,0.008398096439812625
1762015693.047044,0.040352,-0.007949,-0.065224,0.997023,0.755252,-0.112596,-0.058152,0.003905,0.02194,0.019194,-0.010587,-0.0815,-0.996617,0.010587198951761424
1762015693.047291,0.047617,-0.00953,-0.065849,0.996647,0.72716,-0.1176,-0.066105,0.001677,0.010667,0.016406,-0.012725,-0.096169,-0.995284,0.012725339351877621
1762015693.081663,0.054613,-0.011168,-0.066524,0.996226,0.699865,-0.124726,-0.070312,-0.000556,-0.002473,0.019192,-0.014985,-0.1103,-0.993785,0.014985566367607023
1762015693.082333,0.061337,-0.012846,-0.067208,0.995769,0.672936,-0.126382,-0.066947,6.6e-05,-0.013089,0.020812,-0.01734,-0.123881,-0.992146,0.017340861586079854
1762015693.112795,0.067747,-0.014545,-0.067842,0.995287,0.63682,-0.130295,-0.063143,0.000617,-0.019785,0.022751,-0.01976,-0.136829,-0.990398,0.019761277918724035
1762015693.143019,0.073768,-0.016202,-0.068434,0.994793,0.594108,-0.126308,-0.056089,0.001139,-0.02268,0.022001,-0.022139,-0.148985,-0.988592,0.022140799970195923
1762015693.144851,0.079315,-0.01778,-0.06899,0.9943,0.5372,-0.120074,-0.054402,0.000496,-0.023443,0.020983,-0.024414,-0.160179,-0.986786,0.024416426375849506
1762015693.176237,0.084251,-0.019255,-0.069513,0.99383,0.473829,-0.116164,-0.048632,-0.003067,-0.026919,0.019216,-0.02656,-0.17014,-0.985062,0.026563121093443755
1762015693.197789,0.088605,-0.020646,-0.069955,0.993393,0.4209,-0.10721,-0.033923,-0.005576,-0.035748,0.019333,-0.028623,-0.178927,-0.983446,0.028626907187272024
1762015693.201102,0.092563,-0.021916,-0.07019,0.992988,0.385985,-0.097343,-0.008538,-0.006063,-0.044354,0.017143,-0.03053,-0.186905,-0.981903,0.030534759064123344
1762015693.239939,0.096159,-0.023113,-0.070158,0.992621,0.352763,-0.086653,0.013713,-0.006699,-0.046588,0.020155,-0.032393,-0.194142,-0.980438,0.032398682381602734
1762015693.241809,0.099463,-0.024131,-0.069893,0.99229,0.324573,-0.066694,0.042283,-0.007182,-0.046787,0.018251,-0.033986,-0.200766,-0.979049,0.033992563334877844
1762015693.273157,0.102503,-0.024994,-0.069324,0.991999,0.292035,-0.047378,0.06119,-0.004965,-0.033119,0.019981,-0.035377,-0.206832,-0.977737,0.03538437190477069
1762015693.304874,0.105161,-0.025632,-0.06866,0.991751,0.244272,-0.03026,0.064363,-0.009178,-0.032759,0.014933,-0.0364,-0.212107,-0.976568,0.03640805384935778
1762015693.306686,0.107456,-0.026157,-0.067993,0.991537,0.222931,-0.030061,0.059766,-0.012338,-0.043569,0.011525,-0.037259,-0.21665,-0.975538,0.03726762897501927
1762015693.335633,0.109741,-0.026778,-0.067368,0.991313,0.247771,-0.053287,0.069181,-0.014816,-0.061201,0.013337,-0.038304,-0.221183,-0.97448,0.03831336536755819
1762015693.343167,0.112491,-0.027657,-0.066647,0.991029,0.314806,-0.06032,0.068406,-0.008396,-0.061081,0.026427,-0.039824,-0.22665,-0.973162,0.03983452500311136
1762015693.373268,0.115877,-0.028507,-0.066041,0.990656,0.36934,-0.048473,0.044477,-0.003324,-0.051725,0.031913,-0.041176,-0.233353,-0.97152,0.041187640245179215
1762015693.404121,0.119737,-0.029171,-0.06567,0.990202,0.408539,-0.029469,0.01484,-0.000566,-0.045036,0.02904,-0.042045,-0.240958,-0.969624,0.04205741356412393
1762015693.404312,0.123919,-0.029722,-0.065606,0.989675,0.426366,-0.026187,-0.018907,-0.000959,-0.04191,0.023121,-0.04257,-0.249179,-0.967521,0.04258288376220186
1762015693.43166,0.128199,-0.030269,-0.065863,0.989096,0.429284,-0.03578,-0.044015,-0.003613,-0.043606,0.018315,-0.04299,-0.25759,-0.965298,0.043003231928646836
1762015693.462357,0.132476,-0.030897,-0.066311,0.988483,0.421686,-0.045235,-0.058497,-0.003463,-0.042157,0.016881,-0.043513,-0.265998,-0.962991,0.04352674319288928
1762015693.464203,0.136549,-0.031546,-0.066845,0.987872,0.391933,-0.043197,-0.063099,-0.002193,-0.03812,0.015519,-0.044072,-0.274003,-0.960718,0.04408630034631275
1762015693.493141,0.140216,-0.032141,-0.067363,0.987304,0.337668,-0.041628,-0.054317,-0.001561,-0.031204,0.011325,-0.044574,-0.281202,-0.958613,0.04458876698702187
1762015693.50009,0.143235,-0.032677,-0.067807,0.986822,0.267162,-0.036196,-0.046922,0.000174,-0.025737,0.008851,-0.045068,-0.287127,-0.956832,0.045083258799176185
1762015693.536849,0.145616,-0.033141,-0.068165,0.986434,0.21253,-0.027022,-0.030094,0.002247,-0.027062,0.009091,-0.045531,-0.2918,-0.955395,0.045546748069384455
1762015693.538629,0.147523,-0.033495,-0.068362,0.986125,0.169215,-0.02177,-0.013374,0.001101,-0.026031,0.008132,-0.045891,-0.295531,-0.95423,0.04590713556418541
1762015693.569176,0.149033,-0.033783,-0.068361,0.985888,0.133198,-0.018051,0.012268,0.001035,-0.023274,0.007149,-0.046237,-0.298478,-0.953296,0.04625348501564429
1762015693.599245,0.15015,-0.034038,-0.068138,0.985725,0.090311,-0.007462,0.028839,0.004555,-0.011637,0.006979,-0.046643,-0.300652,-0.952593,0.04665991466013235
1762015693.599823,0.150802,-0.034195,-0.067806,0.985643,0.037236,-0.000246,0.031233,0.007687,-0.001147,0.006342,-0.046958,-0.301911,-0.952179,0.04697527101912424
1762015693.637787,0.15098,-0.034206,-0.067529,0.985634,0.000338,0.004278,0.022473,0.006042,0.000145,0.006672,-0.047037,-0.302243,-0.95207,0.04705434800698308
1762015693.638624,0.150922,-0.034182,-0.067322,0.985658,-0.013107,0.003525,0.018268,0.001798,-0.003729,0.003659,-0.047063,-0.302117,-0.952108,0.0470804084865481
1762015693.668971,0.150754,-0.034242,-0.067113,0.985696,-0.020988,-0.010415,0.019522,0.001079,-0.002176,0.002225,-0.047269,-0.301792,-0.952201,0.047286631868525934
1762015693.699204,0.150505,-0.034412,-0.066977,0.985737,-0.028288,-0.019844,0.009462,-0.000637,0.000663,0.005302,-0.047681,-0.301326,-0.952328,0.047699098450619544
1762015693.699855,0.150232,-0.0346,-0.067033,0.985769,-0.018966,-0.017495,-0.012316,-0.001476,-0.003391,0.010707,-0.048075,-0.300827,-0.952466,0.0480935481526797
1762015693.730441,0.150166,-0.034697,-0.067232,0.985762,0.006828,-0.011938,-0.019645,-0.003742,-0.007851,0.010949,-0.048215,-0.300721,-0.952493,0.04823368295576822
1762015693.76161,0.150303,-0.034736,-0.067484,0.985722,0.015181,-0.005638,-0.028608,-0.002026,0.002005,0.009628,-0.048195,-0.301003,-0.952405,0.04821365662261946
1762015693.762156,0.150341,-0.034661,-0.067868,0.985693,-0.010786,0.005602,-0.043964,-0.00102,0.006201,0.008611,-0.047923,-0.301084,-0.952393,0.04794134765800612
1762015693.793676,0.150134,-0.034451,-0.06835,0.985698,-0.035213,0.015894,-0.054724,-0.001087,0.003375,0.008974,-0.047393,-0.300683,-0.952546,0.04741075368420506
1762015693.798952,0.149814,-0.034132,-0.068924,0.985718,-0.032083,0.029215,-0.064515,-0.001279,-0.008028,0.011453,-0.046638,-0.300054,-0.952781,0.046654943724045814
1762015693.837244,0.149641,-0.033717,-0.069549,0.985715,-0.007397,0.036172,-0.068113,-0.00149,-0.020636,0.014598,-0.045656,-0.299697,-0.952941,0.045671892056915644
1762015693.838398,0.149759,-0.033268,-0.070057,0.985676,0.016311,0.04076,-0.049027,-0.000976,-0.019209,0.010774,-0.044599,-0.299888,-0.952931,0.04461381231536694
1762015693.86877,0.149903,-0.032811,-0.070438,0.985642,-0.002129,0.041059,-0.041818,0.000284,-0.006919,0.006848,-0.043562,-0.300124,-0.952905,0.043575789285485694
1762015693.917032,0.149518,-0.032271,-0.070756,0.985696,-0.032248,0.038732,-0.03337,0.001029,-0.012277,0.003007,-0.042461,-0.299325,-0.953206,0.04247376794426493
1762015693.917289,0.149132,-0.031732,-0.071075,0.985749,-0.062367,0.036404,-0.024921,0.001774,-0.017636,-0.000837,-0.04136,-0.298525,-0.953505,0.04137180923154934
1762015693.920348,0.148555,-0.031283,-0.0712,0.985841,-0.063963,0.033651,-0.007485,0.001796,-0.024375,-0.000938,-0.040527,-0.297358,-0.953905,0.04053812300417922
1762015693.95099,0.148008,-0.030942,-0.071146,0.985938,-0.050863,0.023655,0.011695,0.001576,-0.025271,0.000395,-0.039953,-0.296257,-0.954272,0.03996364670448951
1762015693.979278,0.147586,-0.030676,-0.070953,0.986024,-0.036751,0.021603,0.020303,0.001967,-0.018096,0.001802,-0.039552,-0.295399,-0.954555,0.03956231601047549
1762015693.980022,0.147246,-0.030553,-0.070713,0.986096,-0.033319,0.007758,0.023059,0.002473,-0.01069,0.00196,-0.039431,-0.294718,-0.95477,0.03944123974299418
1762015694.010203,0.147012,-0.030471,-0.070547,0.986145,-0.020249,0.005255,0.006873,0.003089,-0.010082,0.001086,-0.039354,-0.29425,-0.954918,0.03936416158074647
1762015694.048155,0.147361,-0.030624,-0.070618,0.986083,0.04444,-0.013509,-0.000349,0.000657,-0.018505,0.004007,-0.039582,-0.294946,-0.954694,0.03959233291620139
1762015694.048472,0.14771,-0.030777,-0.070689,0.986021,0.109129,-0.032274,-0.007571,-0.001776,-0.026929,0.006928,-0.03981,-0.295641,-0.954469,0.03982053267619806
1762015694.088923,0.149296,-0.031148,-0.070908,0.985755,0.142708,-0.02808,-0.02346,-0.001149,-0.014772,0.005778,-0.040236,-0.298756,-0.953481,0.04024686247428682
1762015694.08911,0.150882,-0.031519,-0.071126,0.985486,0.176287,-0.023885,-0.039348,-0.000525,-0.002618,0.004617,-0.04066,-0.301868,-0.952482,0.040671222241189374
1762015694.136821,0.152169,-0.031804,-0.071508,0.985251,0.125173,-0.022493,-0.035231,-0.001348,-0.00039,0.001389,-0.040907,-0.304397,-0.951667,0.04091839707240795
1762015694.136943,0.153454,-0.032088,-0.071889,0.985015,0.074058,-0.021101,-0.031114,-0.002172,0.001836,-0.001845,-0.041151,-0.306923,-0.950844,0.04116263450389497
1762015694.138871,0.154002,-0.032291,-0.072132,0.984905,0.016059,-0.012406,-0.013946,-0.003855,-0.000522,-5e-06,-0.04139,-0.308012,-0.950482,0.041401815347941975
1762015694.168952,0.153931,-0.032407,-0.072189,0.984908,-0.029634,-0.014118,0.006613,-0.005398,-0.006707,0.00098,-0.041611,-0.307895,-0.95051,0.041623016052198626
1762015694.175033,0.15359,-0.032487,-0.072032,0.98497,-0.031901,0.003561,0.027911,-0.00269,-0.013166,0.006467,-0.04187,-0.307243,-0.950709,0.0418822651340263
1762015694.204198,0.153305,-0.032497,-0.071685,0.985039,-0.018845,0.002941,0.042298,-0.00074,-0.012075,0.003266,-0.042043,-0.306683,-0.950883,0.042055384128481185
1762015694.234732,0.153191,-0.03258,-0.071248,0.985086,0.002106,-0.006095,0.042264,0.000426,-0.008953,0.002608,-0.042359,-0.306454,-0.950942,0.0423716982308542
1762015694.235509,0.153267,-0.032752,-0.070812,0.9851,0.010279,-0.014234,0.044209,0.000614,-0.001299,0.001602,-0.042821,-0.306605,-0.950873,0.04283410304662666
1762015694.266299,0.15332,-0.033008,-0.070437,0.98511,0.001202,-0.020309,0.032526,0.001373,0.006358,0.002959,-0.043435,-0.306724,-0.950807,0.043448665478295984
1762015694.306195,0.153106,-0.033194,-0.070272,0.985149,-0.017359,-0.015917,0.023543,0.000457,0.00571,0.003727,-0.043883,-0.30633,-0.950913,0.043897111528518724
1762015694.306644,0.152892,-0.033379,-0.070107,0.985188,-0.035921,-0.011525,0.014559,-0.00046,0.005062,0.004496,-0.044331,-0.305936,-0.95102,0.04434550829585246
1762015694.336302,0.152458,-0.033463,-0.069977,0.985261,-0.052109,-0.008714,0.012736,-0.000219,0.002911,0.003699,-0.044603,-0.305105,-0.951274,0.044617786440775485
1762015694.338592,0.151885,-0.033483,-0.069888,0.985356,-0.056471,0.0017,0.01281,-0.00079,0.00051,0.005226,-0.044756,-0.304001,-0.95162,0.04477094783613347
1762015694.367866,0.15129,-0.033407,-0.069753,0.985459,-0.060443,0.008897,0.014079,-6.1e-05,0.001256,0.004384,-0.044737,-0.302841,-0.951991,0.04475191529669631
1762015694.375266,0.150624,-0.033289,-0.069611,0.985575,-0.066934,0.008933,0.015338,-8.4e-05,0.004098,0.003544,-0.044648,-0.301538,-0.952408,0.04466285596705786
1762015694.405696,0.149941,-0.033182,-0.069495,0.985691,-0.071073,0.009212,0.010773,0.00044,0.004999,0.002189,-0.044574,-0.300203,-0.952833,0.044588786652004955
1762015694.438563,0.149239,-0.033028,-0.069425,0.985808,-0.068771,0.0115,0.005838,0.000973,0.004807,0.003394,-0.044398,-0.298828,-0.953274,0.04441258404573241
1762015694.440491,0.148604,-0.032842,-0.069454,0.985908,-0.063167,0.013762,-0.008983,0.000424,0.00343,0.001737,-0.044115,-0.297582,-0.953677,0.04412929940515676
1762015694.469221,0.148004,-0.032656,-0.069561,0.985997,-0.055793,0.010758,-0.012248,0.000347,0.000337,0.000931,-0.043807,-0.296406,-0.954057,0.043821016220773404
1762015694.473734,0.147463,-0.032496,-0.069696,0.986074,-0.05188,0.005171,-0.00989,-0.000286,-0.001162,0.000334,-0.043531,-0.295348,-0.954397,0.04354478119213448
1762015694.504538,0.146948,-0.032396,-0.069758,0.986149,-0.049906,0.006466,-0.007472,-0.000153,0.000267,0.000603,-0.043393,-0.294345,-0.954714,0.04340661301893738
1762015694.535403,0.146442,-0.032253,-0.069827,0.986224,-0.052145,0.00699,-0.003257,0.000719,-0.001387,0.001721,-0.043166,-0.293353,-0.955029,0.04317942345715349
1762015694.535596,0.145936,-0.032106,-0.069857,0.986302,-0.048301,0.013108,-0.003277,0.000484,-0.000198,0.002507,-0.042943,-0.292359,-0.955344,0.04295620854914362
1762015694.564204,0.145482,-0.031931,-0.069874,0.986374,-0.043237,0.013571,0.000511,0.001044,-0.002588,0.00107,-0.04266,-0.291461,-0.955631,0.04267294996026247
1762015694.594964,0.145054,-0.031747,-0.069829,0.986446,-0.038413,0.013762,0.004066,0.000698,-0.003836,0.001421,-0.042376,-0.290611,-0.955903,0.042388671150991306
1762015694.595761,0.1447,-0.031587,-0.069725,0.98651,-0.032218,0.016676,0.011659,0.002005,0.000406,0.003837,-0.042142,-0.289902,-0.956128,0.042154486385596636
1762015694.625204,0.144363,-0.031377,-0.069592,0.986576,-0.037752,0.021988,0.011804,0.002504,0.001364,0.000943,-0.041819,-0.289216,-0.95635,0.041831197686496555
1762015694.655391,0.143958,-0.031163,-0.069487,0.986649,-0.049066,0.022004,0.008954,0.001595,0.002974,0.002129,-0.041487,-0.288404,-0.95661,0.04149889509931387
1762015694.655987,0.143452,-0.030912,-0.06938,0.986738,-0.0533,0.022517,0.007542,0.001416,0.003292,0.002364,-0.041098,-0.287388,-0.956932,0.04110958312183661
1762015694.686385,0.142963,-0.030657,-0.069313,0.986822,-0.048047,0.018724,0.005395,-0.000309,0.000422,0.001677,-0.040687,-0.286407,-0.957244,0.04069822441588011
1762015694.691097,0.142567,-0.030437,-0.069262,0.98689,-0.033312,0.023799,-0.00313,-0.000681,-0.001328,0.003905,-0.040326,-0.285611,-0.957497,0.040336930851663025
1762015694.737117,0.142301,-0.030186,-0.069276,0.986935,-0.017364,0.01237,-0.001503,-0.003336,-0.003704,0.000207,-0.039867,-0.285065,-0.957679,0.03987755822654518
1762015694.739835,0.142254,-0.030086,-0.069262,0.986945,0.005283,0.010921,-0.005442,0.00018,-0.003405,0.004112,-0.039681,-0.284962,-0.957717,0.03969142534379939
1762015694.754223,0.14236,-0.029951,-0.069276,0.986933,0.008824,0.012966,-0.00385,3e-05,-0.000569,0.000687,-0.039395,-0.28515,-0.957673,0.039405195822489594
1762015694.785648,0.142457,-0.029825,-0.069328,0.986919,0.001053,0.010524,-0.006848,0.001347,0.001575,0.000994,-0.039116,-0.285323,-0.957633,0.03912597718731787
1762015694.812919,0.142461,-0.029687,-0.069409,0.986917,-0.008562,0.012255,-0.010879,0.00206,0.002705,0.000339,-0.038822,-0.285315,-0.957647,0.038831766652323595
1762015694.813125,0.142337,-0.029575,-0.069519,0.986931,-0.01874,0.010877,-0.013664,0.000216,0.000995,0.000631,-0.038587,-0.285065,-0.957731,0.038596588344414304
1762015694.842985,0.142097,-0.02946,-0.069611,0.986962,-0.027453,0.003298,-0.007845,0.002226,0.000253,0.002736,-0.038369,-0.284591,-0.957881,0.038378416219396916
1762015694.873581,0.141858,-0.029394,-0.069701,0.986992,-0.023103,0.009072,-0.013003,0.00339,0.001056,0.004669,-0.038249,-0.284123,-0.958025,0.0382583177817857
1762015694.875381,0.141603,-0.029222,-0.069818,0.987026,-0.026104,0.012467,-0.019354,0.003193,0.001053,0.002587,-0.037913,-0.283613,-0.958189,0.0379220906475532
1762015694.904275,0.14131,-0.029076,-0.070006,0.987059,-0.030034,0.002888,-0.017962,0.001176,-0.002142,0.000334,-0.037615,-0.283034,-0.958372,0.03762387537521611
1762015694.910227,0.141009,-0.029024,-0.070206,0.987089,-0.030652,-0.000957,-0.012736,0.001661,-0.003588,0.002424,-0.037499,-0.282453,-0.958548,0.03750779128871871
1762015694.940711,0.140705,-0.028964,-0.070329,0.987126,-0.031803,-0.000523,-0.005799,0.002142,-0.002347,0.002551,-0.037392,-0.28186,-0.958727,0.03740070607453937
1762015694.984573,0.140334,-0.028897,-0.070372,0.987177,-0.035832,-0.004566,-0.001908,0.000592,-0.003477,-0.000436,-0.037302,-0.281136,-0.958943,0.037310645417034785
1762015694.984873,0.139963,-0.02883,-0.070415,0.987229,-0.039861,-0.008609,0.001983,-0.000959,-0.004609,-0.003424,-0.037212,-0.280411,-0.959158,0.03722060965265824
1762015694.991572,0.13964,-0.028913,-0.070366,0.987276,-0.024106,0.000274,0.005736,0.001816,-0.002456,0.006997,-0.037439,-0.279795,-0.959329,0.03744776954047751
1762015695.036782,0.139365,-0.028897,-0.070316,0.987319,-0.024147,0.000632,0.006402,0.000174,-0.000235,0.00067,-0.037462,-0.27926,-0.959484,0.037470784866999354
1762015695.037475,0.139157,-0.02884,-0.07026,0.987354,-0.017385,0.005582,8.9e-05,-0.000192,0.001233,0.001303,-0.037396,-0.278847,-0.959607,0.037404727155685956
1762015695.067789,0.138997,-0.028783,-0.070248,0.987379,-0.017056,0.001932,0.001048,-0.000854,-0.000176,0.000252,-0.037311,-0.27853,-0.959703,0.03731964509625935
1762015695.068831,0.138843,-0.028753,-0.070274,0.987399,-0.009549,-0.003937,0.000258,0.000672,0.000904,0.000506,-0.037268,-0.278228,-0.959792,0.03727662475032852
1762015695.099146,0.138791,-0.028767,-0.070313,0.987404,-0.003157,-0.001101,-0.004757,0.001218,0.003831,0.002916,-0.037293,-0.278131,-0.959819,0.03730164723595879
1762015695.12912,0.138727,-0.028793,-0.070371,0.987408,-0.001277,-0.004508,-0.003847,0.00147,0.002753,0.001813,-0.037337,-0.278012,-0.959852,0.03734566945687535
1762015695.12981,0.138767,-0.028827,-0.070456,0.987395,0.006341,-0.003601,-0.003678,0.001089,-0.000879,0.003955,-0.037374,-0.278098,-0.959825,0.03738271850494383
1762015695.163979,0.138853,-0.02888,-0.070489,0.987379,0.013294,0.00138,-0.00226,0.001174,-0.001747,0.003435,-0.037456,-0.278273,-0.959772,0.037464742959072705
1762015695.16733,0.139028,-0.028858,-0.07051,0.987353,0.015187,0.003539,-0.00118,0.002398,0.000698,0.003763,-0.03738,-0.278609,-0.959677,0.03738870700110524
1762015695.206591,0.139185,-0.028847,-0.070499,0.987333,0.012895,0.004245,-0.00214,0.000806,-0.000439,0.003422,-0.037339,-0.27891,-0.959591,0.03734768410366699
1762015695.207269,0.139321,-0.02881,-0.070521,0.987313,0.012806,0.004273,-0.002178,0.002311,4.2e-05,0.001787,-0.037239,-0.27917,-0.959519,0.03724762443096141
1762015695.237846,0.139457,-0.028772,-0.070544,0.987293,0.01102,0.003679,-0.001876,0.001115,-0.002487,0.001371,-0.037137,-0.279429,-0.959448,0.037145538108715674
1762015695.26883,0.139528,-0.028702,-0.070554,0.987284,0.006115,0.004903,-0.00393,0.000918,0.000254,-0.000128,-0.036985,-0.279557,-0.959416,0.03699345435334113
1762015695.269252,0.139574,-0.028676,-0.070568,0.987278,0.000294,-0.001307,-0.001394,0.000649,-0.001225,0.001345,-0.036923,-0.279644,-0.959394,0.03693137768958585
1762015695.336007,0.139575,-0.028657,-0.070576,0.987277,0.000187,0.002277,-0.000848,0.0004,-0.001318,0.002797,-0.036884,-0.279644,-0.959395,0.036892368834541174
1762015695.337939,0.139553,-0.028627,-0.070563,0.987282,-0.001974,0.001904,0.001263,0.000409,-0.000587,0.002762,-0.036831,-0.279597,-0.959411,0.03683932340494497
1762015695.371008,0.139531,-0.028586,-0.07053,0.987289,-0.003283,0.003109,0.003695,0.000683,-0.000501,0.003775,-0.036764,-0.279547,-0.959428,0.03677228293984274
1762015695.37211,0.139463,-0.028529,-0.070491,0.987303,-0.006017,0.004485,0.006602,0.000201,-0.001031,0.002632,-0.036671,-0.279407,-0.959472,0.03667923214779161
1762015695.402496,0.139383,-0.02848,-0.070402,0.987322,-0.007256,0.004466,0.007348,9e-05,0.000228,0.002681,-0.036613,-0.279241,-0.959523,0.03662117698900306
1762015695.407032,0.139307,-0.028428,-0.070306,0.987341,-0.006215,0.005011,0.006008,0.000967,0.001161,0.002547,-0.036548,-0.279085,-0.959571,0.0365561286756759
1762015695.438662,0.139248,-0.028381,-0.070242,0.987355,-0.004748,0.00411,0.002396,0.00094,0.000723,0.001163,-0.036483,-0.278961,-0.959609,0.036491103863585964
1762015695.467768,0.139217,-0.028362,-0.070183,0.987364,-0.000273,0.001175,0.005207,0.000789,-0.000287,0.001265,-0.036466,-0.278897,-0.959628,0.0364741012540966
1762015695.469588,0.139223,-0.028347,-0.070107,0.987369,0.00075,-0.000642,0.005332,0.000382,-0.000139,0.000613,-0.036457,-0.278904,-0.959627,0.03646507101943453
1762015695.499053,0.139247,-0.028369,-0.070033,0.987371,0.005093,-0.002506,0.007025,0.000154,-0.000833,0.001787,-0.036518,-0.278949,-0.959611,0.036526132715267515
1762015695.506599,0.139324,-0.028386,-0.069945,0.987365,0.011333,-0.002785,0.007905,0.000103,-0.001527,0.002001,-0.036565,-0.279099,-0.959566,0.03657314988634311
1762015695.536096,0.139497,-0.028455,-0.069857,0.987345,0.023002,-0.00763,0.011613,-0.000171,-0.002704,0.002184,-0.0367,-0.279439,-0.959462,0.03670823660396442
1762015695.56536,0.139749,-0.028534,-0.069738,0.987316,0.027173,-0.003568,0.011097,-0.000451,-0.001412,0.001836,-0.036853,-0.279932,-0.959312,0.03686135476214529
1762015695.56602,0.140005,-0.028617,-0.069615,0.987286,0.024998,-0.007613,0.01326,-0.000154,-0.001032,0.000512,-0.037013,-0.280434,-0.959159,0.037021471508861696
1762015695.596393,0.140251,-0.02869,-0.069482,0.987258,0.021392,-0.005784,0.013021,0.000652,0.001289,0.001518,-0.03716,-0.280915,-0.959013,0.037168556791721055
1762015695.640371,0.140377,-0.028743,-0.06937,0.987247,0.014111,-0.003729,0.009447,0.000267,0.001799,0.001939,-0.037276,-0.281162,-0.958936,0.03728464121383116
1762015695.640644,0.140504,-0.028795,-0.069257,0.987235,0.006829,-0.001674,0.005873,-0.000117,0.002308,0.00236,-0.037393,-0.281409,-0.958859,0.03740172245606226
1762015695.643593,0.140575,-0.028815,-0.069194,0.987229,0.003062,-4.4e-05,0.003467,0.000769,0.001348,0.003201,-0.03744,-0.281546,-0.958817,0.037448753528496595
1762015695.672688,0.140619,-0.028819,-0.069154,0.987225,0.005566,0.001361,0.002403,0.000693,0.000735,0.003677,-0.037453,-0.281632,-0.958791,0.03746177110256798
1762015695.7027,0.140676,-0.028803,-0.069132,0.987219,0.004251,-0.000379,0.002408,0.000372,0.000747,0.0028,-0.03742,-0.281739,-0.958761,0.03742874264044147
1762015695.703429,0.140726,-0.028802,-0.06912,0.987213,0.004918,0.000815,0.000603,0.000572,8.2e-05,0.003128,-0.037414,-0.281835,-0.958733,0.03742273910416306
1762015695.735096,0.140761,-0.028797,-0.069103,0.987209,0.002251,0.000373,0.000276,0.000963,-0.00131,0.002909,-0.037403,-0.281901,-0.958714,0.0374117322944691
1762015695.768258,0.140789,-0.028769,-0.069094,0.987206,7.4e-05,0.003023,0.000129,0.001702,-0.002158,0.002351,-0.037347,-0.281952,-0.958701,0.03735569978225087
1762015695.768593,0.140804,-0.0287,-0.069088,0.987207,0.000182,0.005396,0.002129,0.000374,-0.003498,0.000488,-0.037211,-0.281971,-0.958701,0.03721959443802567
1762015695.798612,0.140809,-0.028656,-0.069036,0.987211,0.000727,-0.000552,0.005617,-0.000647,-0.003048,-0.000733,-0.037138,-0.281972,-0.958704,0.03714652742816889
1762015695.804225,0.140818,-0.02868,-0.068926,0.987217,0.004673,0.003601,0.0086,0.001261,-0.00166,0.004843,-0.037215,-0.281989,-0.958695,0.037223616862537126
1762015695.83415,0.140859,-0.028619,-0.068841,0.987219,0.001986,0.007208,0.007448,0.000415,-0.001598,0.003003,-0.037112,-0.282058,-0.958679,0.037120534728193044
1762015695.866897,0.140901,-0.028565,-0.068761,0.98722,0.002768,0.006255,0.006755,0.000364,-0.001055,0.001713,-0.037023,-0.282129,-0.958662,0.03703145748364849
1762015695.868655,0.140931,-0.02854,-0.068685,0.987222,0.001585,0.002074,0.003747,0.000671,-0.000296,0.000671,-0.036991,-0.28218,-0.958648,0.03699944353127799
1762015695.897156,0.140956,-0.02854,-0.068661,0.98722,0.000952,-0.000631,0.00012,0.000476,-0.000478,0.000677,-0.036995,-0.282228,-0.958634,0.03700343617252923
1762015695.903682,0.140992,-0.028564,-0.068668,0.987213,0.002965,-0.001063,-0.000299,0.000754,-0.001257,0.001445,-0.037034,-0.282302,-0.958611,0.037042452425694025
1762015695.937564,0.141034,-0.02856,-0.068679,0.987207,0.004389,0.000571,-0.000658,0.00039,-0.002995,0.003111,-0.037017,-0.282382,-0.958587,0.03702547960662622
1762015695.944221,0.141089,-0.02856,-0.068671,0.987199,0.002679,0.002156,0.001086,0.000902,-0.002706,0.002891,-0.037011,-0.282489,-0.958556,0.03701946501512318
1762015695.975005,0.141125,-0.028538,-0.068635,0.987197,0.001936,0.002845,0.001845,0.001124,-0.002579,0.002796,-0.036973,-0.282554,-0.958539,0.03698141445232055
1762015696.004074,0.141152,-0.028489,-0.068567,0.9872,0.002379,0.006721,0.006675,0.002266,-0.002176,0.002576,-0.036893,-0.282597,-0.958529,0.03690137423559363
1762015696.005816,0.141175,-0.028446,-0.068506,0.987202,-0.000121,0.006662,0.003631,0.00266,-0.000362,0.001612,-0.036822,-0.282634,-0.958521,0.03683031963428015
1762015696.037999,0.141174,-0.028374,-0.068489,0.987205,-0.001671,0.00648,-0.00081,0.002182,0.000198,0.000505,-0.036683,-0.282623,-0.95853,0.03669121066466911
1762015696.067972,0.14115,-0.028332,-0.068514,0.987208,-0.002247,0.002222,-0.003315,0.001612,-0.001791,0.000605,-0.036597,-0.282571,-0.958548,0.036605174623451336
1762015696.068189,0.141127,-0.028319,-0.068536,0.98721,-0.001185,0.000853,-0.002974,0.001427,-0.002193,0.001835,-0.036569,-0.282526,-0.958562,0.03657716754988174
1762015696.099915,0.141093,-0.028285,-0.068557,0.987215,-0.002627,-0.000357,-0.000876,0.001359,-0.003206,0.000762,-0.036502,-0.282457,-0.958585,0.03651011884279645
1762015696.101606,0.141065,-0.028281,-0.068546,0.98722,-0.004569,0.000394,0.001783,0.001131,-0.00242,0.001512,-0.0365,-0.282401,-0.958602,0.03650810264096919
1762015696.130553,0.140962,-0.028267,-0.068528,0.987236,-0.009679,-0.000731,0.003621,0.00182,-0.001833,0.003336,-0.036493,-0.282199,-0.958661,0.03650112429794244
1762015696.161921,0.140852,-0.028262,-0.068474,0.987256,-0.010982,0.000793,0.005811,0.00071,-0.001624,0.003067,-0.036514,-0.281984,-0.958724,0.036522119514485585
1762015696.162196,0.14074,-0.028237,-0.068414,0.987276,-0.010297,0.000964,0.005717,0.001215,-0.001216,0.001963,-0.036498,-0.281762,-0.95879,0.03650610453013901
1762015696.196493,0.1406,-0.02822,-0.068344,0.987302,-0.014512,0.0004,0.007233,0.000808,-0.000821,0.002011,-0.036504,-0.281487,-0.95887,0.03651212757391374
1762015696.19977,0.140462,-0.028218,-0.06828,0.987326,-0.015379,0.000455,0.006031,0.00045,-0.000289,0.001624,-0.036538,-0.281218,-0.958948,0.03654613738642698
1762015696.237757,0.140286,-0.02822,-0.068233,0.987354,-0.016166,-0.002292,0.004911,0.00018,-0.000115,0.000648,-0.036582,-0.280875,-0.959047,0.03659016131787096
1762015696.239004,0.140107,-0.028219,-0.068179,0.987383,-0.015377,-0.003025,0.004274,0.001175,0.000323,6.9e-05,-0.036621,-0.280527,-0.959147,0.03662920017295891
1762015696.272522,0.139968,-0.028214,-0.068142,0.987405,-0.01102,-0.001083,0.00244,0.001246,-0.001379,0.001678,-0.036641,-0.280256,-0.959226,0.036649194461283056
1762015696.307816,0.139887,-0.028205,-0.068129,0.987418,-0.00503,-0.001552,0.001973,-9.4e-05,-0.002506,0.000844,-0.036639,-0.280097,-0.959272,0.03664721129905123
1762015696.308492,0.139868,-0.028195,-0.068112,0.987422,0.002965,0.00371,0.000651,0.000289,-0.001312,0.001578,-0.036628,-0.280058,-0.959284,0.03663619711449325
1762015696.338965,0.139888,-0.028158,-0.068091,0.987422,-0.000309,-0.000845,0.002307,-0.000216,-0.000166,-0.000647,-0.036558,-0.280091,-0.959277,0.03656615144105964
1762015696.341049,0.13988,-0.028195,-0.068075,0.987423,-0.000118,-0.000324,0.000883,1e-05,-0.000934,0.002371,-0.036636,-0.280081,-0.959277,0.03664420176608623
1762015696.372452,0.139918,-0.028211,-0.068055,0.987419,0.007768,-0.002934,0.002745,-0.000317,-0.00317,0.001091,-0.036667,-0.280155,-0.959254,0.036675229881379924
1762015696.401753,0.140013,-0.028262,-0.068031,0.987405,0.010569,-0.000373,0.001569,0.000804,-0.0018,0.004655,-0.036761,-0.280344,-0.959195,0.0367692997931918
1762015696.403162,0.140105,-0.028231,-0.068016,0.987394,0.004413,0.002743,0.001249,0.000301,-0.000674,0.001744,-0.036692,-0.280519,-0.959147,0.03670023478122973
1762015696.432968,0.14014,-0.028201,-0.067987,0.987392,-0.000658,0.000252,0.000855,0.000112,-0.000251,0.000648,-0.036636,-0.28058,-0.959131,0.03664420759015793
1762015696.440242,0.140082,-0.028204,-0.067982,0.987401,-0.005871,-0.002704,0.000436,0.00123,-0.001076,0.00143,-0.036651,-0.28047,-0.959163,0.03665920356816209
1762015696.475039,0.140006,-0.028209,-0.068008,0.987409,-0.012315,0.000238,-0.002776,0.001901,0.001935,0.001958,-0.036664,-0.280324,-0.959205,0.0366722187547394
1762015696.479382,0.139842,-0.028164,-0.068095,0.987428,-0.018371,0.001951,-0.008769,0.001771,0.002451,0.002686,-0.036574,-0.280004,-0.959302,0.03658215471444829
1762015696.540051,0.139664,-0.028097,-0.0682,0.987448,-0.015221,0.002123,-0.008049,0.00171,0.000277,0.002967,-0.036439,-0.279653,-0.959409,0.036447082808039856
1762015696.540371,0.139485,-0.028031,-0.068305,0.987468,-0.01207,0.002294,-0.007328,0.00165,-0.001897,0.003248,-0.036304,-0.279303,-0.959516,0.03631199573243552
1762015696.542195,0.13938,-0.028,-0.068392,0.987477,-0.007125,0.003627,-0.005912,0.001554,-0.002232,0.00379,-0.036234,-0.2791,-0.959578,0.0362419396375755
1762015696.572067,0.13933,-0.027971,-0.068447,0.987482,-0.002649,0.002168,-0.001189,0.001175,-0.001993,0.002656,-0.036169,-0.279001,-0.959609,0.0361769053772509
1762015696.579063,0.139311,-0.027966,-0.068431,0.987485,-0.003182,0.000945,0.00266,0.00083,-0.001503,0.001812,-0.036165,-0.278963,-0.959621,0.0361728749135271
1762015696.612403,0.139245,-0.027953,-0.068396,0.987498,-0.005837,0.002559,0.001534,0.001297,-0.000185,0.003203,-0.03616,-0.278833,-0.959659,0.03616787060190784
1762015696.64161,0.139165,-0.027889,-0.068374,0.987512,-0.006985,0.002078,0.005835,0.000504,-0.003394,-0.001051,-0.036051,-0.278669,-0.95971,0.03605882502428489
1762015696.642464,0.139133,-0.027945,-0.0683,0.98752,0.001483,-0.00669,0.010081,0.001453,-0.003614,0.002346,-0.036187,-0.278611,-0.959722,0.036194904173755676
1762015696.672636,0.139194,-0.027954,-0.068233,0.987516,0.00369,0.001721,0.005482,0.001727,-0.001286,0.003854,-0.036215,-0.278727,-0.959687,0.0362229316154249
1762015696.678649,0.139201,-0.027919,-0.06821,0.987518,0.000642,0.002322,0.001823,0.001616,-0.001053,0.002086,-0.03615,-0.278735,-0.959687,0.03615789341978742
1762015696.707719,0.13919,-0.027888,-0.068227,0.987519,-0.001958,0.004931,-0.003969,0.001042,-0.001642,0.001142,-0.036087,-0.27871,-0.959697,0.03609483949865853
1762015696.737791,0.139158,-0.027845,-0.068245,0.987523,-0.002797,-0.001076,-0.002714,0.000634,-0.001418,0.000371,-0.036002,-0.278643,-0.95972,0.036009772039553314
1762015696.739831,0.139119,-0.027863,-0.068303,0.987524,-0.002992,-0.001037,-0.006207,0.001158,-0.002607,0.001502,-0.036027,-0.278572,-0.959739,0.03603481154688559
1762015696.770213,0.139077,-0.027901,-0.068373,0.987524,-0.003576,-0.002194,-0.004343,0.00103,-0.002101,0.00187,-0.036089,-0.2785,-0.959758,0.03609683688407307
1762015696.775992,0.139021,-0.027907,-0.068448,0.987527,-0.006708,-0.00255,-0.004251,0.000805,-0.002997,0.003027,-0.036086,-0.278394,-0.959789,0.03609383025864151
1762015696.836749,0.138946,-0.027915,-0.068445,0.987537,-0.007407,-0.000872,-0.001445,0.000958,-0.002506,0.003182,-0.036114,-0.27825,-0.959829,0.03612187291701181
1762015696.836994,0.138871,-0.027923,-0.068443,0.987548,-0.008106,0.000806,0.001361,0.001111,-0.002014,0.003337,-0.036141,-0.278106,-0.95987,0.03614888074428398
1762015696.837332,0.138772,-0.027894,-0.068435,0.987563,-0.012583,0.000918,0.001934,0.002283,-0.001485,0.002221,-0.036101,-0.27791,-0.959929,0.03610882933990559
1762015696.86769,0.138649,-0.027861,-0.06844,0.987581,-0.011988,0.001614,-0.002133,0.00162,-0.00014,0.002466,-0.036051,-0.277669,-0.96,0.03605881820801302
1762015696.898493,0.138521,-0.027846,-0.068473,0.987597,-0.013225,0.000334,-0.006019,0.002635,0.000165,0.000885,-0.036032,-0.277419,-0.960073,0.03603980542498344
1762015696.900228,0.138376,-0.027818,-0.068541,0.987614,-0.010958,0.004939,-0.007838,0.002105,-0.00105,0.001592,-0.035977,-0.277137,-0.960157,0.03598475256235091
1762015696.929111,0.138273,-0.02774,-0.068589,0.987627,-0.008912,0.003661,-0.005481,0.0013,-0.001626,0.001911,-0.035826,-0.27693,-0.960222,0.03583366792685988
1762015696.936883,0.138166,-0.027707,-0.068622,0.987641,-0.009539,-0.000239,-0.001436,0.000604,-0.00091,0.001034,-0.035766,-0.276718,-0.960285,0.03577364156349819
1762015696.985034,0.138073,-0.027697,-0.068626,0.987653,-0.007172,-7.3e-05,-3e-06,0.000869,-0.000661,0.000821,-0.035758,-0.276539,-0.960337,0.035765631660839084
1762015696.98528,0.137981,-0.027686,-0.06863,0.987666,-0.004806,9.3e-05,0.001431,0.001135,-0.000412,0.000608,-0.03575,-0.276359,-0.960389,0.03575763040357487
1762015697.01419,0.137923,-0.027653,-0.068607,0.987677,-0.002677,0.001677,0.004571,0.000781,-0.001013,0.001154,-0.0357,-0.276241,-0.960425,0.03570759184205497
1762015697.015534,0.137905,-0.027649,-0.068562,0.987683,-0.00206,1.2e-05,0.001471,0.001378,0.001171,0.001081,-0.035707,-0.276204,-0.960436,0.03571457506999852
1762015697.045652,0.137916,-0.027642,-0.068536,0.987683,-0.000247,0.000103,0.00239,0.001345,0.000637,0.002171,-0.035698,-0.276223,-0.960431,0.03570556488317813
1762015697.075543,0.13795,-0.027626,-0.068499,0.987681,0.006968,0.002373,0.001493,0.00058,0.000776,0.003082,-0.035673,-0.276286,-0.960413,0.035680576653936195
1762015697.089945,0.138023,-0.027596,-0.068431,0.987677,0.005368,0.00503,0.002727,0.000138,0.001271,0.002821,-0.035622,-0.276421,-0.960376,0.03562954581034505
1762015697.093665,0.138107,-0.027557,-0.068394,0.987669,0.008704,0.006979,0.000337,0.000261,0.000941,0.003257,-0.035542,-0.276578,-0.960334,0.03554948695876013
1762015697.137383,0.138198,-0.02746,-0.068389,0.987659,0.005006,0.007048,-0.000604,0.000307,-0.000222,0.001338,-0.035339,-0.276741,-0.960295,0.03534634348235564
1762015697.139732,0.138256,-0.027389,-0.06841,0.987651,0.004398,0.005002,-0.00289,0.000319,-0.000521,0.000846,-0.035184,-0.276845,-0.96027,0.03519127125720031
1762015697.169091,0.138306,-0.027374,-0.068453,0.987642,0.004985,-0.000751,-0.000161,-0.00064,-0.002561,0.000441,-0.035137,-0.276941,-0.960244,0.03514424348565634
1762015697.172286,0.138367,-0.027401,-0.068433,0.987634,0.005682,0.001307,0.001318,0.000375,-0.003204,0.002801,-0.035186,-0.277061,-0.960208,0.035193259913525135
1762015697.201503,0.138399,-0.027373,-0.068426,0.987631,0.00052,0.003355,0.001356,0.000828,-0.002184,0.002224,-0.035128,-0.27712,-0.960193,0.03513522733938188
1762015697.231531,0.138424,-0.027308,-0.068394,0.987631,-0.000401,0.003951,0.003452,0.000324,-0.002699,0.001682,-0.035006,-0.277159,-0.960186,0.03501315895519721
1762015697.232069,0.138394,-0.027289,-0.068348,0.987639,-0.002262,0.000181,0.005471,-0.00038,-0.001335,0.001032,-0.034985,-0.277097,-0.960205,0.03499213463822026
1762015697.263429,0.138351,-0.027281,-0.0683,0.987649,-0.001688,0.003029,0.000188,0.000207,-0.00246,0.002461,-0.034989,-0.277011,-0.960229,0.03499615954675529
1762015697.295336,0.138376,-0.027236,-0.06827,0.987648,0.007328,-0.001292,0.00331,0.000177,-0.002769,0.001725,-0.034906,-0.277053,-0.96022,0.03491310553883549
1762015697.296144,0.138485,-0.027255,-0.068256,0.987634,0.011611,0.003062,-0.000984,0.001409,-0.000151,0.00452,-0.03493,-0.277265,-0.960158,0.03493711795488571
1762015697.325044,0.138547,-0.027181,-0.06829,0.987625,0.001373,0.006019,-0.005811,0.000841,0.001292,0.001916,-0.034767,-0.277377,-0.960132,0.034774004370441244
1762015697.354081,0.138546,-0.027114,-0.068338,0.987623,-0.00227,0.00617,-0.0066,0.001623,0.000753,0.000154,-0.034621,-0.277368,-0.96014,0.03462791230087004
1762015697.357855,0.138533,-0.027019,-0.068403,0.987623,-0.00355,0.00719,-0.007849,0.002333,0.001979,0.000746,-0.034417,-0.277332,-0.960157,0.034423814939830225
1762015697.386346,0.1385,-0.026949,-0.068517,0.987622,-0.007228,0.005102,-0.013064,0.002603,0.004021,0.0002,-0.034252,-0.277264,-0.960183,0.03425870233654929
1762015697.391323,0.138413,-0.026876,-0.068701,0.987623,-0.010633,0.004972,-0.019347,0.003145,0.001077,0.001309,-0.034068,-0.277093,-0.960239,0.03407459185064775
1762015697.436742,0.138331,-0.026825,-0.068871,0.987624,-0.004089,0.002627,-0.012512,0.001646,-0.001806,0.002454,-0.033932,-0.276933,-0.96029,0.03393851225029484
1762015697.438057,0.138355,-0.026789,-0.068957,0.987616,0.004605,-0.001276,-0.004199,0.00207,-0.004492,0.002671,-0.033834,-0.276977,-0.960281,0.03384044840789341
1762015697.467856,0.138431,-0.026802,-0.068968,0.987604,0.010441,-0.0018,0.002426,0.001963,-0.003865,0.003829,-0.033845,-0.277126,-0.960237,0.033851474975570686
1762015697.468539,0.138532,-0.026823,-0.068905,0.987594,0.007769,-0.000742,0.004148,0.002778,0.00013,0.001413,-0.033889,-0.277324,-0.960179,0.033895476893416945
1762015697.498954,0.138585,-0.026842,-0.068847,0.98759,0.002749,-0.002073,0.005227,0.001012,-0.001007,0.00137,-0.033935,-0.277426,-0.960148,0.03394150039031794
1762015697.536494,0.138574,-0.026859,-0.06881,0.987594,-0.002145,0.001217,-0.001142,0.000882,-0.001146,0.0025,-0.033981,-0.277405,-0.960152,0.03398754129792263
1762015697.540106,0.138553,-0.026844,-0.06879,0.987598,-0.004855,-0.004977,0.004286,-0.000914,-0.003587,-0.002198,-0.03396,-0.277363,-0.960165,0.03396652514324025
1762015697.57032,0.138507,-0.026956,-0.068734,0.987606,0.000902,-0.012517,0.008083,0.001028,-0.002018,0.003681,-0.034204,-0.277286,-0.960178,0.034210685958623886
1762015697.571023,0.138537,-0.026984,-0.068722,0.987602,0.001047,0.003362,-0.003931,0.001141,-0.000601,0.005764,-0.034257,-0.277348,-0.960159,0.034263690846474584
1762015697.601367,0.138543,-0.026956,-0.068735,0.987601,-0.003066,0.003152,-0.003797,0.000442,-0.000618,0.001423,-0.034199,-0.277356,-0.960158,0.03420568172594216
1762015697.631043,0.138491,-0.026887,-0.068784,0.987606,-0.004029,0.003004,-0.00612,-7e-05,-0.002009,0.000917,-0.034055,-0.277247,-0.960195,0.034061584581805075
1762015697.644577,0.138487,-0.026839,-0.068851,0.987604,-0.001269,0.000171,-0.005544,0.00027,-0.000809,0.000713,-0.033942,-0.277236,-0.960202,0.033948524998145546
1762015697.649663,0.138451,-0.026841,-0.06894,0.987602,-0.008185,-0.001377,-0.007939,0.001575,-0.000861,0.002328,-0.033927,-0.27717,-0.960222,0.03393350277944097
1762015697.678657,0.138354,-0.026848,-0.069053,0.987608,-0.00909,-0.00158,-0.008252,0.001244,-0.002945,0.000883,-0.033924,-0.276987,-0.960275,0.033930498132241776
1762015697.753527,0.138316,-0.026808,-0.069082,0.987612,-0.006224,0.001243,-0.005268,0.001449,-0.0025,0.001205,-0.033842,-0.276909,-0.9603,0.03384846368630641
1762015697.75419,0.138278,-0.026768,-0.069112,0.987616,-0.003358,0.004066,-0.002284,0.001654,-0.002056,0.001526,-0.033761,-0.276832,-0.960325,0.03376741903213562
1762015697.754325,0.13824,-0.026728,-0.069141,0.987621,-0.000493,0.006888,0.000701,0.001859,-0.001612,0.001848,-0.033679,-0.276754,-0.96035,0.03368538404322157
1762015697.756174,0.138219,-0.026639,-0.069159,0.987625,-0.0023,0.010418,-0.005093,0.001387,0.000232,0.002497,-0.033501,-0.276702,-0.960372,0.03350725802290133
1762015697.790053,0.138201,-0.026511,-0.06919,0.987629,-0.003142,0.006615,-0.006644,0.001786,0.000574,-4.1e-05,-0.033242,-0.276652,-0.960395,0.03324812668608052
1762015697.790931,0.138185,-0.026433,-0.069289,0.987626,-0.000731,0.001787,-0.012044,0.001147,-0.00227,0.001233,-0.033063,-0.276614,-0.960412,0.03306903218164888
1762015697.821345,0.138231,-0.026417,-0.06944,0.98761,0.005904,-0.000511,-0.012146,0.001785,-0.004297,0.001971,-0.032983,-0.276705,-0.960389,0.032988973828022655
1762015697.851041,0.138301,-0.026372,-0.069544,0.987594,0.008925,0.000108,-0.007415,0.000593,-0.003542,0.002179,-0.032853,-0.276838,-0.960355,0.03285890736367083
1762015697.852171,0.138369,-0.026364,-0.06958,0.987582,0.003152,-0.001857,-0.000827,0.001648,-0.003776,0.002683,-0.032818,-0.276971,-0.960318,0.0328238836722102
1762015697.889687,0.138393,-0.02639,-0.069549,0.98758,-0.004739,-0.000419,0.00464,0.00217,-0.002284,0.002575,-0.032874,-0.277019,-0.960302,0.03287992144676339
1762015697.890898,0.138308,-0.02641,-0.069488,0.987595,-0.00931,-0.000304,0.004308,0.001435,-0.00176,0.004638,-0.032944,-0.276856,-0.960347,0.03294994693668727
1762015697.921024,0.138176,-0.026384,-0.069443,0.987618,-0.011532,0.00043,0.005875,0.00186,-0.001568,0.002033,-0.032925,-0.276595,-0.960422,0.03293096372054291
1762015697.95121,0.138082,-0.026402,-0.069381,0.987635,-0.010601,-0.003342,0.004654,0.000486,5.6e-05,0.002694,-0.032991,-0.276412,-0.960473,0.03299698120353181
1762015697.953465,0.137927,-0.026419,-0.06934,0.987659,-0.016147,0.000207,0.002584,0.000351,0.003602,0.003235,-0.033059,-0.276113,-0.960557,0.0330650075042189
1762015697.983734,0.137774,-0.026358,-0.069382,0.987679,-0.009188,0.00557,-0.004271,0.00119,0.001213,0.003253,-0.032949,-0.275811,-0.960647,0.032954964639508644
1762015697.988323,0.137664,-0.026306,-0.069425,0.987693,-0.00936,0.005619,-0.007157,0.001218,0.001133,0.003254,-0.032849,-0.275592,-0.960713,0.03285491914370316
1762015698.037008,0.137579,-0.026237,-0.0695,0.987701,-0.005781,0.006817,-0.007845,-8.7e-05,0.000698,0.000734,-0.032706,-0.275422,-0.960767,0.03271183055821689
1762015698.039038,0.137519,-0.026153,-0.069609,0.987704,-0.003454,0.004724,-0.01086,0.000901,0.00031,-0.000144,-0.032518,-0.275297,-0.960809,0.032523736961537125
1762015698.06794,0.137502,-0.02608,-0.069715,0.987701,0.001914,0.003576,-0.006102,0.001309,-0.003905,-6e-06,-0.032347,-0.275259,-0.960826,0.03235263634278349
1762015698.099716,0.137528,-0.026027,-0.069765,0.987695,0.001946,0.003569,-0.006073,0.00177,-0.000869,0.002569,-0.032224,-0.275303,-0.960817,0.0322295885339118
1762015698.130623,0.137507,-0.026017,-0.069793,0.987696,-0.002123,0.001475,-0.00323,0.001665,-0.000903,0.001883,-0.0322,-0.275262,-0.96083,0.032205562179542166
1762015698.132519,0.137452,-0.026,-0.069811,0.987703,-0.005304,0.001516,-0.000276,0.002344,-0.001045,0.002495,-0.03217,-0.275155,-0.960862,0.032175535876641966
1762015698.166298,0.137391,-0.025994,-0.069804,0.987712,-0.004097,0.002468,0.000719,0.001867,-0.002127,0.002264,-0.032168,-0.275034,-0.960896,0.03217355675604963
1762015698.166532,0.137348,-0.025984,-0.069766,0.987721,-0.001132,1e-05,0.003134,0.001681,-0.002275,0.003195,-0.032165,-0.274948,-0.960921,0.03217054628832324
1762015698.199954,0.137337,-0.025959,-0.069718,0.987727,-0.001839,0.00181,0.003786,0.002088,-0.001433,0.002096,-0.032131,-0.274923,-0.960929,0.032136537677796756
1762015698.204581,0.137308,-0.025979,-0.069679,0.987733,-0.004206,-0.001724,0.002478,0.001983,-0.001497,0.001988,-0.032185,-0.274867,-0.960943,0.032190572216724306
1762015698.233564,0.137271,-0.025982,-0.069662,0.987739,-0.004139,-0.001535,0.000112,0.00146,-0.001686,0.002016,-0.032202,-0.274795,-0.960963,0.03220758173218563
1762015698.267176,0.13724,-0.026027,-0.069647,0.987743,3.4e-05,-0.006099,0.00146,0.000317,-0.002451,0.001838,-0.032298,-0.274741,-0.960976,0.03230360746243679
1762015698.268502,0.137247,-0.026073,-0.06963,0.987742,0.001464,-0.000929,0.000379,0.000479,-0.00107,0.003009,-0.032395,-0.27476,-0.960967,0.03240066764388303
1762015698.337201,0.137217,-0.026053,-0.069663,0.987745,0.000601,-0.000477,-0.002165,0.000943,0.000146,0.002818,-0.032349,-0.274701,-0.960985,0.0323546564909443
1762015698.337756,0.137187,-0.026032,-0.069697,0.987747,-0.000262,-2.5e-05,-0.004708,0.001406,0.001361,0.002627,-0.032303,-0.274641,-0.961004,0.03230862299513937
1762015698.338019,0.137157,-0.026011,-0.069731,0.987749,-0.001125,0.000427,-0.007251,0.00187,0.002577,0.002436,-0.032257,-0.274581,-0.961023,0.032262589398548154
