timestamp,quat_x,quat_y,quat_z,quat_w,rot_x,rot_y,rot_z,acc_x,acc_y,acc_z,grav_x,grav_y,grav_z
1760107861.379853,-0.012292,0.455019,0.000000,0.890397,-0.060468,-0.006452,-0.030924,-0.685985,0.119701,-0.409451,0.810295,0.021889,-0.585613
1760107861.385089,-0.053619,0.148888,-0.137039,0.977843,-0.030480,0.024797,-0.042803,-0.146649,-0.011349,-0.044768,0.276483,0.145669,-0.949915
1760107861.415377,-0.059040,0.103718,-0.155684,0.980571,-0.011902,0.054339,-0.051514,-0.057287,-0.015118,-0.021132,0.185023,0.148079,-0.971514
1760107861.470236,-0.062750,0.070411,-0.170178,0.980889,0.006981,0.083604,-0.072106,0.000657,-0.012996,0.000666,0.116774,0.147066,-0.982210
1760107861.470656,-0.060361,0.071735,-0.170679,0.980856,0.010839,0.081181,-0.080211,0.000999,-0.006797,-0.001224,0.120119,0.142898,-0.982421
1760107861.470867,-0.057972,0.073058,-0.171179,0.980816,0.014696,0.078758,-0.088316,0.001338,-0.000599,-0.003143,0.123466,0.138731,-0.982604
1760107861.502068,-0.056763,0.073766,-0.171743,0.980735,0.001159,0.072546,-0.092811,-0.000603,0.006050,0.000868,0.125193,0.136677,-0.982673
1760107861.502345,-0.055555,0.074474,-0.172306,0.980652,-0.012379,0.066335,-0.097306,-0.002545,0.012698,0.004870,0.126921,0.134624,-0.982735
1760107861.539945,-0.055832,0.074062,-0.173777,0.980408,-0.029158,0.056164,-0.074800,0.003915,0.030163,0.008361,0.125817,0.135217,-0.982795
1760107861.545349,-0.056411,0.074181,-0.174581,0.980223,-0.028931,0.042319,-0.053684,0.004068,0.035775,0.011316,0.125732,0.136491,-0.982630
1760107861.574043,-0.057053,0.074308,-0.175004,0.980101,-0.027365,0.025846,-0.051214,0.007064,0.035630,0.010602,0.125689,0.137844,-0.982447
1760107861.607807,-0.059337,0.075029,-0.175744,0.979777,-0.040070,-0.007562,-0.023916,0.003620,0.039834,0.018154,0.126167,0.142645,-0.981700
1760107861.608133,-0.060559,0.075278,-0.175780,0.979677,-0.060761,-0.031011,0.006631,0.001162,0.036196,0.017959,0.126207,0.145121,-0.981332
1760107861.637865,-0.061893,0.075427,-0.175681,0.979600,-0.060921,-0.038552,0.016439,0.003150,0.030390,0.012971,0.126029,0.147763,-0.980960
1760107861.666467,-0.064906,0.075913,-0.174995,0.979490,-0.061849,-0.031296,0.068159,0.003381,0.019089,-0.001305,0.125995,0.153718,-0.980049
1760107861.666755,-0.066103,0.076258,-0.174444,0.979482,-0.060407,-0.014332,0.084316,0.000644,0.012299,-0.002866,0.126324,0.156099,-0.979630
1760107861.696829,-0.067148,0.076553,-0.173880,0.979488,-0.056708,-0.000787,0.087728,-0.003199,0.006754,-0.001895,0.126613,0.158164,-0.979262
1760107861.744387,-0.069025,0.077293,-0.172379,0.979565,-0.036590,0.007030,0.096686,-0.007647,-0.002677,0.002643,0.127630,0.161875,-0.978523
1760107861.744737,-0.069286,0.077489,-0.172003,0.979597,-0.029081,0.012110,0.089094,-0.008694,-0.003592,0.004348,0.127981,0.162402,-0.978390
1760107861.745197,-0.069548,0.077686,-0.171627,0.979629,-0.021571,0.017189,0.081502,-0.009742,-0.004507,0.006052,0.128334,0.162928,-0.978256
1760107861.774808,-0.069661,0.077744,-0.170733,0.979772,0.021554,0.006313,0.036577,-0.002713,-0.009388,0.000052,0.128555,0.163050,-0.978207
1760107861.838296,-0.069074,0.077443,-0.170538,0.979872,0.038910,0.007472,0.007886,0.005361,0.002663,-0.004979,0.128209,0.161781,-0.978463
1760107861.838898,-0.068781,0.077452,-0.170510,0.979896,0.030780,0.019701,0.011517,0.008263,0.002170,-0.004966,0.128335,0.161209,-0.978541
1760107861.839278,-0.068488,0.077462,-0.170483,0.979921,0.022650,0.031930,0.015148,0.011166,0.001678,-0.004954,0.128461,0.160637,-0.978618
1760107861.870334,-0.067801,0.077886,-0.170306,0.979966,0.025489,0.046800,0.015567,0.012119,-0.008408,-0.001916,0.129558,0.159414,-0.978674
1760107861.902403,-0.067382,0.078097,-0.170354,0.979969,0.050253,0.045052,0.011417,0.013822,-0.008972,-0.005199,0.130107,0.158672,-0.978721
1760107861.902744,-0.066962,0.078307,-0.170403,0.979973,0.075017,0.043304,0.007266,0.015525,-0.009536,-0.008483,0.130657,0.157930,-0.978768
1760107861.903165,-0.066543,0.078518,-0.170452,0.979976,0.099781,0.041556,0.003115,0.017227,-0.010100,-0.011768,0.131206,0.157188,-0.978814
1760107861.946863,-0.063394,0.079321,-0.170590,0.980096,0.178007,0.045675,0.005698,0.007024,-0.005240,-0.011718,0.133855,0.151327,-0.979379
1760107861.947188,-0.062003,0.079469,-0.170626,0.980167,0.195206,0.030141,0.022263,0.003134,0.001906,0.000478,0.134628,0.148665,-0.979681
1760107861.976569,-0.060588,0.079544,-0.170496,0.980272,0.201200,0.020663,0.037630,0.001672,0.001582,0.000223,0.135290,0.145909,-0.980004
1760107862.007804,-0.057304,0.079520,-0.170033,0.980552,0.211152,0.000832,0.047767,-0.001829,0.000611,-0.000311,0.136460,0.139420,-0.980786
1760107862.018984,-0.055458,0.079227,-0.169682,0.980742,0.200012,-0.005581,0.051936,-0.001566,0.000884,-0.001320,0.136583,0.135667,-0.981295
1760107862.019308,-0.053612,0.078935,-0.169330,0.980929,0.188873,-0.011995,0.056105,-0.001300,0.001160,-0.002342,0.136702,0.131911,-0.981790
1760107862.049321,-0.052676,0.078792,-0.169034,0.981043,0.165643,-0.005294,0.060517,-0.003533,-0.002396,-0.000220,0.136788,0.129992,-0.982034
1760107862.077915,-0.051778,0.078652,-0.168740,0.981152,0.153629,-0.005290,0.054447,-0.004891,-0.006830,0.001125,0.136865,0.128148,-0.982266
1760107862.079081,-0.049737,0.078209,-0.168239,0.981379,0.147998,-0.012825,0.025324,-0.011275,-0.010684,0.002948,0.136770,0.123938,-0.982819
1760107862.109536,-0.048897,0.077980,-0.168160,0.981453,0.142356,-0.006334,0.022861,-0.005748,-0.005501,-0.007781,0.136622,0.122207,-0.983056
1760107862.140256,-0.048101,0.077901,-0.168085,0.981512,0.128326,0.015709,0.029407,-0.001650,-0.002574,-0.011264,0.136751,0.120611,-0.983236
1760107862.140567,-0.047304,0.077822,-0.168010,0.981570,0.114295,0.037753,0.035954,0.002449,0.000354,-0.014749,0.136880,0.119015,-0.983412
1760107862.171721,-0.045654,0.078140,-0.167399,0.981727,0.088422,0.050372,0.052774,-0.007082,-0.005248,-0.002667,0.138140,0.115800,-0.983620
1760107862.204996,-0.045048,0.078213,-0.167165,0.981789,0.089670,0.039897,0.048128,-0.008266,-0.004394,-0.000570,0.138516,0.114604,-0.983707
1760107862.205332,-0.044442,0.078285,-0.166931,0.981850,0.090918,0.029421,0.043483,-0.009450,-0.003540,0.001525,0.138890,0.113407,-0.983793
1760107862.236932,-0.043108,0.078332,-0.166487,0.981982,0.074892,0.007525,0.027671,-0.005557,-0.003760,0.007940,0.139488,0.110745,-0.984011
1760107862.265361,-0.042092,0.078142,-0.166178,0.982093,0.047157,0.016449,0.026363,0.000326,-0.007232,0.010367,0.139495,0.108646,-0.984244
1760107862.265703,-0.041736,0.078111,-0.166005,0.982140,0.049754,0.017623,0.030636,0.002579,-0.014118,0.005156,0.139576,0.107915,-0.984313
1760107862.312653,-0.041175,0.078373,-0.165818,0.982174,0.061564,0.030723,0.025519,0.000525,-0.020148,0.008056,0.140297,0.106873,-0.984325
1760107862.313120,-0.040614,0.078635,-0.165631,0.982209,0.073374,0.043823,0.020402,-0.001530,-0.026178,0.010955,0.141018,0.105831,-0.984334
1760107862.369534,-0.039030,0.079009,-0.165460,0.982272,0.111986,0.008421,0.015375,-0.000301,-0.021685,0.010364,0.142301,0.102821,-0.984469
1760107862.369889,-0.038021,0.079012,-0.165455,0.982312,0.108532,0.013898,0.014571,0.004404,-0.018112,0.003381,0.142647,0.100842,-0.984623
1760107862.370247,-0.037012,0.079015,-0.165449,0.982351,0.105077,0.019376,0.013767,0.009109,-0.014538,-0.003607,0.142993,0.098863,-0.984774
1760107862.414237,-0.036145,0.079004,-0.165381,0.982396,0.080190,0.005889,0.012137,0.005218,-0.011450,-0.003042,0.143270,0.097149,-0.984904
1760107862.414543,-0.035278,0.078993,-0.165314,0.982439,0.055303,-0.007597,0.010506,0.001327,-0.008363,-0.002481,0.143547,0.095435,-0.985031
1760107862.449325,-0.034296,0.078843,-0.165095,0.982523,-0.002571,-0.019559,0.025762,0.006978,-0.010327,-0.006107,0.143605,0.093426,-0.985215
1760107862.479624,-0.034326,0.078793,-0.164878,0.982562,-0.006128,-0.020273,0.025252,0.005717,-0.012997,-0.005939,0.143519,0.093437,-0.985227
1760107862.479939,-0.034356,0.078743,-0.164661,0.982602,-0.009685,-0.020987,0.024741,0.004457,-0.015667,-0.005771,0.143432,0.093447,-0.985238
1760107862.480198,-0.034385,0.078693,-0.164444,0.982641,-0.013243,-0.021702,0.024231,0.003196,-0.018337,-0.005603,0.143345,0.093458,-0.985250
1760107862.507784,-0.034538,0.078300,-0.164029,0.982736,-0.016171,-0.032390,0.023446,0.002790,-0.015738,-0.002260,0.142565,0.093570,-0.985353
1760107862.525557,-0.034587,0.078087,-0.163810,0.982788,-0.018681,-0.026344,0.020346,0.007141,-0.015951,-0.003119,0.142155,0.093566,-0.985412
1760107862.566030,-0.034683,0.077937,-0.163557,0.982839,-0.023320,-0.023965,0.016791,0.004931,-0.015322,-0.002857,0.141854,0.093669,-0.985446
1760107862.566318,-0.034779,0.077787,-0.163304,0.982889,-0.027959,-0.021586,0.013237,0.002721,-0.014693,-0.002594,0.141554,0.093773,-0.985479
1760107862.603415,-0.035086,0.077647,-0.162957,0.982947,-0.051195,-0.014394,0.025034,0.002830,-0.009895,-0.001096,0.141211,0.094282,-0.985480
1760107862.603765,-0.035324,0.077651,-0.162718,0.982978,-0.055650,-0.019104,0.024585,0.001087,-0.010856,-0.005781,0.141163,0.094716,-0.985445
1760107862.665911,-0.035886,0.077745,-0.162410,0.983001,-0.067477,-0.007491,0.025079,0.002361,-0.012480,-0.004826,0.141190,0.095805,-0.985336
1760107862.666226,-0.036448,0.077839,-0.162101,0.983024,-0.079304,0.004122,0.025572,0.003634,-0.014103,-0.003873,0.141219,0.096894,-0.985225
1760107862.666528,-0.037010,0.077933,-0.161793,0.983046,-0.091130,0.015735,0.026066,0.004907,-0.015726,-0.002921,0.141248,0.097983,-0.985113
1760107862.698505,-0.037493,0.078137,-0.161600,0.983043,-0.095009,0.016361,0.014239,0.002893,-0.017087,-0.000612,0.141507,0.098968,-0.984978
1760107862.698847,-0.037975,0.078341,-0.161406,0.983040,-0.098887,0.016988,0.002411,0.000879,-0.018448,0.001697,0.141766,0.099952,-0.984841
1760107862.728241,-0.039343,0.078598,-0.161612,0.982932,-0.106518,-0.007334,-0.028681,0.001992,-0.009987,0.003577,0.141796,0.102747,-0.984549
1760107862.757727,-0.040034,0.078648,-0.161720,0.982883,-0.118328,-0.009644,-0.023996,0.001731,-0.008873,0.002088,0.141655,0.104135,-0.984424
1760107862.767697,-0.041236,0.078652,-0.161779,0.982823,-0.125921,-0.023043,-0.012711,-0.004494,-0.010038,0.004030,0.141259,0.106504,-0.984227
1760107862.798102,-0.042071,0.078529,-0.161735,0.982805,-0.120328,-0.042656,-0.005903,-0.005866,-0.008543,0.004086,0.140749,0.108096,-0.984127
1760107862.826399,-0.044011,0.078121,-0.161458,0.982798,-0.123723,-0.044657,0.026600,-0.007316,0.002442,-0.001245,0.139343,0.111735,-0.983920
1760107862.833937,-0.045348,0.078135,-0.160875,0.982831,-0.138601,-0.018641,0.035473,-0.004973,0.001667,-0.006293,0.138996,0.114279,-0.983677
1760107862.863985,-0.046404,0.078280,-0.160425,0.982844,-0.150532,-0.001650,0.035287,-0.005346,0.002426,-0.007060,0.138985,0.116332,-0.983438
1760107862.864302,-0.047460,0.078424,-0.159975,0.982856,-0.162464,0.015341,0.035101,-0.005720,0.003186,-0.007830,0.138975,0.118385,-0.983194
1760107862.895013,-0.048461,0.078608,-0.159731,0.982832,-0.158185,0.007316,0.017496,-0.007181,0.001389,-0.003497,0.139036,0.120371,-0.982944
1760107862.931295,-0.050675,0.078845,-0.159563,0.982728,-0.119383,-0.010138,-0.022809,0.002251,0.003812,-0.003070,0.138794,0.124761,-0.982431
1760107862.931612,-0.051255,0.078888,-0.159611,0.982687,-0.109343,0.001740,-0.018008,0.005533,0.003922,-0.005268,0.138684,0.125919,-0.982299
1760107862.973397,-0.052521,0.079209,-0.159731,0.982575,-0.070522,0.021154,-0.014633,0.005253,0.002122,-0.000224,0.138878,0.128515,-0.981935
1760107862.973694,-0.052796,0.079275,-0.159774,0.982548,-0.062013,0.015534,-0.017059,0.006437,0.002424,-0.000726,0.138913,0.129081,-0.981856
1760107863.001193,-0.053583,0.079515,-0.160092,0.982434,-0.050932,0.001999,-0.025631,0.007752,0.006985,0.001910,0.139079,0.130743,-0.981613
1760107863.001585,-0.053919,0.079640,-0.160245,0.982381,-0.048673,0.005406,-0.023454,0.008259,0.004207,0.006627,0.139192,0.131462,-0.981500
1760107863.033725,-0.054176,0.079680,-0.160381,0.982341,-0.038899,-0.004019,-0.022873,0.004743,0.004325,0.008061,0.139168,0.131997,-0.981432
1760107863.064784,-0.054691,0.079543,-0.160644,0.982281,-0.020516,-0.020156,-0.015684,0.007954,0.009152,0.001855,0.138695,0.133000,-0.981364
1760107863.065097,-0.054875,0.079493,-0.160705,0.982264,-0.019802,-0.016506,-0.004507,0.008527,0.009938,0.000029,0.138529,0.133353,-0.981339
1760107863.083881,-0.055184,0.079605,-0.160598,0.982256,-0.035772,0.007721,0.016222,0.005020,0.009112,0.000136,0.138660,0.133978,-0.981236
1760107863.112478,-0.055431,0.079733,-0.160454,0.982255,-0.026770,-0.001290,0.010101,0.002043,0.001308,0.002608,0.138848,0.134482,-0.981140
1760107863.146734,-0.055779,0.079799,-0.160361,0.982245,-0.001172,-0.006217,-0.005309,0.004588,-0.002176,-0.000591,0.138874,0.135171,-0.981042
1760107863.147025,-0.055803,0.079840,-0.160396,0.982235,0.002239,0.004441,-0.004445,0.005312,-0.001959,-0.004415,0.138941,0.135236,-0.981023
1760107863.176532,-0.055798,0.079999,-0.160457,0.982212,0.005863,0.016393,-0.008642,0.004554,-0.002361,-0.003925,0.139245,0.135284,-0.980974
1760107863.199049,-0.055683,0.080465,-0.160671,0.982145,0.003631,0.034614,-0.014004,0.001544,-0.002181,-0.001094,0.140163,0.135234,-0.980850
1760107863.199385,-0.055600,0.080754,-0.160821,0.982102,0.003090,0.025648,-0.017408,0.000657,-0.005152,-0.001710,0.140733,0.135184,-0.980775
1760107863.228914,-0.055553,0.080929,-0.160981,0.982064,0.002015,0.024780,-0.020359,-0.000431,-0.002073,-0.001147,0.141069,0.135169,-0.980729
1760107863.270515,-0.055543,0.081116,-0.161069,0.982035,-0.002268,0.019817,-0.011202,0.000127,-0.001134,-0.000388,0.141425,0.135222,-0.980670
1760107863.270820,-0.055534,0.081303,-0.161156,0.982005,-0.006550,0.014853,-0.002044,0.000685,-0.000195,0.000371,0.141781,0.135275,-0.980612
1760107863.304641,-0.055603,0.081541,-0.161083,0.981994,-0.011591,0.003853,0.010783,0.001936,-0.003047,0.001930,0.142232,0.135472,-0.980519
1760107863.305031,-0.055669,0.081579,-0.161041,0.981994,-0.013137,0.004376,0.005119,0.002648,-0.004217,-0.000602,0.142290,0.135609,-0.980492
1760107863.349272,-0.055799,0.081604,-0.161094,0.981976,-0.012454,0.002452,-0.004675,0.002127,-0.004733,-0.000453,0.142289,0.135878,-0.980454
1760107863.349596,-0.055929,0.081629,-0.161147,0.981957,-0.011771,0.000528,-0.014469,0.001607,-0.005249,-0.000304,0.142288,0.136148,-0.980417
1760107863.381456,-0.056112,0.081615,-0.161473,0.981894,-0.003929,-0.004728,-0.030898,0.000629,-0.002355,0.000706,0.142153,0.136550,-0.980381
1760107863.381773,-0.056125,0.081576,-0.161700,0.981860,-0.001820,-0.006454,-0.029508,-0.000667,0.001135,0.002293,0.142041,0.136595,-0.980391
1760107863.414177,-0.056114,0.081505,-0.161869,0.981838,0.001454,-0.009244,-0.025706,-0.001002,0.001943,0.001241,0.141883,0.136577,-0.980416
1760107863.449480,-0.056037,0.081349,-0.162206,0.981800,0.006146,-0.011933,-0.019173,-0.003291,0.001524,-0.000990,0.141558,0.136425,-0.980484
1760107863.449777,-0.055960,0.081240,-0.162332,0.981793,0.009563,-0.011401,-0.017066,-0.001124,0.003316,-0.003160,0.141353,0.136258,-0.980537
1760107863.479952,-0.055885,0.081050,-0.162528,0.981780,0.007917,-0.011605,-0.003665,-0.006987,0.004020,0.001299,0.140980,0.136079,-0.980616
1760107863.480304,-0.055860,0.080909,-0.162555,0.981789,0.011933,-0.027322,-0.006212,-0.007025,0.002490,0.002850,0.140710,0.135989,-0.980667
1760107863.530048,-0.055792,0.080746,-0.162514,0.981813,0.015160,-0.015477,0.000015,-0.003921,0.000841,-0.001929,0.140422,0.135799,-0.980735
1760107863.530338,-0.055724,0.080584,-0.162473,0.981837,0.018386,-0.003631,0.006243,-0.000816,-0.000807,-0.006707,0.140134,0.135609,-0.980802
1760107863.572100,-0.055496,0.080595,-0.162366,0.981867,0.011630,0.019273,0.012136,-0.000982,0.003217,-0.007095,0.140246,0.135151,-0.980849
1760107863.572434,-0.055493,0.080705,-0.162314,0.981866,-0.001472,0.022003,0.011566,-0.003065,0.003499,-0.004668,0.140468,0.135172,-0.980815
1760107863.602429,-0.055704,0.080904,-0.162224,0.981853,-0.022612,-0.000982,-0.006798,-0.002678,0.000563,0.002673,0.140799,0.135636,-0.980703
1760107863.602753,-0.055905,0.080910,-0.162302,0.981828,-0.033473,0.003675,-0.011659,0.001460,0.001238,0.001301,0.140732,0.136041,-0.980657
1760107863.635668,-0.056110,0.080936,-0.162358,0.981805,-0.032428,0.001131,-0.012463,0.001868,0.000569,0.003391,0.140707,0.136459,-0.980602
1760107863.666141,-0.056592,0.080928,-0.162537,0.981748,-0.019883,-0.003541,-0.012669,0.002479,-0.003016,0.004029,0.140506,0.137425,-0.980496
1760107863.676336,-0.056677,0.080805,-0.162635,0.981737,-0.010509,-0.008157,-0.008149,0.003068,0.000124,0.003606,0.140223,0.137567,-0.980516
1760107863.707021,-0.056724,0.080702,-0.162687,0.981735,-0.006961,-0.010505,-0.006944,0.004141,0.001944,0.002132,0.139999,0.137635,-0.980539
1760107863.707336,-0.056772,0.080599,-0.162739,0.981732,-0.003412,-0.012854,-0.005739,0.005213,0.003764,0.000658,0.139774,0.137702,-0.980562
1760107863.749380,-0.056816,0.080349,-0.162760,0.981746,-0.001018,-0.024353,-0.002075,0.002906,0.002757,0.000587,0.139269,0.137713,-0.980632
1760107863.749712,-0.056870,0.080262,-0.162765,0.981749,-0.000698,-0.030872,-0.003242,0.003315,0.003024,-0.001289,0.139081,0.137791,-0.980648
1760107863.781571,-0.056935,0.080047,-0.162839,0.981751,-0.001078,0.004329,-0.006153,0.007420,0.001693,-0.007931,0.138630,0.137861,-0.980702
1760107863.781921,-0.056955,0.080153,-0.162839,0.981741,0.001109,0.008681,0.006703,0.003325,0.002035,-0.004658,0.138831,0.137935,-0.980663
1760107863.812056,-0.056930,0.080233,-0.162810,0.981741,0.005918,0.005224,0.002006,0.000422,-0.001313,-0.000419,0.138999,0.137906,-0.980643
1760107863.880751,-0.056748,0.080255,-0.162862,0.981741,0.016776,-0.009693,-0.006733,0.000007,-0.001528,0.002812,0.139095,0.137564,-0.980678
1760107863.881109,-0.056611,0.080204,-0.162895,0.981747,0.017851,-0.008302,-0.006638,-0.000336,-0.001850,0.002355,0.139038,0.137285,-0.980725
1760107863.881452,-0.056474,0.080154,-0.162928,0.981754,0.018925,-0.006911,-0.006542,-0.000679,-0.002172,0.001898,0.138980,0.137005,-0.980772
1760107863.881835,-0.056336,0.080103,-0.162962,0.981760,0.020000,-0.005520,-0.006446,-0.001022,-0.002495,0.001441,0.138923,0.136725,-0.980819
1760107863.916056,-0.056225,0.080056,-0.162992,0.981766,0.016282,-0.006366,-0.004818,-0.001142,-0.002118,-0.000432,0.138863,0.136497,-0.980860
1760107863.919123,-0.056068,0.079989,-0.163074,0.981766,0.004712,0.000992,-0.005109,-0.000432,-0.003385,-0.004377,0.138775,0.136180,-0.980916
1760107863.947647,-0.056055,0.079976,-0.163143,0.981757,0.000054,0.000875,-0.007528,-0.001332,-0.003631,-0.003402,0.138744,0.136161,-0.980923
1760107863.982750,-0.056135,0.080054,-0.163358,0.981710,-0.009802,0.003586,-0.019198,-0.001993,-0.003233,-0.002719,0.138840,0.136372,-0.980880
1760107863.983041,-0.056202,0.080059,-0.163478,0.981686,-0.010447,-0.000975,-0.016319,-0.002756,-0.001070,-0.002027,0.138809,0.136522,-0.980864
1760107864.012602,-0.056276,0.080056,-0.163579,0.981665,-0.011193,0.000973,-0.013735,-0.001089,-0.000507,-0.001654,0.138765,0.136680,-0.980848
1760107864.051977,-0.056437,0.080134,-0.163746,0.981621,-0.014521,0.009221,-0.006887,-0.000228,-0.001378,-0.001365,0.138840,0.137042,-0.980787
1760107864.054035,-0.056531,0.080139,-0.163841,0.981600,-0.012167,0.001476,-0.009856,-0.000765,-0.000813,-0.000360,0.138804,0.137241,-0.980764
1760107864.085538,-0.056595,0.080111,-0.163911,0.981587,-0.010647,-0.000949,-0.009125,-0.000452,-0.000480,-0.000213,0.138719,0.137367,-0.980758
1760107864.085819,-0.056659,0.080083,-0.163982,0.981573,-0.009127,-0.003374,-0.008394,-0.000139,-0.000147,-0.000065,0.138633,0.137494,-0.980753
1760107864.114741,-0.056741,0.080092,-0.164033,0.981559,-0.010328,-0.001140,-0.006414,-0.000543,0.000089,-0.000112,0.138616,0.137665,-0.980731
1760107864.118905,-0.056879,0.080078,-0.164120,0.981538,-0.004608,-0.000267,-0.002484,0.000141,0.001234,0.001200,0.138529,0.137943,-0.980704
1760107864.169286,-0.056946,0.080092,-0.164088,0.981538,-0.006326,-0.000537,0.001597,0.000017,-0.000139,-0.000375,0.138539,0.138074,-0.980685
1760107864.169602,-0.056968,0.080076,-0.164086,0.981539,-0.003591,0.000161,0.000436,0.000123,-0.000975,-0.002636,0.138501,0.138110,-0.980685
1760107864.199681,-0.057056,0.080202,-0.164055,0.981528,-0.011400,0.014674,0.005665,0.001623,0.001477,-0.002667,0.138721,0.138319,-0.980624
1760107864.200001,-0.057133,0.080345,-0.164024,0.981517,-0.014762,0.012713,0.004258,-0.001563,-0.001066,0.002405,0.138978,0.138512,-0.980561
1760107864.230615,-0.057199,0.080386,-0.164040,0.981508,-0.007475,-0.002752,-0.006196,-0.003538,-0.003310,0.005192,0.139032,0.138656,-0.980533
1760107864.264219,-0.057310,0.080321,-0.164233,0.981474,-0.003116,-0.000739,-0.014431,0.004226,-0.000999,-0.005864,0.138842,0.138878,-0.980528
1760107864.264461,-0.057335,0.080384,-0.164304,0.981456,-0.002225,0.017147,-0.015187,0.007138,-0.000148,-0.009827,0.138946,0.138959,-0.980502
1760107864.330608,-0.057415,0.080801,-0.164384,0.981403,-0.004845,0.011514,-0.015918,0.004084,0.000848,-0.004056,0.139720,0.139259,-0.980349
1760107864.330761,-0.057494,0.081218,-0.164463,0.981351,-0.007464,0.005881,-0.016649,0.001030,0.001843,0.001715,0.140495,0.139559,-0.980196
1760107864.330876,-0.057589,0.081364,-0.164625,0.981306,-0.012486,0.004950,-0.018596,0.002502,0.003039,0.001688,0.140725,0.139815,-0.980127
1760107864.360742,-0.057755,0.081468,-0.164815,0.981256,-0.016431,0.007932,-0.015283,0.002421,0.002881,0.003268,0.140843,0.140200,-0.980055
1760107864.415750,-0.057852,0.081478,-0.164960,0.981225,-0.007446,-0.001233,-0.014158,0.001345,0.001303,0.003995,0.140810,0.140413,-0.980029
1760107864.416052,-0.057949,0.081489,-0.165104,0.981194,0.001540,-0.010399,-0.013033,0.000268,-0.000276,0.004721,0.140777,0.140627,-0.980003
1760107864.417747,-0.057935,0.081345,-0.165196,0.981192,0.008977,-0.018796,-0.009444,0.000503,0.002631,0.003699,0.140489,0.140566,-0.980053
1760107864.449973,-0.057932,0.081181,-0.165244,0.981197,-0.002367,-0.010624,0.000896,0.000762,0.004912,0.000687,0.140164,0.140514,-0.980107
1760107864.450283,-0.058016,0.081070,-0.165156,0.981216,-0.012448,-0.017736,0.011201,-0.001213,0.004373,0.000320,0.139932,0.140630,-0.980124
1760107864.479031,-0.058208,0.080875,-0.164984,0.981250,-0.014742,-0.024955,0.012594,0.001926,0.000784,-0.003437,0.139511,0.140919,-0.980142
1760107864.509457,-0.058395,0.080786,-0.164889,0.981262,-0.014678,-0.009475,0.004415,0.002240,-0.002157,-0.006393,0.139288,0.141242,-0.980127
1760107864.530488,-0.058567,0.080825,-0.164844,0.981256,-0.014345,0.008654,0.000879,0.000953,-0.001757,-0.006729,0.139312,0.141586,-0.980074
1760107864.530775,-0.058690,0.080935,-0.164875,0.981235,-0.003451,0.001968,-0.006534,-0.001425,-0.003860,0.001285,0.139479,0.141866,-0.980010
1760107864.559266,-0.058721,0.080878,-0.165001,0.981216,0.002429,-0.007547,-0.016001,0.000007,-0.001480,0.002010,0.139340,0.141925,-0.980021
1760107864.589448,-0.058670,0.080834,-0.165154,0.981197,0.001830,-0.001984,-0.011954,0.000772,0.001176,-0.001209,0.139248,0.141833,-0.980048
1760107864.590813,-0.058597,0.080812,-0.165267,0.981184,0.009350,-0.001074,-0.007708,0.000157,0.000240,-0.000247,0.139215,0.141700,-0.980072
1760107864.620683,-0.058471,0.080736,-0.165343,0.981185,0.010282,-0.005339,-0.002246,-0.000044,0.000652,0.001583,0.139098,0.141440,-0.980126
1760107864.649747,-0.058347,0.080676,-0.165351,0.981196,0.007910,-0.003023,0.000545,0.000250,0.000627,-0.000227,0.139023,0.141179,-0.980174
1760107864.651737,-0.058260,0.080635,-0.165310,0.981212,0.007434,-0.002558,0.001106,0.002934,0.000331,-0.001855,0.138979,0.140991,-0.980207
1760107864.681176,-0.058191,0.080616,-0.165276,0.981223,0.004921,-0.000487,-0.000376,0.002032,-0.001586,-0.002307,0.138969,0.140844,-0.980230
1760107864.688947,-0.058182,0.080591,-0.165314,0.981219,0.000411,-0.003422,-0.003369,0.003340,-0.001292,0.000051,0.138917,0.140825,-0.980240
1760107864.729375,-0.058199,0.080534,-0.165381,0.981212,-0.002498,-0.006839,-0.007509,0.002382,-0.000242,-0.000288,0.138791,0.140848,-0.980254
1760107864.730759,-0.058270,0.080454,-0.165435,0.981205,-0.005086,-0.016246,-0.003663,0.002413,-0.001289,0.000872,0.138604,0.140969,-0.980264
1760107864.759964,-0.058333,0.080286,-0.165454,0.981212,-0.002067,-0.015694,0.000898,0.002202,-0.000236,-0.000134,0.138252,0.141042,-0.980303
1760107864.790504,-0.058325,0.080142,-0.165379,0.981237,0.002837,-0.013498,0.010277,0.001899,-0.000540,0.000228,0.137984,0.140969,-0.980351
1760107864.792372,-0.058308,0.080041,-0.165255,0.981267,0.005590,-0.013692,0.010080,-0.000172,-0.001111,0.001150,0.137811,0.140886,-0.980387
1760107864.822020,-0.058266,0.079901,-0.165170,0.981295,0.003715,-0.016490,0.008673,0.000358,-0.001522,0.000338,0.137566,0.140747,-0.980442
1760107864.829017,-0.058293,0.079725,-0.165102,0.981319,-0.003607,-0.015862,0.001568,-0.000028,-0.000841,-0.000496,0.137222,0.140734,-0.980492
1760107864.859571,-0.058396,0.079571,-0.165080,0.981329,-0.008943,-0.015598,-0.006083,0.000371,-0.002660,-0.002199,0.136890,0.140883,-0.980517
1760107864.888723,-0.058540,0.079436,-0.165143,0.981321,-0.014071,-0.014158,-0.010476,-0.000214,-0.002173,-0.002075,0.136569,0.141129,-0.980526
1760107864.890804,-0.058741,0.079287,-0.165201,0.981311,-0.021729,-0.014046,-0.012291,-0.000319,-0.002086,-0.002052,0.136203,0.141483,-0.980526
1760107864.919316,-0.058966,0.079166,-0.165194,0.981309,-0.025628,-0.019201,0.002250,-0.000150,-0.000934,-0.000923,0.135890,0.141884,-0.980511
1760107864.947669,-0.059221,0.079096,-0.165127,0.981310,-0.027072,-0.015048,0.009062,-0.000293,-0.000675,0.000402,0.135678,0.142349,-0.980473
1760107864.952246,-0.059515,0.078961,-0.165046,0.981317,-0.026727,-0.012100,0.000959,0.000375,-0.000856,-0.003884,0.135327,0.142870,-0.980446
1760107864.982843,-0.059777,0.078879,-0.165046,0.981308,-0.024802,-0.012212,-0.002441,-0.003018,-0.000932,0.000648,0.135076,0.143357,-0.980410
1760107865.012980,-0.060075,0.078770,-0.165024,0.981302,-0.021743,-0.020408,-0.004520,-0.004846,-0.002955,0.004820,0.134766,0.143902,-0.980373
1760107865.016440,-0.060269,0.078480,-0.165052,0.981309,-0.011123,-0.028800,-0.006468,-0.002918,0.000216,-0.000725,0.134131,0.144191,-0.980417
1760107865.046102,-0.060372,0.078281,-0.165048,0.981319,-0.008383,-0.006201,0.003850,0.003415,0.004224,-0.009668,0.133709,0.144328,-0.980455
1760107865.046428,-0.060478,0.078389,-0.164963,0.981318,-0.018347,0.018055,0.014642,0.003883,0.006294,-0.010127,0.133896,0.144559,-0.980395
1760107865.082204,-0.060700,0.078736,-0.164728,0.981316,-0.035872,0.035855,0.023836,-0.001729,0.003021,-0.004436,0.134531,0.145072,-0.980232
1760107865.088968,-0.060974,0.079034,-0.164546,0.981306,-0.027326,0.009230,0.003813,-0.004310,-0.002465,0.001767,0.135048,0.145677,-0.980072
1760107865.118916,-0.061202,0.079075,-0.164583,0.981282,-0.019959,0.000555,-0.012383,0.000368,-0.000120,-0.000166,0.135044,0.146142,-0.980003
1760107865.132155,-0.061456,0.079129,-0.164702,0.981242,-0.020932,0.006049,-0.009683,0.000249,0.001146,0.001128,0.135046,0.146672,-0.979923
1760107865.160916,-0.061660,0.079174,-0.164806,0.981208,-0.015271,0.002497,-0.010523,-0.001350,0.001248,0.005239,0.135048,0.147098,-0.979859
1760107865.167542,-0.061759,0.079160,-0.164865,0.981193,-0.003982,-0.005243,-0.002753,-0.002645,0.000996,0.006315,0.134979,0.147297,-0.979839
1760107865.199319,-0.061755,0.079069,-0.164841,0.981204,0.003858,-0.012183,0.003224,-0.001741,0.003072,0.004160,0.134806,0.147257,-0.979869
1760107865.229312,-0.061780,0.078960,-0.164818,0.981215,-0.004496,-0.008802,0.006013,0.000308,0.005856,-0.002555,0.134589,0.147267,-0.979897
1760107865.229642,-0.061914,0.078959,-0.164722,0.981223,-0.014066,-0.004283,0.010923,-0.002806,0.002424,-0.001485,0.134555,0.147515,-0.979864
1760107865.257504,-0.062095,0.078999,-0.164614,0.981227,-0.019901,0.000362,0.003562,-0.004515,0.000474,-0.002049,0.134589,0.147867,-0.979807
1760107865.288294,-0.062226,0.078907,-0.164638,0.981222,-0.000024,-0.004609,-0.014459,0.002048,-0.003321,-0.006918,0.134360,0.148098,-0.979803
1760107865.289486,-0.062255,0.078930,-0.164790,0.981192,-0.002767,0.009065,-0.008941,0.002233,0.003281,-0.005065,0.134374,0.148182,-0.979789
1760107865.325975,-0.062306,0.079103,-0.164843,0.981166,-0.003478,0.013584,-0.001110,-0.001209,0.004096,-0.000505,0.134684,0.148345,-0.979721
1760107865.326286,-0.062316,0.079156,-0.164901,0.981152,0.004143,0.000307,-0.009046,-0.002422,0.003192,0.002479,0.134776,0.148388,-0.979702
1760107865.360140,-0.062258,0.079139,-0.164963,0.981146,0.001111,0.001118,-0.002383,0.000535,0.003294,0.000924,0.134754,0.148278,-0.979722
1760107865.390169,-0.062267,0.079198,-0.164954,0.981143,-0.000288,0.005347,0.001791,0.000070,0.000433,0.000121,0.134866,0.148313,-0.979701
1760107865.390488,-0.062282,0.079254,-0.165020,0.981126,0.002745,0.003580,-0.010447,-0.000336,-0.003632,0.000147,0.134962,0.148370,-0.979679
1760107865.422891,-0.062234,0.079275,-0.165234,0.981091,0.009215,0.008966,-0.026031,0.001588,-0.003548,0.000423,0.134985,0.148313,-0.979685
1760107865.426457,-0.062156,0.079335,-0.165486,0.981049,0.009507,0.011096,-0.022055,0.001381,0.000434,0.000191,0.135091,0.148214,-0.979685
1760107865.455459,-0.062074,0.079401,-0.165744,0.981005,0.007206,0.012138,-0.017047,0.002440,0.001211,-0.000299,0.135208,0.148110,-0.979685
1760107865.485708,-0.062001,0.079521,-0.165884,0.980977,0.001467,0.011515,-0.007393,0.002336,0.002667,-0.001693,0.135446,0.148025,-0.979665
1760107865.487100,-0.061969,0.079581,-0.165921,0.980968,0.000744,0.002465,-0.002080,0.001084,0.000049,-0.000064,0.135568,0.147987,-0.979654
1760107865.529598,-0.062016,0.079623,-0.165905,0.980964,-0.003039,-0.001246,0.004295,0.002650,-0.000195,0.001007,0.135637,0.148091,-0.979628
1760107865.529894,-0.062040,0.079606,-0.165833,0.980976,-0.003782,-0.006739,0.007725,0.001923,-0.000563,0.000391,0.135607,0.148121,-0.979628
1760107865.564224,-0.062092,0.079525,-0.165700,0.981002,-0.004539,-0.012322,0.013229,0.002586,-0.004083,-0.000012,0.135452,0.148179,-0.979641
1760107865.567058,-0.062156,0.079426,-0.165525,0.981035,-0.006519,-0.014920,0.021123,0.000884,-0.006479,0.001013,0.135262,0.148249,-0.979656
1760107865.595361,-0.062208,0.079274,-0.165276,0.981086,-0.010504,-0.020443,0.022929,-0.000900,-0.008809,0.000985,0.134987,0.148268,-0.979691
1760107865.638311,-0.062431,0.079116,-0.164952,0.981139,-0.022069,-0.024555,0.030075,-0.001216,-0.011968,0.002094,0.134652,0.148607,-0.979686
1760107865.638566,-0.062653,0.078958,-0.164627,0.981192,-0.033633,-0.028668,0.037221,-0.001532,-0.015128,0.003202,0.134317,0.148946,-0.979681
1760107865.667384,-0.062978,0.078766,-0.164186,0.981261,-0.038878,-0.027756,0.042306,-0.002927,-0.024151,-0.000227,0.133901,0.149460,-0.979659
1760107865.669483,-0.063294,0.078563,-0.163752,0.981329,-0.035506,-0.028948,0.028379,-0.001354,-0.027607,-0.004595,0.133463,0.149953,-0.979644
1760107865.699522,-0.063698,0.078417,-0.163486,0.981359,-0.059619,-0.015646,0.020036,-0.000322,-0.026271,-0.006875,0.133084,0.150661,-0.979587
1760107865.707707,-0.064310,0.078489,-0.163190,0.981363,-0.086555,-0.002197,0.021167,-0.003662,-0.029612,0.000771,0.133063,0.151839,-0.979407
1760107865.737696,-0.065036,0.078568,-0.162919,0.981354,-0.087888,-0.003962,0.019082,-0.002094,-0.038475,-0.004123,0.133014,0.153247,-0.979195
1760107865.768286,-0.065661,0.078683,-0.162695,0.981340,-0.080648,0.007983,0.010512,-0.001443,-0.042774,-0.008780,0.133065,0.154474,-0.978995
1760107865.768653,-0.066211,0.078919,-0.162587,0.981302,-0.075101,0.016748,-0.003924,-0.000741,-0.043383,-0.007821,0.133357,0.155608,-0.978776
1760107865.796299,-0.066771,0.079162,-0.162558,0.981249,-0.090401,0.012168,-0.012479,-0.001725,-0.039103,-0.004279,0.133647,0.156776,-0.978550
1760107865.827270,-0.067489,0.079280,-0.162681,0.981170,-0.107978,0.003873,-0.023008,0.003469,-0.033821,-0.008530,0.133616,0.158231,-0.978320
1760107865.828145,-0.068435,0.079620,-0.162787,0.981060,-0.138334,0.035511,-0.015819,0.007950,-0.037399,-0.006784,0.133943,0.160199,-0.977955
1760107865.860728,-0.069447,0.080126,-0.162873,0.980933,-0.129477,0.038359,-0.025082,0.007193,-0.053407,0.002982,0.134573,0.162346,-0.977514
1760107865.867655,-0.070258,0.080505,-0.163149,0.980798,-0.101598,0.024174,-0.044161,0.008050,-0.060366,0.004188,0.134993,0.164086,-0.977166
1760107865.897842,-0.070884,0.080807,-0.163594,0.980654,-0.083162,0.027095,-0.065340,0.017399,-0.061977,-0.001356,0.135295,0.165464,-0.976891
1760107865.927724,-0.071434,0.081216,-0.164362,0.980452,-0.093055,0.045956,-0.089054,0.021608,-0.051106,-0.012160,0.135776,0.166772,-0.976602
1760107865.930411,-0.072176,0.081803,-0.165142,0.980218,-0.127515,0.045058,-0.090653,0.013891,-0.040880,-0.004251,0.136531,0.168515,-0.976198
1760107865.961102,-0.073190,0.082238,-0.165955,0.979969,-0.151719,0.007494,-0.093540,0.005601,-0.030123,0.004395,0.136889,0.170743,-0.975760
1760107866.009470,-0.074392,0.082212,-0.166676,0.979758,-0.157106,-0.017691,-0.078264,0.007490,-0.019912,0.005226,0.136297,0.173178,-0.975414
1760107866.009760,-0.075594,0.082186,-0.167397,0.979545,-0.162492,-0.042877,-0.062988,0.009383,-0.009699,0.006051,0.135701,0.175611,-0.975062
1760107866.011526,-0.077025,0.082142,-0.167756,0.979376,-0.174110,-0.028443,-0.044845,0.009611,-0.008401,0.006744,0.135054,0.178433,-0.974640
1760107866.041629,-0.078524,0.082170,-0.167926,0.979226,-0.168732,-0.018649,-0.027442,0.007796,-0.008395,0.005852,0.134553,0.181382,-0.974164
1760107866.045961,-0.079984,0.082253,-0.168035,0.979082,-0.160001,-0.022252,-0.026235,0.001272,-0.004885,0.009918,0.134184,0.184265,-0.973674
1760107866.082521,-0.081492,0.082239,-0.168099,0.978948,-0.166810,-0.037925,-0.025193,-0.000386,0.006767,0.005409,0.133617,0.187202,-0.973192
1760107866.089022,-0.083228,0.082307,-0.168073,0.978801,-0.200204,-0.025026,-0.001705,0.001091,0.013086,0.007112,0.133147,0.190593,-0.972598
1760107866.133145,-0.085199,0.082413,-0.167753,0.978677,-0.216229,-0.033457,0.019052,-0.004912,0.008509,0.015822,0.132727,0.194415,-0.971898
1760107866.135103,-0.087212,0.082321,-0.167340,0.978578,-0.204361,-0.064456,0.014211,-0.004210,0.010028,0.019652,0.131926,0.198238,-0.971235
1760107866.163668,-0.089310,0.082072,-0.166970,0.978473,-0.213091,-0.058651,0.024228,-0.000249,0.015052,0.018182,0.130786,0.202181,-0.970576
1760107866.165734,-0.091538,0.081955,-0.166338,0.978384,-0.230637,-0.047127,0.053647,0.001971,0.013900,0.015148,0.129915,0.206383,-0.969808
1760107866.194921,-0.093845,0.081908,-0.165600,0.978295,-0.226505,-0.052442,0.038448,-0.001168,0.005834,0.018284,0.129180,0.210743,-0.968968
1760107866.226816,-0.096047,0.081708,-0.165198,0.978166,-0.207963,-0.058734,0.000553,-0.001974,0.009257,0.012053,0.128115,0.214895,-0.968198
1760107866.228798,-0.098202,0.081462,-0.165146,0.977981,-0.210036,-0.065034,-0.032040,-0.002362,0.020749,0.012551,0.126901,0.218986,-0.967440
1760107866.257807,-0.100516,0.081187,-0.165265,0.977749,-0.228994,-0.060347,-0.043079,-0.000224,0.028186,0.007807,0.125538,0.223393,-0.966610
1760107866.287325,-0.102945,0.081036,-0.165350,0.977494,-0.245941,-0.059005,-0.028348,-0.001988,0.030452,0.004557,0.124381,0.228056,-0.965671
1760107866.289216,-0.105446,0.080906,-0.165374,0.977234,-0.243709,-0.041465,-0.021561,0.001055,0.030903,0.004918,0.123253,0.232850,-0.964671
1760107866.321277,-0.107924,0.080965,-0.165234,0.976983,-0.240832,-0.024923,0.005551,0.002036,0.021381,0.004859,0.122537,0.237636,-0.963594
1760107866.327787,-0.110276,0.081238,-0.164897,0.976754,-0.219190,-0.016062,0.015944,-0.001978,0.014665,0.003877,0.122332,0.242217,-0.962479
1760107866.357884,-0.112399,0.081380,-0.164550,0.976559,-0.189453,-0.029908,0.009014,-0.007930,0.012903,0.005094,0.121954,0.246311,-0.961487
1760107866.387307,-0.114418,0.081329,-0.164358,0.976361,-0.194909,-0.041036,-0.001132,-0.004533,0.024597,-0.004560,0.121203,0.250161,-0.960588
1760107866.387587,-0.116540,0.081449,-0.164223,0.976123,-0.210419,-0.017402,-0.008995,-0.002094,0.026873,-0.008597,0.120730,0.254267,-0.959569
1760107866.417134,-0.118674,0.081573,-0.164205,0.975858,-0.218050,-0.028957,-0.037313,-0.006308,0.041279,-0.010023,0.120233,0.258407,-0.958525
1760107866.426469,-0.120957,0.081572,-0.164425,0.975541,-0.238984,-0.027894,-0.046442,-0.006407,0.057341,-0.015001,0.119376,0.262823,-0.957431
1760107866.456515,-0.123534,0.081668,-0.164634,0.975174,-0.268894,-0.026661,-0.040020,-0.007167,0.061345,-0.009095,0.118605,0.267826,-0.956139
1760107866.486802,-0.126462,0.081937,-0.164654,0.974773,-0.301767,-0.014321,-0.019123,-0.006652,0.053206,-0.003692,0.118094,0.273525,-0.954588
1760107866.487133,-0.129480,0.082191,-0.164536,0.974375,-0.288658,-0.018689,-0.019604,-0.009473,0.035931,-0.002549,0.117562,0.279371,-0.952959
1760107866.531440,-0.132404,0.082439,-0.164560,0.973957,-0.267666,-0.015492,-0.026334,-0.008920,0.034273,0.003215,0.117008,0.285044,-0.951346
1760107866.561583,-0.134955,0.082668,-0.164677,0.973568,-0.244028,-0.010960,-0.033451,-0.008618,0.036359,0.002469,0.116517,0.290002,-0.949906
1760107866.565115,-0.137352,0.082916,-0.164838,0.973185,-0.227162,-0.002348,-0.035843,-0.009051,0.039057,0.002625,0.116104,0.294672,-0.948519
1760107866.593492,-0.139632,0.083204,-0.165025,0.972804,-0.214040,0.001104,-0.035566,-0.012301,0.039575,0.009661,0.115797,0.299130,-0.947160
1760107866.623401,-0.141766,0.083447,-0.165180,0.972448,-0.198395,0.000512,-0.031802,-0.012268,0.036723,0.009699,0.115462,0.303287,-0.945878
1760107866.624427,-0.143694,0.083691,-0.165328,0.972119,-0.159929,-0.004144,-0.033463,-0.013477,0.031673,0.012883,0.115202,0.307049,-0.944696
1760107866.654509,-0.145218,0.083750,-0.165574,0.971845,-0.114545,-0.006398,-0.040141,-0.011919,0.033970,0.005020,0.114696,0.309992,-0.943795
1760107866.683950,-0.146373,0.083750,-0.165935,0.971610,-0.079410,-0.003628,-0.048072,-0.011756,0.038256,0.001575,0.114168,0.312229,-0.943122
1760107866.685724,-0.147342,0.083743,-0.166405,0.971384,-0.071922,-0.000423,-0.052196,-0.012496,0.043598,0.001706,0.113656,0.314122,-0.942555
1760107866.718330,-0.148280,0.083736,-0.166905,0.971156,-0.077488,0.004256,-0.055814,-0.009841,0.046341,-0.000252,0.113144,0.315959,-0.942002
1760107866.723936,-0.149321,0.083866,-0.167328,0.970913,-0.090466,0.012914,-0.041028,-0.011591,0.043909,0.003115,0.112882,0.318021,-0.941340
1760107866.753915,-0.150429,0.084011,-0.167654,0.970673,-0.089113,0.004241,-0.036166,-0.011231,0.039339,0.006554,0.112655,0.320204,-0.940627
1760107866.783614,-0.151570,0.084115,-0.167901,0.970443,-0.095620,0.003090,-0.022926,-0.007514,0.034058,0.006450,0.112361,0.322427,-0.939902
1760107866.783899,-0.152742,0.084294,-0.168032,0.970221,-0.090772,0.012455,-0.019239,-0.003612,0.023350,0.006410,0.112237,0.324716,-0.939129
1760107866.813371,-0.153810,0.084506,-0.168211,0.970003,-0.083399,0.019853,-0.022513,-0.002331,0.021653,0.001474,0.112197,0.326823,-0.938402
1760107866.842633,-0.154824,0.084794,-0.168414,0.969781,-0.082080,0.024244,-0.021649,-0.004468,0.021740,0.001442,0.112315,0.328853,-0.937679
1760107866.846391,-0.155790,0.085082,-0.168650,0.969561,-0.078916,0.019606,-0.030523,-0.004712,0.018529,0.006008,0.112436,0.330794,-0.936981
1760107866.876408,-0.156679,0.085297,-0.168903,0.969354,-0.075100,0.012095,-0.027084,-0.004801,0.016201,0.009716,0.112438,0.332568,-0.936353
1760107866.907545,-0.157451,0.085417,-0.169109,0.969183,-0.057946,0.001827,-0.021291,-0.002048,0.012641,0.009205,0.112317,0.334087,-0.935826
1760107866.907835,-0.158045,0.085492,-0.169287,0.969048,-0.038981,0.005255,-0.020136,0.000548,0.009743,0.005611,0.112182,0.335252,-0.935426
1760107866.940373,-0.158479,0.085593,-0.169467,0.968937,-0.027631,0.007714,-0.017848,0.001978,0.008652,0.003511,0.112154,0.336123,-0.935116
1760107866.943112,-0.158848,0.085710,-0.169637,0.968837,-0.026863,0.009738,-0.012461,0.001436,0.009659,0.003305,0.112185,0.336874,-0.934842
1760107866.974836,-0.159151,0.085783,-0.169754,0.968760,-0.017566,0.007745,-0.011214,0.003786,0.010035,-0.002885,0.112174,0.337482,-0.934625
1760107867.004958,-0.159336,0.085912,-0.169870,0.968698,-0.006584,0.008376,-0.007527,0.004069,0.010125,-0.004205,0.112312,0.337884,-0.934463
1760107867.006064,-0.159422,0.086036,-0.169927,0.968663,-0.002231,0.003726,-0.003471,0.003586,0.008491,-0.004493,0.112500,0.338092,-0.934365
1760107867.041912,-0.159474,0.086093,-0.169994,0.968637,-0.001950,0.009637,-0.006548,0.007132,0.007577,-0.008033,0.112567,0.338215,-0.934312
1760107867.043973,-0.159556,0.086266,-0.170037,0.968601,-0.005671,0.017544,-0.000892,0.005932,0.003193,-0.006725,0.112854,0.338428,-0.934200
1760107867.098554,-0.159577,0.086442,-0.170125,0.968566,-0.000578,0.013486,-0.006903,0.004137,0.001524,-0.004837,0.113153,0.338533,-0.934126
1760107867.098813,-0.159598,0.086618,-0.170214,0.968531,0.004515,0.009428,-0.012913,0.002342,-0.000145,-0.002950,0.113453,0.338639,-0.934052
1760107867.104401,-0.159575,0.086727,-0.170349,0.968502,0.004662,0.005208,-0.013125,0.002075,-0.000387,-0.001251,0.113623,0.338646,-0.934028
1760107867.132818,-0.159573,0.086807,-0.170454,0.968476,0.000083,0.001690,-0.008026,0.001749,-0.001959,0.001067,0.113741,0.338678,-0.934002
1760107867.164903,-0.159578,0.086855,-0.170514,0.968461,0.000040,0.000807,-0.003832,0.001645,-0.005014,0.003761,0.113811,0.338711,-0.933982
1760107867.164994,-0.159543,0.086851,-0.170545,0.968461,0.005980,-0.001603,-0.002277,0.000100,-0.006355,0.004448,0.113805,0.338647,-0.934006
1760107867.195814,-0.159450,0.086825,-0.170562,0.968476,0.010852,-0.002672,-0.000492,-0.000749,-0.005049,0.002829,0.113783,0.338465,-0.934074
1760107867.202762,-0.159313,0.086798,-0.170555,0.968502,0.009756,-0.001283,0.004877,-0.000246,-0.002435,0.000629,0.113786,0.338198,-0.934171
1760107867.232714,-0.159199,0.086833,-0.170464,0.968534,0.005247,0.004532,0.008768,-0.000837,-0.002444,-0.001218,0.113925,0.337983,-0.934232
1760107867.260880,-0.159112,0.086902,-0.170383,0.968556,0.003646,0.006355,0.005595,-0.000976,-0.003262,-0.001297,0.114119,0.337831,-0.934263
1760107867.262949,-0.159025,0.086977,-0.170368,0.968566,0.004028,0.009910,0.002656,-0.000953,-0.002144,-0.002133,0.114301,0.337688,-0.934292
1760107867.291777,-0.158919,0.087059,-0.170415,0.968568,0.010821,0.010934,-0.006547,-0.002501,-0.001095,-0.002056,0.114481,0.337520,-0.934331
1760107867.323333,-0.158753,0.087105,-0.170556,0.968566,0.015847,0.010046,-0.011292,-0.002056,0.001316,-0.001935,0.114581,0.337239,-0.934420
1760107867.325292,-0.158583,0.087140,-0.170719,0.968562,0.012071,0.010907,-0.013801,-0.002179,0.002563,0.000287,0.114655,0.336948,-0.934516
1760107867.354811,-0.158478,0.087160,-0.170900,0.968546,0.006258,0.004946,-0.016768,-0.002964,0.004935,0.002616,0.114670,0.336778,-0.934575
1760107867.384289,-0.158445,0.087137,-0.171085,0.968521,-0.000034,-0.001312,-0.017053,-0.003537,0.006507,0.002545,0.114573,0.336731,-0.934604
1760107867.385660,-0.158471,0.087051,-0.171220,0.968500,-0.002116,-0.007650,-0.009448,-0.002744,0.008440,0.001872,0.114351,0.336769,-0.934618
1760107867.421966,-0.158550,0.086982,-0.171259,0.968487,-0.007413,-0.007639,-0.000736,-0.002058,0.008854,0.002001,0.114175,0.336899,-0.934592
1760107867.423757,-0.158689,0.086932,-0.171220,0.968475,-0.012169,-0.006104,0.006648,-0.000405,0.007054,0.000129,0.114041,0.337142,-0.934521
1760107867.455505,-0.158833,0.086922,-0.171116,0.968471,-0.008112,-0.002820,0.010938,0.000978,0.006785,0.000065,0.114006,0.337398,-0.934433
1760107867.485450,-0.158953,0.086958,-0.171004,0.968468,-0.003046,0.003107,0.009469,-0.000199,0.005712,-0.000946,0.114068,0.337621,-0.934345
1760107867.485755,-0.159026,0.087020,-0.170952,0.968459,0.000091,0.004841,0.002215,0.000008,0.004958,0.000210,0.114180,0.337773,-0.934276
1760107867.515044,-0.159049,0.087064,-0.170970,0.968449,0.004139,0.007909,-0.005370,0.000767,0.004777,0.000466,0.114248,0.337833,-0.934246
1760107867.550842,-0.158932,0.087126,-0.171083,0.968442,0.018441,0.004475,-0.007398,-0.000544,0.001924,0.004113,0.114372,0.337644,-0.934300
1760107867.551331,-0.158814,0.087188,-0.171197,0.968436,0.032744,0.001042,-0.009426,-0.001856,-0.000929,0.007761,0.114496,0.337455,-0.934353
1760107867.580128,-0.158485,0.087142,-0.171376,0.968462,0.050129,0.001354,-0.017088,-0.000857,-0.000429,0.003585,0.114467,0.336843,-0.934577
1760107867.582041,-0.158008,0.087013,-0.171598,0.968512,0.061212,0.000475,-0.014085,-0.000304,0.001342,0.000837,0.114318,0.335928,-0.934924
1760107867.611549,-0.157501,0.087004,-0.171769,0.968566,0.052407,0.011778,-0.007117,0.001911,0.005828,-0.001446,0.114431,0.334989,-0.935247
1760107867.643798,-0.157077,0.087113,-0.171828,0.968614,0.035273,0.023697,0.006605,0.000101,0.009239,-0.006403,0.114778,0.334231,-0.935476
1760107867.644045,-0.156790,0.087356,-0.171780,0.968647,0.019743,0.024639,0.015760,-0.003225,0.009271,-0.003691,0.115367,0.333761,-0.935571
1760107867.673411,-0.156588,0.087551,-0.171701,0.968676,0.015170,0.018704,0.012338,-0.003460,0.004908,-0.002028,0.115845,0.333432,-0.935630
1760107867.703041,-0.156429,0.087710,-0.171638,0.968699,0.014336,0.012400,0.009623,-0.002555,0.004146,0.001865,0.116231,0.333173,-0.935674
1760107867.706851,-0.156297,0.087831,-0.171592,0.968717,0.015151,0.013860,0.009867,-0.001478,0.003182,0.001880,0.116527,0.332957,-0.935714
1760107867.738100,-0.156143,0.087930,-0.171535,0.968743,0.020606,0.012041,0.008599,-0.001357,0.001672,0.005309,0.116794,0.332691,-0.935775
1760107867.741504,-0.155915,0.087982,-0.171496,0.968782,0.025008,0.006605,0.007781,-0.000721,0.001586,0.004646,0.116994,0.332273,-0.935899
1760107867.771408,-0.155681,0.088007,-0.171475,0.968821,0.023374,0.006140,0.005985,-0.000464,0.002354,0.002771,0.117134,0.331837,-0.936036
1760107867.801948,-0.155479,0.088003,-0.171449,0.968859,0.022381,0.004422,0.003676,0.000850,0.003104,-0.000977,0.117212,0.331450,-0.936163
1760107867.802466,-0.155296,0.088031,-0.171432,0.968889,0.021850,-0.000316,0.002047,0.000238,0.002252,-0.001273,0.117339,0.331112,-0.936267
1760107867.833019,-0.155108,0.088010,-0.171450,0.968917,0.023909,-0.004830,0.003314,-0.001544,0.002368,-0.001663,0.117363,0.330752,-0.936391
1760107867.863398,-0.154873,0.087895,-0.171474,0.968961,0.027430,-0.002929,-0.003593,0.002020,0.003764,-0.004692,0.117220,0.330274,-0.936578
1760107867.864510,-0.154634,0.087875,-0.171482,0.969000,0.023967,0.006803,0.006685,0.001850,0.002985,-0.005109,0.117268,0.329818,-0.936733
1760107867.893689,-0.154386,0.087981,-0.171453,0.969035,0.023955,0.014684,0.009070,0.001117,-0.001159,-0.002127,0.117573,0.329381,-0.936848
1760107867.904031,-0.154088,0.088061,-0.171450,0.969075,0.032064,0.009916,0.000231,0.000462,-0.004525,0.001555,0.117839,0.328842,-0.937004
1760107867.932870,-0.153713,0.088089,-0.171526,0.969119,0.038968,0.006688,-0.004729,0.001209,-0.005177,0.002166,0.118007,0.328151,-0.937225
1760107867.963293,-0.153315,0.088097,-0.171624,0.969164,0.040210,0.003442,-0.006374,0.001755,-0.005943,0.003657,0.118136,0.327415,-0.937466
1760107867.977746,-0.152926,0.088052,-0.171754,0.969206,0.034813,0.004782,-0.007388,0.002294,-0.005980,0.003192,0.118150,0.326681,-0.937721
1760107867.981425,-0.152593,0.088016,-0.171884,0.969239,0.033380,-0.002215,-0.008088,-0.000264,-0.006277,0.005285,0.118160,0.326055,-0.937937
1760107868.011690,-0.152281,0.087906,-0.172002,0.969277,0.028742,-0.005621,-0.005891,0.000403,-0.005388,0.001004,0.118025,0.325446,-0.938166
1760107868.043093,-0.152016,0.087808,-0.172082,0.969314,0.021781,-0.006318,-0.001814,-0.000128,-0.003502,0.000065,0.117909,0.324922,-0.938362
1760107868.045089,-0.151829,0.087742,-0.172110,0.969344,0.012341,-0.004510,0.000476,0.000326,-0.002489,-0.000645,0.117842,0.324551,-0.938499
1760107868.085811,-0.151702,0.087698,-0.172092,0.969371,0.007028,-0.002523,0.003601,0.000622,-0.000445,-0.001806,0.117810,0.324296,-0.938591
1760107868.086970,-0.151614,0.087701,-0.172043,0.969393,0.004631,0.001627,0.004815,0.001317,-0.000134,-0.003376,0.117865,0.324124,-0.938644
1760107868.118734,-0.151511,0.087724,-0.172025,0.969410,0.007174,0.004710,0.000359,0.000452,-0.000830,-0.002250,0.117954,0.323934,-0.938698
1760107868.119080,-0.151380,0.087734,-0.172076,0.969421,0.012376,0.003079,-0.003966,0.000263,0.000021,-0.000606,0.118005,0.323695,-0.938774
1760107868.149486,-0.151236,0.087737,-0.172157,0.969429,0.016908,0.004884,-0.007222,-0.000035,0.000878,-0.001118,0.118038,0.323433,-0.938860
1760107868.178815,-0.151018,0.087734,-0.172276,0.969442,0.024876,0.004505,-0.011609,-0.001248,0.002023,-0.000367,0.118072,0.323035,-0.938993
1760107868.182683,-0.150770,0.087693,-0.172412,0.969460,0.025775,0.002738,-0.008336,-0.001439,0.004872,-0.000890,0.118041,0.322570,-0.939156
1760107868.202574,-0.150502,0.087667,-0.172491,0.969490,0.024664,0.002463,-0.004003,-0.002520,0.005629,0.000330,0.118064,0.322064,-0.939327
1760107868.230822,-0.150263,0.087659,-0.172510,0.969524,0.023901,0.001604,0.004994,-0.001777,0.005965,0.000654,0.118131,0.321612,-0.939474
1760107868.260613,-0.150034,0.087674,-0.172471,0.969565,0.023781,0.006098,0.010288,-0.000666,0.005025,0.000970,0.118258,0.321179,-0.939606
1760107868.262674,-0.149827,0.087730,-0.172373,0.969610,0.021656,0.008745,0.012238,-0.000861,0.002780,0.001492,0.118475,0.320791,-0.939711
1760107868.291475,-0.149637,0.087738,-0.172314,0.969649,0.020500,0.003369,0.008611,-0.000189,0.001555,0.000259,0.118581,0.320427,-0.939822
1760107868.322406,-0.149490,0.087764,-0.172292,0.969673,0.016034,0.005676,0.004610,0.000438,0.000498,0.000200,0.118693,0.320154,-0.939901
1760107868.325407,-0.149367,0.087790,-0.172264,0.969695,0.013108,0.003690,0.002876,-0.001153,-0.001829,0.003963,0.118798,0.319926,-0.939965
1760107868.353648,-0.149241,0.087717,-0.172266,0.969720,0.017154,-0.012208,-0.002685,-0.003035,-0.001603,0.004545,0.118704,0.319666,-0.940065
1760107868.360290,-0.149117,0.087567,-0.172279,0.969751,0.013496,-0.008117,-0.000866,-0.000022,0.000968,-0.002328,0.118456,0.319384,-0.940193
1760107868.390497,-0.149028,0.087559,-0.172243,0.969771,0.007452,0.005113,0.006655,0.002504,0.002079,-0.005493,0.118487,0.319209,-0.940248
1760107868.420700,-0.148996,0.087741,-0.172165,0.969774,-0.006080,0.026935,0.014606,0.002976,0.004011,-0.007418,0.118873,0.319196,-0.940204
1760107868.422032,-0.149027,0.088068,-0.172068,0.969757,-0.008090,0.030846,0.013245,-0.000829,0.002411,-0.003521,0.119524,0.319347,-0.940070
1760107868.451029,-0.149038,0.088339,-0.172007,0.969741,-0.003798,0.018268,0.003720,-0.001798,0.002344,-0.000983,0.120060,0.319447,-0.939968
1760107868.483119,-0.149039,0.088481,-0.172037,0.969723,-0.001858,0.012034,-0.002695,-0.000130,0.003295,0.000370,0.120323,0.319497,-0.939917
1760107868.483290,-0.149047,0.088606,-0.172095,0.969700,0.001514,0.007690,-0.002530,-0.000034,0.003063,0.003301,0.120542,0.319559,-0.939868
1760107868.513474,-0.148973,0.088643,-0.172135,0.969701,0.011584,0.006325,-0.002772,0.001172,0.001739,0.002364,0.120628,0.319436,-0.939899
1760107868.520180,-0.148798,0.088623,-0.172226,0.969713,0.023358,0.002401,-0.003980,0.000066,0.000454,0.002967,0.120624,0.319110,-0.940010
1760107868.569962,-0.148551,0.088535,-0.172259,0.969753,0.025121,-0.003532,-0.001194,0.000167,0.001046,0.002630,0.120536,0.318617,-0.940188
1760107868.570274,-0.148303,0.088447,-0.172293,0.969793,0.026883,-0.009465,0.001592,0.000268,0.001638,0.002293,0.120447,0.318125,-0.940367
1760107868.603199,-0.148084,0.088335,-0.172267,0.969841,0.026545,-0.017547,0.005324,-0.000887,0.001441,0.001174,0.120322,0.317669,-0.940536
1760107868.603492,-0.147870,0.088167,-0.172204,0.969900,0.022621,-0.012876,0.009166,-0.000725,0.000297,-0.001590,0.120098,0.317204,-0.940722
1760107868.641029,-0.147637,0.087994,-0.172127,0.969965,0.029371,-0.012013,0.002306,0.003193,-0.002313,-0.004497,0.119877,0.316698,-0.940921
1760107868.642228,-0.147411,0.087897,-0.172101,0.970013,0.023751,-0.001181,0.004998,0.002762,-0.001436,-0.004077,0.119784,0.316235,-0.941088
1760107868.673562,-0.147202,0.087899,-0.172064,0.970051,0.019272,0.004036,0.005752,0.000407,-0.001627,-0.002979,0.119877,0.315836,-0.941211
1760107868.702972,-0.147007,0.087891,-0.172054,0.970083,0.023434,-0.000076,0.001554,-0.000155,-0.001846,-0.001632,0.119937,0.315462,-0.941328
1760107868.705158,-0.146761,0.087843,-0.172070,0.970122,0.023834,-0.001338,0.001237,0.000182,-0.000840,-0.002276,0.119930,0.314983,-0.941489
1760107868.737263,-0.146534,0.087826,-0.172060,0.970160,0.018951,-0.000180,0.005191,-0.000397,0.000240,-0.000625,0.119985,0.314545,-0.941629
1760107868.737542,-0.146333,0.087818,-0.172005,0.970201,0.013028,0.004176,0.008500,-0.000893,-0.000088,0.000053,0.120062,0.314154,-0.941750
1760107868.769450,-0.146162,0.087810,-0.171896,0.970246,0.015980,-0.001858,0.013556,-0.001129,-0.001504,0.001631,0.120146,0.313815,-0.941852
1760107868.799712,-0.145990,0.087799,-0.171777,0.970294,0.015878,0.002141,0.014276,-0.001204,-0.001657,-0.000638,0.120225,0.313471,-0.941956
1760107868.800022,-0.145824,0.087833,-0.171666,0.970336,0.011430,0.006977,0.010418,-0.000636,-0.002349,-0.002686,0.120389,0.313153,-0.942041
1760107868.827589,-0.145716,0.087934,-0.171636,0.970348,0.005180,0.010439,0.001443,-0.000518,-0.001732,-0.001092,0.120632,0.312975,-0.942069
1760107868.866288,-0.145671,0.088030,-0.171659,0.970342,0.000759,0.009013,-0.004019,-0.000957,-0.001750,-0.001753,0.120827,0.312924,-0.942061
1760107868.866570,-0.145655,0.088145,-0.171739,0.970320,-0.000721,0.010937,-0.010480,-0.000523,-0.001528,-0.001522,0.121028,0.312939,-0.942030
1760107868.895510,-0.145634,0.088198,-0.171876,0.970294,0.000340,0.009424,-0.012727,-0.000211,-0.000616,-0.000614,0.121094,0.312934,-0.942024
1760107868.897682,-0.145621,0.088247,-0.171990,0.970271,0.000589,0.007126,-0.008562,0.000143,-0.000761,0.001068,0.121157,0.312939,-0.942014
1760107868.932715,-0.145596,0.088271,-0.172071,0.970258,0.001010,0.004347,-0.005067,0.001188,-0.001557,0.002339,0.121185,0.312910,-0.942020
1760107868.962510,-0.145559,0.088272,-0.172128,0.970254,0.003536,-0.001918,-0.005560,0.001185,-0.001734,0.001940,0.121182,0.312846,-0.942041
1760107868.962701,-0.145528,0.088203,-0.172186,0.970255,0.004412,-0.005259,-0.006577,0.001377,-0.001432,0.001371,0.121044,0.312774,-0.942083
1760107868.991335,-0.145494,0.088115,-0.172266,0.970253,0.004237,-0.008172,-0.006986,0.000904,-0.001128,0.001049,0.120860,0.312691,-0.942134
1760107868.998214,-0.145459,0.088019,-0.172357,0.970251,0.006946,-0.012017,-0.006589,0.000521,-0.001381,0.001331,0.120659,0.312604,-0.942189
1760107869.029303,-0.145423,0.087863,-0.172415,0.970261,0.004850,-0.011610,-0.006170,0.001173,-0.001748,-0.000108,0.120354,0.312494,-0.942265
1760107869.059612,-0.145393,0.087732,-0.172472,0.970267,0.004458,-0.014235,-0.006643,0.001374,-0.001436,0.000557,0.120094,0.312402,-0.942328
1760107869.059861,-0.145373,0.087566,-0.172505,0.970279,0.000726,-0.014083,-0.005745,0.002457,-0.001203,-0.001149,0.119772,0.312316,-0.942398
1760107869.087430,-0.145401,0.087420,-0.172526,0.970284,-0.002758,-0.014241,-0.001444,0.000933,-0.001789,0.000882,0.119474,0.312325,-0.942433
1760107869.118230,-0.145472,0.087250,-0.172447,0.970303,-0.004934,-0.022003,0.004762,-0.000025,-0.003673,0.004260,0.119145,0.312395,-0.942451
1760107869.120968,-0.145547,0.087029,-0.172339,0.970330,-0.005298,-0.031420,0.006742,-0.001910,-0.002578,0.003135,0.118726,0.312455,-0.942484
1760107869.150040,-0.145640,0.086736,-0.172172,0.970372,-0.008208,-0.028870,0.013606,0.000589,-0.000559,-0.002005,0.118181,0.312516,-0.942532
1760107869.181909,-0.145746,0.086528,-0.171972,0.970411,-0.012517,-0.017925,0.017014,0.004287,0.001104,-0.007059,0.117808,0.312628,-0.942542
1760107869.183504,-0.145918,0.086561,-0.171700,0.970430,-0.027008,0.011088,0.029691,0.004877,0.002928,-0.009218,0.117894,0.312931,-0.942430
1760107869.212356,-0.146145,0.086818,-0.171390,0.970428,-0.028228,0.015556,0.025351,-0.000337,-0.003032,-0.002417,0.118406,0.313406,-0.942208
1760107869.217625,-0.146329,0.086940,-0.171241,0.970415,-0.014125,0.000836,0.003542,-0.001857,-0.005067,0.001572,0.118621,0.313776,-0.942058
1760107869.247884,-0.146424,0.086921,-0.171240,0.970403,-0.006442,-0.007388,-0.007867,-0.000785,-0.002375,0.000186,0.118549,0.313950,-0.942009
1760107869.277930,-0.146487,0.086868,-0.171332,0.970382,-0.005361,-0.003659,-0.010317,0.000097,-0.000147,-0.000767,0.118395,0.314062,-0.941991
1760107869.278220,-0.146516,0.086852,-0.171439,0.970360,-0.002597,0.001483,-0.010221,-0.001350,0.000404,0.001196,0.118317,0.314126,-0.941980
1760107869.313661,-0.146509,0.086812,-0.171516,0.970351,-0.000143,-0.001514,-0.005399,-0.002529,0.001272,0.003118,0.118218,0.314110,-0.941998
1760107869.316674,-0.146456,0.086713,-0.171535,0.970365,0.008512,-0.008845,-0.000329,-0.003653,0.002283,0.001551,0.118042,0.313980,-0.942063
1760107869.344893,-0.146400,0.086596,-0.171518,0.970386,0.006308,-0.007101,0.004872,-0.001319,0.003556,-0.002137,0.117843,0.313835,-0.942136
1760107869.375595,-0.146383,0.086523,-0.171451,0.970407,0.002184,-0.010772,0.010038,-0.002334,0.001958,-0.000253,0.117730,0.313771,-0.942172
1760107869.377807,-0.146416,0.086467,-0.171315,0.970431,-0.002109,-0.008537,0.012269,-0.002040,-0.002950,-0.000524,0.117654,0.313799,-0.942172
1760107869.406119,-0.146387,0.086337,-0.171264,0.970456,0.007968,-0.006134,0.000881,-0.000292,-0.003534,-0.003928,0.117431,0.313698,-0.942233
1760107869.439008,-0.146356,0.086291,-0.171282,0.970462,0.003823,0.001053,0.002038,0.000353,-0.001024,-0.003603,0.117349,0.313627,-0.942267
1760107869.439256,-0.146387,0.086346,-0.171288,0.970451,-0.005147,0.004410,0.001303,-0.001083,-0.000433,-0.001971,0.117441,0.313703,-0.942230
1760107869.467851,-0.146431,0.086359,-0.171300,0.970441,-0.003975,0.000514,-0.005031,-0.001323,-0.001223,-0.001262,0.117444,0.313793,-0.942200
1760107869.501864,-0.146427,0.086367,-0.171342,0.970434,-0.001816,0.002134,-0.003778,0.000116,0.000714,-0.001752,0.117449,0.313793,-0.942200
1760107869.503199,-0.146395,0.086399,-0.171384,0.970428,0.001838,0.003618,-0.002917,-0.000160,-0.000125,-0.000222,0.117509,0.313746,-0.942207
1760107869.533542,-0.146358,0.086432,-0.171402,0.970428,0.001231,0.002989,-0.001078,-0.000251,0.000473,0.002065,0.117580,0.313689,-0.942218
1760107869.535544,-0.146308,0.086422,-0.171422,0.970433,0.002016,0.001502,-0.001060,-0.000297,-0.000217,0.001192,0.117574,0.313593,-0.942250
1760107869.565029,-0.146250,0.086435,-0.171444,0.970436,0.001703,0.002994,-0.001249,-0.000279,0.000898,-0.000520,0.117613,0.313490,-0.942280
1760107869.595697,-0.146230,0.086461,-0.171489,0.970429,-0.000054,0.005017,-0.004301,0.001091,0.001316,-0.001386,0.117655,0.313466,-0.942282
1760107869.597768,-0.146266,0.086496,-0.171565,0.970407,-0.005144,0.004473,-0.005153,0.001014,0.001663,-0.001802,0.117685,0.313555,-0.942249
1760107869.626219,-0.146351,0.086544,-0.171626,0.970379,-0.006958,0.000556,-0.005272,0.000647,0.001439,-0.000656,0.117725,0.313739,-0.942183
1760107869.659372,-0.146417,0.086574,-0.171696,0.970354,-0.003927,0.001592,-0.006645,0.000442,0.000921,-0.000672,0.117736,0.313882,-0.942134
1760107869.659620,-0.146439,0.086576,-0.171782,0.970336,0.000986,-0.002991,-0.008093,0.000306,0.001211,0.000621,0.117704,0.313934,-0.942120
1760107869.690386,-0.146461,0.086534,-0.171861,0.970322,0.002250,-0.004494,-0.005155,0.000329,0.001755,0.001528,0.117590,0.313973,-0.942122
1760107869.721037,-0.146457,0.086476,-0.171902,0.970321,0.003806,-0.008194,-0.001086,-0.000040,0.002544,0.001326,0.117466,0.313951,-0.942145
1760107869.721385,-0.146393,0.086394,-0.171895,0.970339,0.009888,-0.007667,0.002933,0.000131,0.001800,0.001351,0.117335,0.313803,-0.942210
1760107869.755561,-0.146275,0.086313,-0.171859,0.970370,0.014721,-0.006495,0.006533,0.000254,0.001047,0.000053,0.117233,0.313548,-0.942308
1760107869.757592,-0.146151,0.086235,-0.171801,0.970406,0.013639,-0.004191,0.004620,0.000237,0.001259,0.000893,0.117149,0.313282,-0.942407
1760107869.786540,-0.146056,0.086190,-0.171745,0.970434,0.010343,-0.004258,0.003529,0.000085,0.000452,0.000320,0.117115,0.313081,-0.942478
1760107869.817077,-0.145991,0.086143,-0.171713,0.970454,0.007224,-0.002700,0.001862,-0.000177,-0.000237,0.000552,0.117059,0.312939,-0.942532
1760107869.819088,-0.145970,0.086088,-0.171701,0.970464,0.004637,-0.003522,-0.000692,-0.000063,-0.000085,0.000197,0.116963,0.312879,-0.942564
1760107869.849494,-0.145977,0.086024,-0.171745,0.970461,-0.000046,-0.001616,-0.006799,0.001180,0.000042,-0.002904,0.116825,0.312878,-0.942581
1760107869.882118,-0.146038,0.086033,-0.171808,0.970440,-0.007812,-0.000789,-0.004499,-0.000160,0.001145,0.000631,0.116798,0.313004,-0.942543
1760107869.882360,-0.146129,0.086028,-0.171789,0.970430,-0.008693,-0.004893,0.000444,-0.001237,-0.001559,0.003306,0.116761,0.313173,-0.942491
1760107869.909883,-0.146208,0.085892,-0.171764,0.970434,-0.005170,-0.019882,0.000739,-0.003224,-0.000563,0.001643,0.116479,0.313277,-0.942492
1760107869.916817,-0.146263,0.085723,-0.171714,0.970450,-0.006705,-0.011024,0.005157,0.001537,-0.000610,-0.003985,0.116148,0.313322,-0.942517
1760107869.945182,-0.146370,0.085730,-0.171618,0.970450,-0.011986,0.007863,0.009742,0.003037,0.000379,-0.006951,0.116154,0.313515,-0.942452
1760107869.976743,-0.146493,0.085948,-0.171484,0.970436,-0.023096,0.025153,0.014861,0.002026,0.000764,-0.006863,0.116572,0.313801,-0.942306
1760107869.978844,-0.146689,0.086223,-0.171357,0.970405,-0.023990,0.018817,0.006778,-0.001195,-0.001001,-0.001703,0.117070,0.314244,-0.942096
1760107870.007745,-0.146865,0.086346,-0.171357,0.970367,-0.018020,0.001212,-0.007101,-0.001434,-0.000959,0.000198,0.117241,0.314618,-0.941950
1760107870.038071,-0.147024,0.086332,-0.171414,0.970334,-0.017990,-0.006128,-0.010342,0.000264,0.001317,0.002849,0.117137,0.314922,-0.941862
1760107870.040250,-0.147199,0.086267,-0.171452,0.970307,-0.011459,-0.009899,-0.003981,0.000353,0.000839,0.004212,0.116935,0.315237,-0.941781
1760107870.071822,-0.147293,0.086174,-0.171436,0.970303,-0.003451,-0.011216,0.004610,-0.001705,0.000415,0.004375,0.116727,0.315385,-0.941758
1760107870.074790,-0.147315,0.086046,-0.171340,0.970328,-0.000268,-0.015651,0.013351,-0.002487,-0.000184,0.003982,0.116503,0.315375,-0.941789
1760107870.103718,-0.147360,0.085879,-0.171176,0.970365,-0.005653,-0.017884,0.012622,-0.000923,-0.000517,0.000908,0.116219,0.315388,-0.941819
1760107870.134789,-0.147493,0.085766,-0.170998,0.970386,-0.017685,-0.008517,0.011226,0.000668,-0.001943,-0.000838,0.116011,0.315581,-0.941780
1760107870.135925,-0.147706,0.085690,-0.170851,0.970387,-0.019761,-0.012739,0.008655,-0.000150,-0.002937,-0.002541,0.115833,0.315944,-0.941681
1760107870.168209,-0.147923,0.085558,-0.170779,0.970378,-0.011706,-0.019968,-0.006338,-0.000868,-0.005055,-0.004024,0.115524,0.316305,-0.941597
1760107870.199429,-0.148061,0.085416,-0.170864,0.970354,-0.011927,-0.007900,-0.014440,0.001438,-0.001304,-0.006678,0.115171,0.316532,-0.941564
1760107870.201541,-0.148200,0.085431,-0.170953,0.970316,-0.019502,0.004461,-0.005715,0.000695,0.002401,-0.006067,0.115120,0.316810,-0.941477
1760107870.229858,-0.148383,0.085491,-0.170964,0.970281,-0.020773,0.004309,-0.002376,-0.000986,0.001208,-0.002234,0.115164,0.317178,-0.941348
1760107870.236429,-0.148520,0.085484,-0.170963,0.970261,-0.013824,-0.002090,0.000191,-0.001370,-0.000223,0.000061,0.115101,0.317436,-0.941268
1760107870.266358,-0.148597,0.085492,-0.170935,0.970253,-0.007894,-0.001537,0.001467,0.000233,0.000183,0.000580,0.115096,0.317580,-0.941220
1760107870.295961,-0.148640,0.085458,-0.170912,0.970254,-0.001026,-0.002989,0.002725,-0.000139,-0.000355,0.000648,0.115024,0.317648,-0.941206
1760107870.296284,-0.148621,0.085416,-0.170892,0.970264,0.004569,-0.002622,0.001733,-0.000046,-0.000117,0.000213,0.114955,0.317597,-0.941232
1760107870.326795,-0.148567,0.085365,-0.170887,0.970277,0.008512,-0.001243,-0.000215,-0.000232,-0.000456,0.000527,0.114879,0.317478,-0.941281
1760107870.356336,-0.148440,0.085343,-0.170879,0.970300,0.012858,0.000153,-0.000435,0.000794,0.001523,-0.001661,0.114887,0.317229,-0.941364
1760107870.360151,-0.148290,0.085353,-0.170908,0.970317,0.018338,0.002207,-0.004679,0.000808,0.003260,-0.002481,0.114951,0.316953,-0.941450
1760107870.390179,-0.148110,0.085355,-0.170951,0.970337,0.019044,0.004220,-0.005353,0.000540,0.007359,-0.002494,0.115008,0.316615,-0.941556
1760107870.394306,-0.147883,0.085313,-0.171051,0.970358,0.024975,-0.001945,-0.010982,-0.002193,0.014012,-0.005537,0.114977,0.316184,-0.941705
1760107870.428308,-0.147637,0.085224,-0.171196,0.970377,0.031571,-0.005506,-0.010113,-0.003629,0.025730,-0.009455,0.114850,0.315707,-0.941880
1760107870.456362,-0.147336,0.085134,-0.171293,0.970414,0.036229,0.004345,0.005206,-0.003438,0.037205,-0.011953,0.114756,0.315120,-0.942088
1760107870.458099,-0.146895,0.085093,-0.171251,0.970492,0.059892,-0.003852,0.016005,-0.006463,0.043900,-0.009573,0.114853,0.314264,-0.942362
1760107870.490695,-0.146230,0.084998,-0.171133,0.970621,0.086964,-0.001080,0.024094,-0.005459,0.046382,-0.011385,0.114951,0.312960,-0.942784
1760107870.494016,-0.145252,0.084835,-0.171017,0.970803,0.129095,0.001565,0.017403,-0.002955,0.046948,-0.016869,0.115035,0.311039,-0.943410
1760107870.533537,-0.143935,0.084646,-0.171006,0.971017,0.166531,0.007326,0.017766,-0.002347,0.054660,-0.019494,0.115157,0.308478,-0.944235
1760107870.534365,-0.142342,0.084389,-0.171012,0.971274,0.192465,-0.008517,0.018049,-0.004631,0.068410,-0.025583,0.115245,0.305368,-0.945235
1760107870.567141,-0.140676,0.084228,-0.170986,0.971535,0.184802,0.017740,0.029511,-0.006362,0.079570,-0.020796,0.115553,0.302146,-0.946232
1760107870.574106,-0.138935,0.084049,-0.170699,0.971851,0.199675,0.009177,0.058731,-0.004896,0.075393,-0.016677,0.115933,0.298742,-0.947266
1760107870.603997,-0.136991,0.083968,-0.170318,0.972201,0.226614,0.032169,0.063267,-0.000774,0.055799,-0.005238,0.116604,0.294968,-0.948366
1760107870.633823,-0.134640,0.083929,-0.170128,0.972566,0.287145,0.031030,0.029650,-0.003961,0.037605,0.009349,0.117440,0.290449,-0.949656
1760107870.634089,-0.131903,0.083730,-0.170317,0.972925,0.325003,0.026341,0.008818,-0.010183,0.039738,0.017523,0.117995,0.285185,-0.951182
1760107870.675620,-0.129001,0.083380,-0.170519,0.973309,0.336268,0.013924,0.017396,-0.014264,0.049185,0.020249,0.118314,0.279551,-0.952813
1760107870.677686,-0.126022,0.083022,-0.170450,0.973742,0.340617,0.005717,0.057282,-0.009424,0.049043,0.026061,0.118723,0.273728,-0.954452
1760107870.706192,-0.122906,0.082660,-0.170077,0.974236,0.358042,0.020081,0.084756,-0.003361,0.032293,0.023544,0.119253,0.267595,-0.956123
1760107870.712989,-0.119449,0.082353,-0.169604,0.974774,0.411712,0.023661,0.082044,-0.004792,0.007365,0.024725,0.120033,0.260807,-0.957900
1760107870.741477,-0.115475,0.081899,-0.169318,0.975341,0.479086,0.013789,0.068062,-0.005889,-0.000427,0.028428,0.120655,0.252990,-0.959916
1760107870.771789,-0.110959,0.081293,-0.169117,0.975950,0.529041,0.018280,0.067093,-0.004587,-0.002271,0.020923,0.121147,0.244076,-0.962159
1760107870.773277,-0.105985,0.080618,-0.168991,0.976581,0.551066,0.014178,0.057340,-0.000725,0.008337,0.002911,0.121640,0.234254,-0.964536
1760107870.802968,-0.100968,0.080154,-0.168892,0.977168,0.516745,0.050190,0.065058,-0.002660,0.019188,-0.003784,0.122542,0.224399,-0.966762
1760107870.833863,-0.096159,0.079914,-0.168711,0.977703,0.491110,0.052629,0.064380,-0.009003,0.020713,-0.001130,0.123818,0.214994,-0.968735
1760107870.834590,-0.091550,0.079679,-0.168541,0.978194,0.482335,0.049636,0.064175,-0.009786,0.018731,0.005879,0.125024,0.205965,-0.970540
1760107870.869092,-0.086955,0.079353,-0.168311,0.978679,0.486775,0.038151,0.071675,-0.007906,0.014353,0.005466,0.126052,0.196915,-0.972284
1760107870.873018,-0.082346,0.078928,-0.168001,0.979166,0.500288,0.022441,0.082318,-0.007859,0.013247,0.004266,0.126898,0.187780,-0.973979
1760107870.901380,-0.077704,0.078317,-0.167547,0.979672,0.490318,0.019390,0.100131,-0.004883,0.020758,-0.002492,0.127411,0.178492,-0.975657
1760107870.934761,-0.073221,0.077731,-0.166881,0.980177,0.473863,0.008476,0.121652,-0.000965,0.019306,-0.003294,0.127943,0.169482,-0.977193
1760107870.935092,-0.068896,0.077226,-0.166053,0.980671,0.452673,0.028539,0.121143,0.002617,0.008713,-0.011641,0.128585,0.160776,-0.978579
1760107870.964385,-0.064603,0.076934,-0.165256,0.981121,0.457216,0.056808,0.120498,0.007815,-0.011354,-0.010530,0.129610,0.152195,-0.979815
1760107870.996316,-0.060166,0.076826,-0.164652,0.981513,0.481061,0.060500,0.084836,0.005705,-0.024756,0.000162,0.130998,0.143406,-0.980956
1760107870.996556,-0.055592,0.076630,-0.164375,0.981844,0.486632,0.052527,0.063953,0.006829,-0.019701,0.006028,0.132202,0.134356,-0.982075
1760107871.025687,-0.051096,0.076533,-0.164174,0.982130,0.453744,0.061773,0.062293,0.008877,-0.018864,0.014021,0.133554,0.125494,-0.983064
1760107871.032670,-0.046829,0.076494,-0.163898,0.982392,0.410956,0.063999,0.063761,0.014003,-0.021192,0.011024,0.134943,0.117083,-0.983912
1760107871.063080,-0.042942,0.076671,-0.163622,0.982601,0.357362,0.077464,0.068262,0.010792,-0.025049,0.022285,0.136620,0.109480,-0.984555
1760107871.093074,-0.039487,0.076897,-0.163210,0.982797,0.316925,0.065452,0.073466,0.009827,-0.036122,0.028427,0.138258,0.102716,-0.985055
1760107871.095145,-0.036436,0.077070,-0.162751,0.982978,0.278975,0.053110,0.072252,0.012263,-0.045361,0.028809,0.139656,0.096717,-0.985465
1760107871.129303,-0.033750,0.077228,-0.162271,0.983140,0.245540,0.038340,0.068951,0.009331,-0.051468,0.034137,0.140899,0.091427,-0.985793
1760107871.131391,-0.031425,0.077174,-0.161804,0.983299,0.204017,0.012214,0.063159,0.009865,-0.055162,0.028244,0.141602,0.086775,-0.986113
1760107871.160156,-0.029515,0.077061,-0.161298,0.983450,0.152644,0.005736,0.065621,0.010722,-0.059054,0.021275,0.142051,0.082913,-0.986381
1760107871.200279,-0.028035,0.076949,-0.160853,0.983575,0.115210,0.005482,0.046203,0.010646,-0.061593,0.013787,0.142351,0.079904,-0.986586
1760107871.201035,-0.026841,0.076853,-0.160494,0.983674,0.090108,-0.003447,0.040149,0.006170,-0.062927,0.014205,0.142581,0.077474,-0.986746
1760107871.258531,-0.025770,0.076655,-0.160109,0.983781,0.087251,-0.009484,0.044941,0.004072,-0.061112,0.008321,0.142571,0.075250,-0.986920
1760107871.258904,-0.024698,0.076457,-0.159724,0.983887,0.084393,-0.015522,0.049734,0.001977,-0.059297,0.002432,0.142560,0.073025,-0.987089
1760107871.260423,-0.023511,0.076205,-0.159163,0.984026,0.093553,-0.016155,0.066918,0.000019,-0.061031,0.000253,0.142491,0.070529,-0.987280
1760107871.294592,-0.022171,0.075833,-0.158579,0.984180,0.113509,-0.032920,0.062560,-0.000189,-0.058893,-0.006087,0.142234,0.067692,-0.987516
1760107871.295758,-0.020729,0.075432,-0.158024,0.984332,0.108851,-0.023238,0.065414,0.003699,-0.051027,-0.007506,0.141948,0.064649,-0.987761
1760107871.330995,-0.019364,0.075022,-0.157383,0.984494,0.096114,-0.026596,0.067794,0.000359,-0.049690,-0.006432,0.141622,0.061742,-0.987994
1760107871.331292,-0.018153,0.074559,-0.156734,0.984655,0.081532,-0.043180,0.067461,-0.005260,-0.048854,0.004530,0.141139,0.059121,-0.988223
1760107871.360885,-0.017055,0.073768,-0.156072,0.984840,0.075621,-0.078171,0.065451,-0.003072,-0.050391,0.005389,0.139975,0.056619,-0.988535
1760107871.392433,-0.016150,0.072766,-0.155491,0.985021,0.064055,-0.101141,0.059916,-0.000526,-0.048720,-0.002020,0.138330,0.054445,-0.988889
1760107871.394845,-0.015465,0.071703,-0.154958,0.985194,0.031525,-0.088382,0.048853,-0.001963,-0.042693,-0.008165,0.136489,0.052694,-0.989239
1760107871.428264,-0.015127,0.070615,-0.154425,0.985362,0.000606,-0.112512,0.052326,-0.006155,-0.036081,-0.004793,0.134490,0.051620,-0.989570
1760107871.430301,-0.015153,0.069514,-0.153823,0.985534,-0.035968,-0.112246,0.060016,-0.004771,-0.039606,-0.005415,0.132354,0.051254,-0.989877
1760107871.459462,-0.015369,0.068491,-0.153181,0.985702,-0.041228,-0.106878,0.049629,-0.003890,-0.047788,-0.004597,0.130315,0.051281,-0.990146
1760107871.489657,-0.015564,0.067501,-0.152753,0.985834,-0.033148,-0.096575,0.028001,-0.003417,-0.045506,-0.006680,0.128334,0.051309,-0.990403
1760107871.491484,-0.015710,0.066631,-0.152486,0.985932,-0.025728,-0.079340,0.019602,-0.004701,-0.038422,-0.009320,0.126597,0.051298,-0.990627
1760107871.521273,-0.015791,0.066027,-0.152251,0.986007,-0.024139,-0.040869,0.021099,-0.000950,-0.035835,-0.013623,0.125398,0.051246,-0.990782
1760107871.556244,-0.015737,0.065749,-0.152011,0.986064,-0.015675,-0.010997,0.014247,-0.004282,-0.039875,-0.008187,0.124880,0.051024,-0.990859
1760107871.556350,-0.015503,0.065627,-0.151899,0.986093,0.005462,-0.009028,0.001955,-0.006107,-0.033317,-0.004746,0.124719,0.050513,-0.990906
1760107871.583800,-0.015145,0.065541,-0.151871,0.986109,0.016038,0.008468,0.000066,-0.001092,-0.026341,-0.011349,0.124660,0.049776,-0.990950
1760107871.615123,-0.014702,0.065673,-0.151811,0.986116,0.012872,0.034537,0.010470,0.003503,-0.019141,-0.012678,0.125058,0.048936,-0.990942
1760107871.615366,-0.014289,0.066059,-0.151670,0.986118,0.001763,0.056412,0.020195,0.004661,-0.013563,-0.010498,0.125949,0.048219,-0.990864
1760107871.646258,-0.014026,0.066623,-0.151467,0.986115,-0.014143,0.063762,0.020331,0.001678,-0.013401,-0.007209,0.127148,0.047845,-0.990729
1760107871.650639,-0.013974,0.067167,-0.151351,0.986096,-0.029297,0.048067,-0.003102,-0.000602,-0.009482,-0.003653,0.128237,0.047891,-0.990587
1760107871.679471,-0.014199,0.067629,-0.151498,0.986039,-0.053142,0.041143,-0.027656,0.002619,-0.003094,-0.004680,0.129067,0.048492,-0.990449
1760107871.709268,-0.014749,0.068170,-0.151772,0.985952,-0.084779,0.050523,-0.037874,0.006360,-0.001502,-0.003382,0.129947,0.049775,-0.990271
1760107871.712041,-0.015518,0.068791,-0.152108,0.985845,-0.095725,0.048284,-0.045972,0.003301,-0.005469,0.001940,0.130914,0.051524,-0.990054
1760107871.744309,-0.016320,0.069232,-0.152576,0.985729,-0.084849,0.024148,-0.058675,0.002740,-0.006982,0.005910,0.131508,0.053300,-0.989881
1760107871.774482,-0.017094,0.069483,-0.153134,0.985612,-0.083367,0.009988,-0.063426,0.004696,-0.004052,0.000985,0.131731,0.054976,-0.989760
1760107871.774798,-0.017970,0.069766,-0.153660,0.985494,-0.100360,0.019383,-0.052530,0.006569,0.000093,-0.001704,0.131985,0.056858,-0.989620
1760107871.806093,-0.018981,0.070128,-0.154017,0.985394,-0.114761,0.015964,-0.036307,0.001315,0.000074,0.000674,0.132360,0.059010,-0.989444
1760107871.835210,-0.020091,0.070447,-0.154213,0.985318,-0.120061,-0.004490,-0.021119,-0.002619,-0.001280,0.005201,0.132629,0.061319,-0.989267
1760107871.835468,-0.021190,0.070542,-0.154314,0.985273,-0.115439,-0.005342,-0.015925,0.005973,-0.003601,-0.000940,0.132466,0.063527,-0.989150
1760107871.868360,-0.022273,0.070720,-0.154307,0.985237,-0.114715,0.005904,-0.000116,0.008449,-0.007710,-0.003129,0.132477,0.065713,-0.989005
1760107871.870313,-0.023311,0.071052,-0.154237,0.985200,-0.104322,0.012951,-0.009495,0.005038,-0.010142,-0.002504,0.132809,0.067850,-0.988816
1760107871.899103,-0.024228,0.071274,-0.154357,0.985143,-0.093212,0.004726,-0.025041,0.003319,-0.006367,0.002197,0.132952,0.069739,-0.988666
1760107871.932534,-0.025069,0.071353,-0.154566,0.985084,-0.081846,-0.014897,-0.029450,0.003662,-0.005786,0.003342,0.132827,0.071448,-0.988561
1760107871.932834,-0.025760,0.071308,-0.154776,0.985036,-0.064326,-0.021873,-0.027952,0.004112,-0.006930,0.003710,0.132508,0.072823,-0.988503
1760107871.962067,-0.026258,0.071147,-0.155013,0.984997,-0.039655,-0.026899,-0.031957,0.003384,-0.008617,0.000978,0.132018,0.073786,-0.988497
1760107871.991345,-0.026564,0.070889,-0.155300,0.984963,-0.023844,-0.040688,-0.032761,0.000504,-0.003472,0.003018,0.131395,0.074348,-0.988538
1760107871.993324,-0.026825,0.070495,-0.155580,0.984939,-0.024936,-0.045578,-0.030191,0.001232,0.002929,0.001175,0.130520,0.074777,-0.988622
1760107872.022306,-0.027184,0.070121,-0.155760,0.984928,-0.040623,-0.044929,-0.013258,0.001109,0.010133,-0.000655,0.129659,0.075392,-0.988688
1760107872.029379,-0.027675,0.069808,-0.155741,0.984939,-0.055867,-0.039655,0.002610,0.000876,0.005340,-0.002420,0.128893,0.076259,-0.988722
1760107872.059404,-0.028198,0.069546,-0.155651,0.984957,-0.050611,-0.035569,0.001451,-0.002005,0.001818,-0.000865,0.128221,0.077198,-0.988737
1760107872.091025,-0.028718,0.069353,-0.155578,0.984967,-0.047358,-0.025005,-0.002285,-0.002002,0.001485,-0.003266,0.127685,0.078152,-0.988731
1760107872.093072,-0.029255,0.069200,-0.155616,0.984956,-0.046275,-0.019505,-0.008736,-0.004086,-0.000794,-0.005639,0.127214,0.079166,-0.988711
1760107872.122460,-0.029740,0.069168,-0.155697,0.984931,-0.038591,-0.006894,-0.011702,-0.002140,-0.002040,-0.006835,0.126992,0.080122,-0.988663
1760107872.129402,-0.030079,0.069233,-0.155785,0.984903,-0.024441,0.010105,-0.008834,-0.003447,-0.004645,-0.006654,0.127004,0.080822,-0.988604
1760107872.159340,-0.030201,0.069426,-0.155847,0.984876,-0.009549,0.024655,-0.008093,-0.006234,-0.003151,-0.002606,0.127338,0.081127,-0.988536
1760107872.191067,-0.030192,0.069642,-0.155957,0.984843,-0.004232,0.023191,-0.010747,-0.008977,-0.000954,0.000011,0.127757,0.081191,-0.988477
1760107872.191326,-0.030208,0.069849,-0.156056,0.984812,-0.010704,0.019533,-0.013377,-0.006463,-0.000957,0.001573,0.128148,0.081299,-0.988417
1760107872.220688,-0.030286,0.069968,-0.156179,0.984782,-0.012688,0.014366,-0.018304,-0.001862,-0.002916,-0.001359,0.128347,0.081505,-0.988374
1760107872.250083,-0.030394,0.070097,-0.156413,0.984732,-0.012113,0.017794,-0.026127,0.000331,-0.003730,-0.000561,0.128546,0.081787,-0.988325
1760107872.253788,-0.030515,0.070157,-0.156714,0.984676,-0.006918,0.006100,-0.031897,0.000235,-0.003718,0.002915,0.128600,0.082084,-0.988294
1760107872.285510,-0.030596,0.070149,-0.157093,0.984614,-0.005567,-0.003326,-0.039397,0.002078,-0.001968,0.006045,0.128526,0.082290,-0.988286
1760107872.289256,-0.030749,0.070000,-0.157494,0.984556,-0.016098,-0.016931,-0.040712,0.002462,0.003105,0.000685,0.128152,0.082597,-0.988309
1760107872.318786,-0.030979,0.069838,-0.157814,0.984509,-0.029002,-0.020557,-0.028848,0.004171,0.002892,0.002869,0.127735,0.083041,-0.988326
1760107872.353979,-0.031328,0.069655,-0.158001,0.984481,-0.036003,-0.024455,-0.015769,0.003579,-0.000424,0.002145,0.127249,0.083694,-0.988333
1760107872.354532,-0.031669,0.069361,-0.158116,0.984472,-0.022289,-0.050483,-0.020188,0.001079,-0.002618,0.002876,0.126554,0.084290,-0.988372
1760107872.381606,-0.031986,0.068920,-0.158220,0.984476,-0.022855,-0.044549,-0.012755,0.010850,0.003187,-0.009556,0.125578,0.084788,-0.988454
1760107872.425681,-0.032460,0.069033,-0.158210,0.984454,-0.051634,0.003156,-0.000433,0.018977,0.007618,-0.012070,0.125648,0.085753,-0.988362
1760107872.425962,-0.032933,0.069146,-0.158201,0.984432,-0.080413,0.050862,0.011890,0.027103,0.012049,-0.014584,0.125719,0.086719,-0.988268
1760107872.427711,-0.033671,0.069953,-0.158010,0.984381,-0.095674,0.072209,0.018754,0.015042,0.005824,0.004708,0.127080,0.088397,-0.987946
1760107872.459780,-0.034423,0.070619,-0.157850,0.984333,-0.073204,0.027625,0.001794,0.002192,-0.004358,0.017857,0.128158,0.090061,-0.987656
1760107872.491792,-0.034999,0.070833,-0.157897,0.984290,-0.042116,-0.032644,-0.019886,-0.004334,-0.005850,0.020576,0.128389,0.091267,-0.987515
1760107872.492045,-0.035435,0.070505,-0.158094,0.984266,-0.025943,-0.065860,-0.020696,-0.004499,-0.000327,0.011552,0.127587,0.092047,-0.987547
1760107872.540774,-0.035714,0.069817,-0.158082,0.984307,-0.020319,-0.076254,-0.003820,-0.005671,0.002223,0.007586,0.126151,0.092381,-0.987700
1760107872.541115,-0.035994,0.069129,-0.158069,0.984347,-0.014694,-0.086647,0.013057,-0.006843,0.004773,0.003617,0.124715,0.092715,-0.987851
1760107872.570421,-0.036213,0.068337,-0.157801,0.984438,-0.019121,-0.085355,0.032451,-0.009001,0.004628,-0.002000,0.123117,0.092867,-0.988037
1760107872.571820,-0.036535,0.067628,-0.157386,0.984541,-0.027601,-0.067864,0.042930,-0.011236,0.000338,-0.005335,0.121665,0.093227,-0.988183
1760107872.601154,-0.036884,0.066951,-0.156963,0.984642,-0.025219,-0.071223,0.031317,-0.014846,-0.007239,-0.005430,0.120267,0.093652,-0.988314
1760107872.608930,-0.037206,0.066270,-0.156671,0.984722,-0.010685,-0.067843,0.016102,-0.010664,-0.010007,-0.010549,0.118857,0.094040,-0.988448
1760107872.647162,-0.037407,0.065785,-0.156657,0.984750,-0.010202,-0.033396,-0.013108,-0.006304,-0.012285,-0.016014,0.117843,0.094285,-0.988546
1760107872.648051,-0.037613,0.065564,-0.156865,0.984723,-0.018944,-0.004142,-0.033200,-0.008354,-0.009258,-0.015062,0.117324,0.094645,-0.988573
1760107872.678151,-0.037858,0.065532,-0.157303,0.984646,-0.027923,0.005342,-0.054332,-0.011808,-0.008375,-0.011256,0.117141,0.095171,-0.988545
1760107872.707593,-0.038093,0.065487,-0.157923,0.984541,-0.027055,0.001075,-0.071184,-0.011823,-0.004072,-0.005450,0.116918,0.095691,-0.988521
1760107872.711459,-0.038325,0.065523,-0.158621,0.984417,-0.033838,0.013943,-0.069429,-0.010234,0.001631,-0.004004,0.116845,0.096242,-0.988476
1760107872.743055,-0.038601,0.065628,-0.159262,0.984296,-0.037632,0.017988,-0.058929,-0.010984,0.006526,-0.000552,0.116899,0.096895,-0.988406
1760107872.772225,-0.038924,0.065824,-0.159777,0.984187,-0.043348,0.026525,-0.042997,-0.010225,0.006318,-0.001678,0.117128,0.097651,-0.988304
1760107872.772560,-0.039290,0.066084,-0.160106,0.984101,-0.046819,0.038623,-0.024839,-0.006512,0.005714,-0.003061,0.117486,0.098492,-0.988178
1760107872.803559,-0.039691,0.066498,-0.160326,0.984022,-0.041530,0.045923,-0.024103,-0.004381,0.002580,-0.002855,0.118143,0.099435,-0.988005
1760107872.808333,-0.040040,0.067002,-0.160553,0.983936,-0.040741,0.058234,-0.023347,-0.000925,0.001092,-0.002289,0.118995,0.100308,-0.987815
1760107872.838697,-0.040395,0.067569,-0.160847,0.983835,-0.036938,0.057424,-0.028611,-0.002303,0.002133,0.000472,0.119958,0.101221,-0.987605
1760107872.870759,-0.040699,0.068076,-0.161120,0.983743,-0.033214,0.048666,-0.033250,-0.003498,0.005136,0.001758,0.120823,0.102011,-0.987419
1760107872.871106,-0.040982,0.068460,-0.161407,0.983657,-0.034262,0.027739,-0.020943,-0.003576,0.009936,0.004764,0.121452,0.102724,-0.987268
1760107872.921405,-0.041322,0.068783,-0.161413,0.983619,-0.034407,0.030359,-0.005946,-0.000747,0.007972,0.000957,0.121974,0.103495,-0.987123
1760107872.923186,-0.041662,0.069107,-0.161419,0.983581,-0.034552,0.032980,0.009050,0.002082,0.006008,-0.002851,0.122495,0.104267,-0.986977
1760107872.927415,-0.041960,0.069566,-0.161336,0.983550,-0.033213,0.045618,0.005638,0.003594,0.000912,-0.003526,0.123305,0.104986,-0.986800
1760107872.956311,-0.042260,0.070051,-0.161343,0.983502,-0.030002,0.043636,-0.008881,0.001241,-0.000157,-0.000294,0.124153,0.105730,-0.986614
1760107872.986083,-0.042520,0.070455,-0.161482,0.983439,-0.022028,0.033191,-0.021294,-0.000420,-0.001112,0.001163,0.124844,0.106386,-0.986456
1760107872.987324,-0.042714,0.070758,-0.161777,0.983360,-0.013638,0.023045,-0.029839,0.000235,0.000417,-0.000463,0.125340,0.106901,-0.986338
1760107873.017285,-0.042801,0.070985,-0.162047,0.983296,-0.009581,0.022104,-0.026683,0.004605,0.002383,-0.000704,0.125728,0.107178,-0.986258
1760107873.047352,-0.042827,0.071264,-0.162302,0.983232,-0.005705,0.029880,-0.019989,0.004404,0.003493,-0.000265,0.126237,0.107350,-0.986175
1760107873.048478,-0.042822,0.071509,-0.162522,0.983178,-0.000521,0.022721,-0.019337,0.001794,0.001895,0.000716,0.126692,0.107447,-0.986106
1760107873.093267,-0.042783,0.071721,-0.162741,0.983128,-0.000894,0.027428,-0.024667,0.003754,0.004208,-0.002065,0.127096,0.107466,-0.986051
1760107873.095191,-0.042783,0.071978,-0.162974,0.983071,-0.004422,0.012207,-0.013769,0.000316,0.006320,0.006336,0.127573,0.107578,-0.985978
1760107873.127509,-0.042831,0.072031,-0.163064,0.983050,0.000294,-0.015884,-0.006737,0.000201,0.006457,0.011041,0.127651,0.107702,-0.985954
1760107873.128958,-0.042840,0.071743,-0.163052,0.983073,0.008622,-0.028013,0.006953,0.002032,0.005215,0.003734,0.127087,0.107625,-0.986035
1760107873.159375,-0.042787,0.071472,-0.162914,0.983118,0.008801,-0.023831,0.023082,0.005641,0.008534,-0.004843,0.126589,0.107417,-0.986122
1760107873.220498,-0.042839,0.071539,-0.162590,0.983164,0.002917,-0.021712,0.022666,0.002739,0.006146,-0.002116,0.126739,0.107498,-0.986094
1760107873.220832,-0.042891,0.071607,-0.162266,0.983210,-0.002966,-0.019594,0.022250,-0.000164,0.003759,0.000610,0.126890,0.107580,-0.986066
1760107873.221071,-0.042943,0.071674,-0.161942,0.983257,-0.008850,-0.017475,0.021834,-0.003066,0.001371,0.003337,0.127040,0.107662,-0.986037
1760107873.227597,-0.043095,0.071533,-0.161809,0.983282,-0.009997,-0.022336,0.004193,-0.000079,0.001377,0.001548,0.126728,0.107899,-0.986052
1760107873.256892,-0.043307,0.071397,-0.161760,0.983291,-0.017002,-0.013873,0.004860,-0.000094,0.000813,0.002001,0.126398,0.108265,-0.986054
1760107873.285157,-0.043521,0.071318,-0.161721,0.983294,-0.013925,-0.014339,0.003003,-0.003235,-0.001511,0.004861,0.126176,0.108655,-0.986039
1760107873.286775,-0.043700,0.071114,-0.161719,0.983301,-0.010860,-0.024618,-0.000056,-0.001897,-0.000924,0.002768,0.125719,0.108941,-0.986066
1760107873.318021,-0.043875,0.070899,-0.161719,0.983308,-0.013561,-0.024515,-0.003388,-0.002235,-0.000718,-0.000053,0.125240,0.109217,-0.986097
1760107873.347573,-0.044048,0.070739,-0.161722,0.983312,-0.019742,-0.011835,-0.000080,-0.000254,-0.000029,-0.005153,0.124870,0.109505,-0.986112
1760107873.350302,-0.044288,0.070744,-0.161685,0.983307,-0.025238,0.002929,0.000029,-0.002244,-0.003941,-0.006349,0.124804,0.109974,-0.986068
1760107873.378964,-0.044560,0.070835,-0.161733,0.983280,-0.022521,0.008443,-0.010016,-0.007968,-0.007773,-0.003253,0.124888,0.110543,-0.985993
1760107873.409197,-0.044703,0.070993,-0.161906,0.983233,-0.013448,0.022087,-0.025617,-0.002218,-0.007438,-0.009852,0.125130,0.110895,-0.985923
1760107873.411238,-0.044778,0.071263,-0.162167,0.983168,-0.013652,0.036897,-0.017250,-0.004151,-0.002575,-0.009660,0.125603,0.111161,-0.985833
1760107873.439856,-0.044872,0.071720,-0.162292,0.983109,-0.022592,0.049069,-0.010762,-0.004771,-0.001389,-0.005212,0.126453,0.111507,-0.985685
1760107873.470627,-0.044976,0.072111,-0.162459,0.983048,-0.023824,0.037944,-0.018912,-0.002438,-0.000747,-0.000650,0.127163,0.111858,-0.985554
1760107873.471862,-0.045184,0.072529,-0.162621,0.982981,-0.032020,0.042599,-0.018378,-0.002843,-0.004593,0.001078,0.127893,0.112419,-0.985396
1760107873.522760,-0.045407,0.072930,-0.162791,0.982913,-0.027930,0.039183,-0.015479,-0.002672,-0.005141,0.002203,0.128583,0.113007,-0.985239
1760107873.523054,-0.045630,0.073331,-0.162961,0.982845,-0.023840,0.035767,-0.012579,-0.002501,-0.005689,0.003327,0.129273,0.113595,-0.985081
1760107873.551011,-0.045849,0.073691,-0.163122,0.982781,-0.026238,0.036447,-0.018113,0.003259,-0.007638,0.000428,0.129887,0.114161,-0.984935
1760107873.553049,-0.046050,0.073983,-0.163301,0.982720,-0.028750,0.033166,-0.022598,0.001970,-0.007892,-0.001967,0.130369,0.114671,-0.984812
1760107873.585712,-0.046249,0.074361,-0.163537,0.982643,-0.031559,0.033875,-0.028597,0.001208,-0.003551,-0.001106,0.131013,0.115214,-0.984663
1760107873.587073,-0.046506,0.074654,-0.163844,0.982558,-0.038708,0.023836,-0.030824,0.000930,-0.000476,0.000089,0.131465,0.115852,-0.984528
1760107873.616932,-0.046873,0.074918,-0.164144,0.982470,-0.048412,0.015351,-0.026663,0.002666,0.003944,-0.001784,0.131822,0.116698,-0.984380
1760107873.648044,-0.047353,0.075194,-0.164289,0.982401,-0.065516,0.024609,-0.014837,0.003715,0.003155,-0.003678,0.132182,0.117746,-0.984207
1760107873.650028,-0.047906,0.075439,-0.164366,0.982343,-0.058473,0.009917,-0.008300,0.003878,0.000294,0.001729,0.132465,0.118919,-0.984028
1760107873.689337,-0.048469,0.075565,-0.164437,0.982294,-0.053155,0.003407,-0.013634,0.003885,0.000163,0.001977,0.132515,0.120073,-0.983881
1760107873.691488,-0.048961,0.075684,-0.164513,0.982248,-0.052192,0.001478,-0.009646,0.004520,0.006234,-0.001573,0.132571,0.121086,-0.983750
1760107873.721126,-0.049479,0.075766,-0.164476,0.982222,-0.050754,-0.003291,0.008454,0.003373,0.007570,0.001410,0.132561,0.122121,-0.983623
1760107873.727539,-0.049967,0.075828,-0.164344,0.982214,-0.042287,-0.006286,0.013280,0.003095,0.001383,0.002475,0.132535,0.123080,-0.983507
1760107873.759676,-0.050308,0.075851,-0.164164,0.982225,-0.028984,-0.009325,0.014244,0.004540,-0.000031,0.003472,0.132488,0.123731,-0.983432
1760107873.821012,-0.050414,0.075756,-0.164082,0.982241,-0.016523,-0.011052,0.007448,0.004160,0.000087,0.002030,0.132277,0.123897,-0.983439
1760107873.821515,-0.050520,0.075661,-0.164000,0.982256,-0.004063,-0.012779,0.000653,0.003780,0.000205,0.000587,0.132066,0.124063,-0.983446
1760107873.822044,-0.050626,0.075566,-0.163918,0.982272,0.008397,-0.014506,-0.006143,0.003400,0.000323,-0.000856,0.131856,0.124230,-0.983454
1760107873.827551,-0.050600,0.075507,-0.163974,0.982268,0.000608,-0.000477,-0.002808,0.002680,0.004826,0.000138,0.131742,0.124168,-0.983477
1760107873.856776,-0.050612,0.075527,-0.163993,0.982263,-0.000879,-0.005405,-0.005404,-0.000913,0.002558,0.004524,0.131775,0.124200,-0.983468
1760107873.887410,-0.050653,0.075366,-0.164082,0.982258,0.001282,-0.027748,-0.013662,0.000229,0.002820,0.004100,0.131435,0.124241,-0.983508
1760107873.887652,-0.050641,0.075174,-0.164101,0.982271,0.003905,-0.016025,0.006743,0.002016,-0.000636,-0.000990,0.131062,0.124159,-0.983569
1760107873.918574,-0.050503,0.075154,-0.164074,0.982284,0.025268,0.013062,-0.000878,0.005174,-0.007483,-0.008544,0.131073,0.123879,-0.983603
1760107873.949736,-0.050112,0.075261,-0.164241,0.982268,0.048807,0.015706,-0.023883,0.000812,-0.002475,-0.003292,0.131391,0.123169,-0.983649
1760107873.950113,-0.049696,0.075284,-0.164526,0.982239,0.039300,0.011701,-0.023933,-0.003131,0.006110,-0.000104,0.131542,0.122399,-0.983725
1760107874.014332,-0.049460,0.075150,-0.164852,0.982207,0.022215,-0.000100,-0.020366,-0.002457,0.012089,0.001460,0.131319,0.121937,-0.983812
1760107874.014583,-0.049363,0.075038,-0.165012,0.982193,0.006454,-0.004347,-0.003652,-0.002376,0.012614,0.001976,0.131113,0.121733,-0.983865
1760107874.042442,-0.049382,0.074946,-0.164971,0.982206,-0.001611,-0.008610,0.013901,-0.002647,0.008231,0.004172,0.130932,0.121735,-0.983889
1760107874.073272,-0.049435,0.074789,-0.164790,0.982246,0.001257,-0.015960,0.021168,-0.003402,0.002963,0.002867,0.130629,0.121764,-0.983926
1760107874.074545,-0.049497,0.074580,-0.164579,0.982294,0.004563,-0.019511,0.020147,-0.001977,-0.000260,-0.000292,0.130228,0.121789,-0.983976
1760107874.104417,-0.049537,0.074416,-0.164404,0.982334,0.006319,-0.016910,0.015211,0.000306,-0.002758,-0.000520,0.129915,0.121793,-0.984017
1760107874.107259,-0.049556,0.074231,-0.164306,0.982363,0.004232,-0.015355,0.005940,-0.001173,-0.003492,-0.002825,0.129559,0.121758,-0.984068
1760107874.136583,-0.049538,0.074002,-0.164287,0.982385,0.008219,-0.017723,-0.003386,0.000670,-0.002505,-0.007173,0.129120,0.121646,-0.984139
1760107874.166724,-0.049476,0.073858,-0.164311,0.982395,0.008338,-0.006511,0.002408,0.000676,-0.000245,-0.006725,0.128855,0.121482,-0.984194
1760107874.168843,-0.049356,0.073867,-0.164214,0.982416,0.011440,0.008328,0.018031,-0.002147,0.002185,-0.005941,0.128926,0.121237,-0.984215
1760107874.204227,-0.049126,0.073928,-0.163977,0.982463,0.025457,0.007801,0.030190,-0.005124,0.000586,-0.001755,0.129152,0.120774,-0.984243
1760107874.205573,-0.048756,0.073927,-0.163656,0.982535,0.040406,0.004120,0.038306,-0.002522,0.000288,-0.000863,0.129313,0.120005,-0.984315
1760107874.239318,-0.048250,0.073928,-0.163291,0.982620,0.052145,0.011952,0.041784,-0.000949,-0.001065,-0.001386,0.129529,0.118967,-0.984413
1760107874.244201,-0.047673,0.073985,-0.162954,0.982700,0.058659,0.014828,0.037248,-0.001426,-0.001316,0.000281,0.129873,0.117809,-0.984507
1760107874.272166,-0.047061,0.074031,-0.162679,0.982772,0.056831,0.014216,0.029354,-0.000699,-0.000645,0.000139,0.130200,0.116586,-0.984609
1760107874.316922,-0.046596,0.074092,-0.162580,0.982806,0.045771,0.014569,0.014741,0.000388,-0.001203,-0.000211,0.130484,0.115680,-0.984679
1760107874.317208,-0.046130,0.074152,-0.162481,0.982840,0.034710,0.014923,0.000127,0.001476,-0.001761,-0.000562,0.130768,0.114774,-0.984747
1760107874.346681,-0.045826,0.074238,-0.162548,0.982836,0.021066,0.016358,-0.012649,0.001403,-0.001085,-0.001590,0.131030,0.114213,-0.984777
1760107874.349014,-0.045666,0.074353,-0.162731,0.982805,0.010572,0.014606,-0.020075,0.000684,-0.000529,-0.000775,0.131287,0.113961,-0.984772
1760107874.377386,-0.045610,0.074491,-0.162987,0.982754,-0.001729,0.016896,-0.025676,0.000879,0.000310,-0.002476,0.131544,0.113929,-0.984742
1760107874.384223,-0.045655,0.074645,-0.163265,0.982694,-0.009993,0.015772,-0.025766,0.000877,0.001498,-0.001201,0.131799,0.114104,-0.984688
1760107874.414410,-0.045754,0.074801,-0.163534,0.982633,-0.013621,0.014341,-0.023545,0.000484,0.001082,-0.000232,0.132040,0.114384,-0.984623
1760107874.443499,-0.045872,0.074929,-0.163758,0.982581,-0.010844,0.009126,-0.020101,0.000234,0.000524,-0.000112,0.132224,0.114686,-0.984563
1760107874.444668,-0.045947,0.075018,-0.163946,0.982539,-0.005345,0.002957,-0.018333,0.000585,0.000096,0.000026,0.132352,0.114886,-0.984522
1760107874.475637,-0.045989,0.075035,-0.164095,0.982511,-0.000376,-0.000056,-0.012059,0.001621,0.000729,-0.000178,0.132352,0.114995,-0.984510
1760107874.505567,-0.045964,0.074991,-0.164210,0.982496,0.007137,-0.005479,-0.008766,0.001147,0.000229,0.000701,0.132261,0.114948,-0.984527
1760107874.508287,-0.045865,0.074930,-0.164282,0.982493,0.013866,-0.006120,-0.002447,0.001786,0.000830,0.000854,0.132167,0.114744,-0.984564
1760107874.537361,-0.045702,0.074847,-0.164296,0.982505,0.020909,-0.007697,0.001247,0.001511,0.001314,0.001554,0.132057,0.114399,-0.984619
1760107874.543791,-0.045487,0.074767,-0.164284,0.982523,0.023468,-0.007423,0.003574,0.002852,0.002573,-0.001569,0.131975,0.113951,-0.984682
1760107874.574063,-0.045263,0.074719,-0.164228,0.982547,0.021923,-0.006372,0.010046,0.001605,0.002668,0.000669,0.131963,0.113488,-0.984737
1760107874.613764,-0.045057,0.074640,-0.164148,0.982575,0.021522,-0.011285,0.006913,-0.001137,0.000013,0.002643,0.131887,0.113047,-0.984797
1760107874.614047,-0.044865,0.074469,-0.164086,0.982607,0.019842,-0.018463,0.004694,-0.000375,0.000330,0.000908,0.131624,0.112608,-0.984883
1760107874.649348,-0.044718,0.074287,-0.164029,0.982638,0.016224,-0.012593,0.006391,0.002647,0.001124,-0.004665,0.131324,0.112253,-0.984964
1760107874.650740,-0.044609,0.074237,-0.163955,0.982658,0.011015,0.003565,0.008931,0.002995,0.000724,-0.005628,0.131272,0.112014,-0.984998
1760107874.679946,-0.044530,0.074345,-0.163844,0.982672,0.002978,0.013883,0.015760,0.000157,0.001150,-0.003279,0.131522,0.111879,-0.984980
1760107874.692502,-0.044505,0.074479,-0.163680,0.982691,0.000775,0.008328,0.014646,-0.001254,-0.000923,0.000147,0.131811,0.111851,-0.984944
1760107874.723492,-0.044491,0.074525,-0.163572,0.982706,0.000290,0.000151,0.006390,-0.000825,-0.001127,0.000069,0.131918,0.111824,-0.984933
1760107874.723756,-0.044505,0.074532,-0.163518,0.982714,-0.004413,-0.001473,0.000932,0.001394,-0.000362,-0.000438,0.131932,0.111847,-0.984929
1760107874.760562,-0.044573,0.074540,-0.163518,0.982710,-0.007268,-0.001267,-0.002539,0.000630,-0.001314,0.000951,0.131924,0.111982,-0.984914
1760107874.761932,-0.044658,0.074479,-0.163553,0.982705,-0.005417,-0.008385,-0.004807,-0.001038,-0.002098,0.002164,0.131773,0.112134,-0.984917
1760107874.792233,-0.044720,0.074363,-0.163617,0.982700,-0.002627,-0.013925,-0.008435,-0.001033,-0.001192,0.000577,0.131520,0.112228,-0.984940
1760107874.821255,-0.044772,0.074222,-0.163695,0.982696,-0.002403,-0.010787,-0.005419,0.000198,0.000754,-0.001170,0.131217,0.112294,-0.984973
1760107874.823199,-0.044824,0.074101,-0.163708,0.982700,-0.003505,-0.014312,-0.000225,-0.000837,0.002594,-0.000434,0.130962,0.112359,-0.985000
1760107874.854404,-0.044902,0.073968,-0.163668,0.982713,-0.004588,-0.016559,0.004390,-0.002021,0.001373,-0.000090,0.130681,0.112464,-0.985025
1760107874.912125,-0.044888,0.073909,-0.163602,0.982729,-0.001059,-0.010822,0.004988,-0.001583,0.000859,0.000109,0.130577,0.112408,-0.985045
1760107874.912451,-0.044873,0.073849,-0.163535,0.982746,0.002470,-0.005086,0.005586,-0.001146,0.000345,0.000308,0.130473,0.112352,-0.985065
1760107874.912711,-0.044859,0.073789,-0.163469,0.982762,0.006000,0.000650,0.006184,-0.000708,-0.000169,0.000506,0.130369,0.112296,-0.985086
1760107874.941005,-0.044768,0.073714,-0.163434,0.982777,0.015698,-0.004000,0.003591,-0.000990,-0.000247,0.000516,0.130255,0.112088,-0.985124
1760107874.943022,-0.044586,0.073638,-0.163398,0.982797,0.018544,-0.002507,0.006417,-0.000117,0.000548,-0.000486,0.130171,0.111702,-0.985179
1760107874.971355,-0.044389,0.073598,-0.163319,0.982823,0.021561,0.000737,0.009363,-0.000543,0.000418,-0.000309,0.130168,0.111292,-0.985226
1760107875.001044,-0.044160,0.073564,-0.163242,0.982848,0.022377,0.000109,0.010005,-0.000976,-0.000344,-0.000228,0.130186,0.110823,-0.985276
1760107875.001373,-0.043930,0.073538,-0.163155,0.982875,0.019816,0.000799,0.009802,-0.000085,-0.001062,-0.000754,0.130223,0.110351,-0.985325
1760107875.029828,-0.043727,0.073532,-0.163102,0.982893,0.017459,0.002295,0.005716,0.000576,-0.003039,-0.002380,0.130283,0.109944,-0.985362
1760107875.063211,-0.043567,0.073549,-0.163104,0.982899,0.013456,0.004750,-0.001978,0.000943,-0.003586,-0.002768,0.130370,0.109636,-0.985385
1760107875.064994,-0.043456,0.073593,-0.163170,0.982889,0.006557,0.006789,-0.007114,0.001236,-0.003097,-0.002213,0.130486,0.109441,-0.985391
1760107875.095579,-0.043409,0.073618,-0.163263,0.982874,0.001605,0.002825,-0.008761,0.001207,-0.002426,-0.000118,0.130540,0.109370,-0.985392
1760107875.105087,-0.043393,0.073634,-0.163368,0.982856,-0.001256,0.000398,-0.007313,0.000381,-0.001452,0.000313,0.130566,0.109356,-0.985390
1760107875.135126,-0.043388,0.073628,-0.163447,0.982844,-0.004036,-0.001807,-0.006817,0.000608,-0.001204,-0.000141,0.130545,0.109356,-0.985393
1760107875.165358,-0.043423,0.073600,-0.163500,0.982835,-0.004901,-0.003751,-0.004206,0.000217,-0.000925,-0.000434,0.130474,0.109422,-0.985395
1760107875.165672,-0.043478,0.073570,-0.163490,0.982837,-0.005979,-0.004422,0.001428,-0.000024,-0.001171,-0.000939,0.130399,0.109519,-0.985394
1760107875.213257,-0.043477,0.073509,-0.163461,0.982846,-0.000653,-0.003940,0.001473,0.000307,-0.000866,-0.000553,0.130282,0.109494,-0.985412
1760107875.213561,-0.043477,0.073447,-0.163431,0.982856,0.004674,-0.003458,0.001518,0.000637,-0.000561,-0.000168,0.130165,0.109469,-0.985431
1760107875.242281,-0.043409,0.073387,-0.163412,0.982866,0.007108,-0.003237,0.001539,0.000466,0.000083,-0.000447,0.130073,0.109316,-0.985460
1760107875.244360,-0.043303,0.073350,-0.163389,0.982878,0.011334,-0.003384,0.002802,0.000160,0.000450,0.000912,0.130037,0.109093,-0.985489
1760107875.273519,-0.043145,0.073240,-0.163397,0.982892,0.016507,-0.009299,-0.000415,0.000363,0.000506,-0.000702,0.129874,0.108749,-0.985549
1760107875.304330,-0.042991,0.073126,-0.163428,0.982902,0.013128,-0.006897,0.001578,0.000996,0.002341,-0.001061,0.129700,0.108413,-0.985609
1760107875.320589,-0.042907,0.072998,-0.163389,0.982921,0.005404,-0.010924,0.008681,-0.001042,0.002353,0.000759,0.129482,0.108202,-0.985661
1760107875.320881,-0.042878,0.072814,-0.163316,0.982948,0.002646,-0.026562,0.007333,-0.003562,0.001293,0.002158,0.129139,0.108077,-0.985719
1760107875.350588,-0.042921,0.072505,-0.163222,0.982985,-0.004713,-0.029204,0.010942,-0.001031,0.000396,-0.002771,0.128532,0.108050,-0.985802
1760107875.379865,-0.043028,0.072351,-0.163066,0.983017,-0.012010,-0.009858,0.015552,0.001871,-0.000190,-0.008948,0.128211,0.108190,-0.985828
1760107875.381863,-0.043182,0.072411,-0.162862,0.983040,-0.020678,0.011877,0.020777,0.001176,-0.000994,-0.007775,0.128301,0.108485,-0.985784
1760107875.411135,-0.043398,0.072623,-0.162665,0.983048,-0.027058,0.020086,0.014338,-0.001119,-0.003510,-0.003201,0.128665,0.108950,-0.985685
1760107875.441679,-0.043643,0.072787,-0.162576,0.983039,-0.025874,0.009570,0.000413,-0.001341,-0.003705,-0.000683,0.128915,0.109472,-0.985595
1760107875.443883,-0.043898,0.072881,-0.162641,0.983010,-0.026038,0.002680,-0.012792,-0.000863,-0.000762,-0.000390,0.129007,0.110012,-0.985523
1760107875.472572,-0.044159,0.072944,-0.162775,0.982972,-0.029005,0.002978,-0.015439,-0.000408,0.001281,-0.000258,0.129028,0.110561,-0.985458
1760107875.515341,-0.044365,0.072970,-0.162891,0.982941,-0.020291,-0.000651,-0.014047,-0.001391,0.001199,0.000641,0.128998,0.110989,-0.985414
1760107875.515610,-0.044571,0.072997,-0.163008,0.982911,-0.011577,-0.004280,-0.012654,-0.002375,0.001117,0.001541,0.128968,0.111417,-0.985370
1760107875.521244,-0.044679,0.072958,-0.163133,0.982888,-0.005896,-0.006499,-0.010171,-0.002931,0.003148,-0.000126,0.128842,0.111632,-0.985362
1760107875.551296,-0.044768,0.072943,-0.163185,0.982876,-0.008001,-0.003518,-0.001402,-0.001820,0.004000,0.001293,0.128777,0.111809,-0.985350
1760107875.581178,-0.044873,0.072929,-0.163148,0.982879,-0.010361,0.000717,0.002903,-0.003866,0.002790,0.000050,0.128719,0.112006,-0.985336
1760107875.581480,-0.044952,0.072893,-0.163086,0.982888,-0.002227,-0.002095,0.003324,-0.000556,0.000447,-0.004844,0.128629,0.112142,-0.985332
1760107875.610532,-0.044980,0.072918,-0.163081,0.982886,0.000569,0.007522,0.002063,0.000224,0.000045,-0.005185,0.128669,0.112203,-0.985320
1760107875.650655,-0.045005,0.073040,-0.163094,0.982873,0.001019,0.007221,-0.002218,-0.001211,-0.001091,-0.001964,0.128898,0.112293,-0.985279
1760107875.650970,-0.045030,0.073162,-0.163107,0.982861,0.001470,0.006920,-0.006500,-0.002647,-0.002228,0.001257,0.129128,0.112383,-0.985239
1760107875.679867,-0.045033,0.073216,-0.163189,0.982843,0.002204,0.004972,-0.008208,-0.000709,-0.001534,0.000254,0.129221,0.112417,-0.985223
1760107875.683785,-0.044987,0.073298,-0.163284,0.982824,0.004131,0.009318,-0.008183,0.000205,-0.000842,0.000199,0.129387,0.112365,-0.985207
1760107875.713450,-0.044926,0.073406,-0.163395,0.982800,0.005831,0.013398,-0.008938,0.000089,-0.000367,0.000087,0.129606,0.112294,-0.985186
1760107875.742986,-0.044857,0.073506,-0.163480,0.982781,0.005351,0.012298,-0.007732,-0.000144,-0.000511,0.000422,0.129813,0.112202,-0.985170
1760107875.745075,-0.044792,0.073614,-0.163565,0.982762,0.004647,0.010337,-0.007208,0.001823,-0.001264,0.000920,0.130037,0.112120,-0.985149
1760107875.773478,-0.044746,0.073682,-0.163669,0.982742,0.000976,0.008960,-0.009055,0.003045,-0.000888,0.000366,0.130174,0.112067,-0.985137
1760107875.810271,-0.044769,0.073761,-0.163786,0.982715,-0.002775,0.008964,-0.010513,0.002605,-0.000787,0.000346,0.130307,0.112153,-0.985110
1760107875.810550,-0.044793,0.073839,-0.163904,0.982689,-0.006526,0.008967,-0.011970,0.002164,-0.000687,0.000326,0.130439,0.112239,-0.985083
1760107875.822596,-0.044861,0.073920,-0.164005,0.982663,-0.009620,0.006143,-0.009503,0.000933,-0.000296,0.000141,0.130563,0.112413,-0.985047
1760107875.852720,-0.044951,0.073968,-0.164098,0.982639,-0.010128,-0.000328,-0.009642,0.001443,-0.000475,0.000238,0.130614,0.112617,-0.985016
1760107875.883067,-0.045029,0.073962,-0.164157,0.982626,-0.006235,-0.006984,-0.006484,0.001479,-0.000907,0.000668,0.130571,0.112775,-0.985004
1760107875.883704,-0.045080,0.073916,-0.164202,0.982620,-0.001296,-0.010106,-0.003811,0.001221,-0.000169,0.000765,0.130457,0.112868,-0.985008
1760107875.912120,-0.045077,0.073830,-0.164211,0.982625,0.003001,-0.008009,-0.001701,0.001907,-0.000952,0.000984,0.130290,0.112834,-0.985035
1760107875.945412,-0.045016,0.073703,-0.164219,0.982636,0.011110,-0.010867,-0.002854,0.000486,0.000953,0.001505,0.130062,0.112676,-0.985083
1760107875.947075,-0.044882,0.073564,-0.164252,0.982647,0.017355,-0.013853,-0.002029,0.000338,0.001197,0.001425,0.129831,0.112373,-0.985148
1760107875.986804,-0.044713,0.073373,-0.164285,0.982664,0.024190,-0.018185,-0.004094,0.000209,0.000906,0.000999,0.129510,0.111983,-0.985234
1760107875.987089,-0.044460,0.073165,-0.164378,0.982675,0.032859,-0.016092,-0.009915,0.001697,0.001105,-0.000569,0.129179,0.111432,-0.985340
1760107876.014615,-0.044158,0.072945,-0.164510,0.982683,0.037234,-0.016266,-0.011433,0.001650,0.002256,-0.002200,0.128835,0.110787,-0.985458
1760107876.018996,-0.043847,0.072761,-0.164647,0.982688,0.033823,-0.007878,-0.006863,0.001235,0.003715,-0.002197,0.128563,0.110135,-0.985567
1760107876.047334,-0.043553,0.072597,-0.164695,0.982705,0.030314,-0.011198,0.000754,-0.000929,0.002895,-0.000411,0.128337,0.109512,-0.985666
1760107876.112505,-0.043395,0.072397,-0.164602,0.982742,0.023384,-0.007428,0.004829,0.000174,0.001641,-0.002962,0.128009,0.109126,-0.985751
1760107876.112829,-0.043237,0.072197,-0.164509,0.982779,0.016454,-0.003658,0.008905,0.001277,0.000388,-0.005513,0.127681,0.108740,-0.985836
1760107876.113152,-0.043080,0.071996,-0.164416,0.982816,0.009523,0.000112,0.012980,0.002380,-0.000866,-0.008064,0.127352,0.108354,-0.985921
1760107876.141077,-0.043010,0.071971,-0.164289,0.982843,-0.000054,0.007301,0.015018,0.000513,-0.001465,-0.006245,0.127339,0.108192,-0.985941
1760107876.143110,-0.043085,0.072041,-0.164139,0.982859,-0.014240,0.007791,0.013627,-0.001579,-0.001283,-0.004077,0.127468,0.108342,-0.985908
1760107876.172364,-0.043259,0.072082,-0.164052,0.982863,-0.021074,0.003221,0.001745,-0.001767,-0.002285,-0.002194,0.127499,0.108686,-0.985866
1760107876.180092,-0.043473,0.072102,-0.164049,0.982853,-0.024868,0.002468,-0.002613,-0.001458,-0.001137,-0.000608,0.127468,0.109112,-0.985823
1760107876.210021,-0.043706,0.072178,-0.164059,0.982835,-0.021670,0.002258,-0.003704,-0.002273,-0.002470,0.002041,0.127538,0.109594,-0.985760
1760107876.249602,-0.043811,0.072116,-0.164092,0.982829,-0.011624,-0.002482,-0.003894,-0.002447,-0.001220,0.001115,0.127377,0.109785,-0.985760
1760107876.249923,-0.043917,0.072054,-0.164125,0.982824,-0.001578,-0.007221,-0.004084,-0.002621,0.000031,0.000189,0.127217,0.109976,-0.985759
1760107876.278527,-0.043941,0.071974,-0.164140,0.982826,-0.000898,-0.002906,-0.000090,-0.000806,0.001205,-0.002811,0.127050,0.110001,-0.985778
1760107876.280466,-0.043933,0.071986,-0.164126,0.982828,0.000837,-0.000748,0.000948,-0.001193,-0.000498,-0.001653,0.127078,0.109986,-0.985776
1760107876.318352,-0.043893,0.072002,-0.164134,0.982827,0.002380,0.004156,-0.002812,-0.002686,-0.001613,-0.001359,0.127122,0.109914,-0.985778
1760107876.320473,-0.043792,0.071946,-0.164235,0.982819,0.011857,0.005814,-0.013701,0.000813,0.000420,-0.006087,0.127035,0.109712,-0.985812
1760107876.350640,-0.043666,0.072016,-0.164387,0.982794,0.010313,0.014311,-0.007026,0.000938,0.002551,-0.004998,0.127198,0.109507,-0.985814
1760107876.410741,-0.043528,0.072139,-0.164375,0.982793,0.012092,0.012058,-0.002223,0.000859,0.002196,-0.004011,0.127487,0.109273,-0.985803
1760107876.411076,-0.043389,0.072263,-0.164362,0.982792,0.013871,0.009805,0.002581,0.000780,0.001841,-0.003025,0.127775,0.109039,-0.985791
1760107876.411321,-0.043250,0.072386,-0.164350,0.982791,0.015650,0.007552,0.007384,0.000701,0.001486,-0.002039,0.128064,0.108806,-0.985779
1760107876.439791,-0.043081,0.072530,-0.164299,0.982797,0.017365,0.013217,0.009167,0.001303,-0.000168,-0.001049,0.128408,0.108513,-0.985767
1760107876.441856,-0.042887,0.072640,-0.164244,0.982806,0.021417,0.011814,0.004770,0.000519,-0.003096,0.000972,0.128695,0.108161,-0.985768
1760107876.476678,-0.042660,0.072709,-0.164247,0.982811,0.022520,0.007962,-0.000266,0.000494,-0.002215,0.000485,0.128906,0.107738,-0.985787
1760107876.477994,-0.042460,0.072735,-0.164291,0.982810,0.016857,0.005838,-0.004052,0.000938,-0.000706,-0.000117,0.129018,0.107359,-0.985814
1760107876.508077,-0.042320,0.072795,-0.164361,0.982800,0.008719,0.006060,-0.005698,0.000571,0.000087,-0.000454,0.129174,0.107114,-0.985820
1760107876.539692,-0.042264,0.072876,-0.164424,0.982786,-0.000283,0.008057,-0.005662,0.000548,0.000366,-0.001405,0.129345,0.107038,-0.985806
1760107876.541670,-0.042285,0.072968,-0.164481,0.982768,-0.007717,0.008389,-0.006209,0.000607,0.000891,-0.001379,0.129511,0.107117,-0.985775
1760107876.571186,-0.042383,0.073067,-0.164532,0.982748,-0.011799,0.008888,-0.006616,0.000437,0.000729,-0.000960,0.129665,0.107347,-0.985730
1760107876.578787,-0.042492,0.073169,-0.164617,0.982722,-0.010849,0.009101,-0.007223,0.000243,0.000705,0.000027,0.129820,0.107604,-0.985681
1760107876.608922,-0.042573,0.073277,-0.164707,0.982695,-0.005562,0.007552,-0.009998,0.000165,0.000695,0.000422,0.129994,0.107812,-0.985636
1760107876.639165,-0.042604,0.073312,-0.164800,0.982676,0.000615,0.001187,-0.009350,0.000271,0.001522,0.001402,0.130042,0.107895,-0.985621
1760107876.639472,-0.042584,0.073285,-0.164886,0.982664,0.006594,-0.003405,-0.004226,0.000440,0.001810,0.000969,0.129985,0.107859,-0.985632
1760107876.667688,-0.042495,0.073226,-0.164903,0.982669,0.012883,-0.006540,0.001858,-0.000115,0.001692,0.000290,0.129898,0.107667,-0.985664
1760107876.710562,-0.042377,0.073156,-0.164798,0.982697,0.012911,-0.005709,0.006214,-0.000114,0.000793,-0.000077,0.129813,0.107399,-0.985705
1760107876.711005,-0.042259,0.073087,-0.164694,0.982725,0.012939,-0.004879,0.010571,-0.000114,-0.000106,-0.000444,0.129728,0.107132,-0.985745
1760107876.718754,-0.042158,0.073022,-0.164610,0.982748,0.010960,-0.005650,0.006939,0.000500,-0.001105,-0.001737,0.129646,0.106902,-0.985781
1760107876.748773,-0.042107,0.073000,-0.164531,0.982765,0.003340,0.000757,0.006678,0.000602,-0.002337,-0.003076,0.129627,0.106784,-0.985796
1760107876.779052,-0.042101,0.072997,-0.164488,0.982773,0.000495,-0.002980,0.000943,-0.001781,-0.004677,-0.000471,0.129628,0.106765,-0.985798
1760107876.779347,-0.042100,0.072913,-0.164528,0.982773,0.005361,-0.012649,-0.007657,-0.001692,-0.004600,0.000229,0.129460,0.106742,-0.985823
1760107876.810181,-0.042094,0.072784,-0.164589,0.982772,0.001855,-0.010178,-0.004460,-0.000413,-0.002756,-0.003246,0.129203,0.106696,-0.985861
1760107876.839802,-0.042081,0.072757,-0.164603,0.982772,0.000405,0.011307,0.000030,0.002241,-0.001859,-0.009415,0.129154,0.106665,-0.985871
1760107876.840151,-0.042031,0.072953,-0.164568,0.982766,-0.004459,0.025542,0.008540,0.000691,-0.000657,-0.006245,0.129558,0.106624,-0.985822
1760107876.874351,-0.042031,0.073237,-0.164473,0.982761,-0.012330,0.026800,0.008553,-0.001323,-0.001065,-0.002184,0.130122,0.106704,-0.985739
1760107876.876423,-0.042127,0.073439,-0.164442,0.982747,-0.017003,0.013516,-0.001331,-0.001867,-0.001750,0.000739,0.130489,0.106953,-0.985664
1760107876.904786,-0.042283,0.073546,-0.164491,0.982724,-0.023872,0.006503,-0.009272,-0.000577,0.000177,0.001125,0.130641,0.107299,-0.985606
1760107876.936440,-0.042537,0.073653,-0.164577,0.982690,-0.029596,0.008421,-0.007851,-0.000645,0.001107,0.001177,0.130754,0.107845,-0.985532
1760107876.948622,-0.042797,0.073741,-0.164633,0.982663,-0.024161,0.004813,-0.007646,-0.002800,-0.000079,0.003109,0.130833,0.108390,-0.985461
1760107877.011153,-0.042942,0.073753,-0.164687,0.982647,-0.019052,0.003605,-0.006165,-0.001961,0.000325,0.002626,0.130802,0.108686,-0.985433
1760107877.011496,-0.043087,0.073765,-0.164741,0.982630,-0.013943,0.002398,-0.004684,-0.001123,0.000728,0.002143,0.130771,0.108982,-0.985404
1760107877.011803,-0.043233,0.073777,-0.164796,0.982614,-0.008834,0.001191,-0.003203,-0.000284,0.001132,0.001660,0.130739,0.109278,-0.985376
1760107877.017569,-0.043322,0.073799,-0.164861,0.982597,-0.007177,-0.000982,-0.004339,-0.002312,0.001616,0.000665,0.130745,0.109469,-0.985354
1760107877.047615,-0.043357,0.073723,-0.164945,0.982588,0.001873,-0.002794,-0.010398,0.001867,0.002423,-0.004648,0.130576,0.109525,-0.985370
1760107877.077407,-0.043342,0.073742,-0.165039,0.982571,0.005565,0.005487,-0.004373,0.001011,0.003080,-0.003121,0.130607,0.109514,-0.985367
1760107877.077675,-0.043294,0.073837,-0.165092,0.982557,0.006195,0.015226,0.000073,-0.000085,0.003132,-0.002217,0.130802,0.109457,-0.985348
1760107877.106868,-0.043170,0.073930,-0.165109,0.982553,0.013224,0.006626,-0.000967,-0.001425,0.002545,0.002383,0.131025,0.109248,-0.985341
1760107877.139662,-0.042994,0.073935,-0.165139,0.982555,0.017750,0.001853,-0.000116,0.000313,0.001581,0.000990,0.131091,0.108908,-0.985370
1760107877.140018,-0.042803,0.073937,-0.165148,0.982562,0.020947,0.004127,-0.000646,0.001466,0.000597,0.000138,0.131158,0.108534,-0.985402
1760107877.171275,-0.042591,0.073931,-0.165164,0.982569,0.020902,0.000822,-0.001706,0.000714,-0.000749,0.001004,0.131216,0.108119,-0.985440
1760107877.208190,-0.042421,0.073911,-0.165207,0.982570,0.016901,0.001960,-0.003196,0.000688,0.000020,0.000090,0.131229,0.107785,-0.985475
1760107877.208482,-0.042252,0.073890,-0.165250,0.982572,0.012900,0.003099,-0.004687,0.000662,0.000790,-0.000824,0.131241,0.107451,-0.985510
1760107877.237323,-0.042111,0.073907,-0.165298,0.982569,0.009040,0.001556,-0.002859,0.001938,0.000647,-0.001827,0.131315,0.107187,-0.985529
1760107877.241182,-0.042034,0.073931,-0.165318,0.982567,0.004289,0.003013,-0.001911,0.001904,0.001222,-0.001865,0.131386,0.107047,-0.985535
1760107877.271194,-0.041990,0.073972,-0.165339,0.982562,0.002273,0.003636,0.000164,0.001278,0.000256,-0.000586,0.131479,0.106976,-0.985530
1760107877.319592,-0.041958,0.074007,-0.165339,0.982561,0.003860,0.002531,0.000464,0.000442,-0.000861,-0.000360,0.131559,0.106925,-0.985525
1760107877.319872,-0.041927,0.074043,-0.165338,0.982560,0.005448,0.001425,0.000765,-0.000393,-0.001978,-0.000134,0.131639,0.106875,-0.985520
1760107877.322086,-0.041835,0.074058,-0.165333,0.982563,0.009031,0.000947,-0.001329,0.000160,-0.001747,0.000049,0.131699,0.106700,-0.985531
1760107877.351229,-0.041703,0.074028,-0.165363,0.982566,0.013687,-0.001271,-0.002368,-0.000426,-0.001864,0.000450,0.131683,0.106434,-0.985561
1760107877.357545,-0.041554,0.073960,-0.165370,0.982576,0.016332,-0.006113,-0.000614,-0.000738,-0.000481,0.000064,0.131599,0.106121,-0.985606
1760107877.387580,-0.041409,0.073853,-0.165379,0.982589,0.012135,-0.009873,0.002906,-0.000266,-0.000174,0.000023,0.131438,0.105803,-0.985662
1760107877.417805,-0.041316,0.073743,-0.165323,0.982611,0.008153,-0.009483,0.006399,-0.000486,-0.000395,-0.002273,0.131260,0.105577,-0.985710
1760107877.418049,-0.041241,0.073632,-0.165243,0.982635,0.004665,-0.006793,0.009010,0.000327,-0.001706,-0.002903,0.131077,0.105384,-0.985755
1760107877.446001,-0.041208,0.073586,-0.165141,0.982657,0.001571,0.000396,0.009356,0.001586,-0.002968,-0.002492,0.131010,0.105291,-0.985774
1760107877.476642,-0.041178,0.073581,-0.165081,0.982669,0.003329,0.000155,0.002865,0.002443,-0.005897,-0.001709,0.131015,0.105222,-0.985781
1760107877.478751,-0.041117,0.073567,-0.165126,0.982665,0.003659,0.002992,-0.007756,0.002197,-0.005352,-0.002945,0.131005,0.105104,-0.985794
1760107877.531422,-0.041090,0.073574,-0.165220,0.982650,0.002854,-0.003530,-0.009290,-0.000586,-0.004328,0.000166,0.131017,0.105067,-0.985797
1760107877.531745,-0.041064,0.073580,-0.165314,0.982635,0.002049,-0.010052,-0.010823,-0.003368,-0.003303,0.003277,0.131028,0.105029,-0.985799
1760107877.545067,-0.041002,0.073439,-0.165400,0.982634,0.002163,-0.018153,-0.009206,-0.001892,-0.000457,-0.001250,0.130763,0.104874,-0.985851
1760107877.575399,-0.040997,0.073356,-0.165415,0.982637,-0.004823,0.001128,0.004596,0.002343,0.002150,-0.009614,0.130601,0.104839,-0.985876
1760107877.576815,-0.041048,0.073519,-0.165307,0.982641,-0.016126,0.025042,0.015422,0.001401,0.001985,-0.008340,0.130914,0.104978,-0.985820
1760107877.614162,-0.041203,0.073838,-0.165136,0.982640,-0.026140,0.030729,0.017524,-0.000253,-0.000003,-0.003905,0.131505,0.105363,-0.985700
1760107877.617519,-0.041430,0.074120,-0.165014,0.982629,-0.024897,0.014088,0.001696,-0.001710,-0.003730,0.000854,0.131992,0.105883,-0.985579
1760107877.652176,-0.041657,0.074199,-0.165059,0.982606,-0.022422,0.001908,-0.012328,0.000002,-0.001496,0.000398,0.132066,0.106359,-0.985518
1760107877.657489,-0.041923,0.074258,-0.165185,0.982569,-0.027785,0.001642,-0.012879,0.000298,0.001283,0.001922,0.132076,0.106917,-0.985457
1760107877.686030,-0.042193,0.074271,-0.165289,0.982539,-0.023161,-0.001573,-0.009172,-0.002241,0.001221,0.003928,0.132001,0.107464,-0.985407
1760107877.717313,-0.042366,0.074202,-0.165354,0.982526,-0.011915,-0.009723,-0.006057,-0.002320,0.000458,0.002489,0.131800,0.107791,-0.985398
1760107877.719557,-0.042431,0.074099,-0.165375,0.982527,-0.004611,-0.008901,-0.001882,0.000053,0.001789,-0.000934,0.131574,0.107887,-0.985418
1760107877.750541,-0.042474,0.074061,-0.165343,0.982534,-0.005791,0.002187,0.002129,0.001620,0.002952,-0.001111,0.131490,0.107956,-0.985422
1760107877.784380,-0.042568,0.074064,-0.165300,0.982537,-0.009782,0.001433,-0.000507,0.000376,0.002026,-0.001379,0.131467,0.108135,-0.985405
1760107877.786695,-0.042686,0.074022,-0.165290,0.982537,-0.005382,-0.008428,-0.005583,0.000053,0.000234,-0.000919,0.131348,0.108351,-0.985397
1760107877.816349,-0.042740,0.074028,-0.165375,0.982519,-0.001605,0.005744,-0.010611,0.003342,-0.000542,-0.004857,0.131333,0.108471,-0.985386
1760107877.819062,-0.042749,0.074142,-0.165469,0.982494,-0.002697,0.015195,-0.005503,0.001202,0.002688,-0.004552,0.131541,0.108539,-0.985351
1760107877.847610,-0.042772,0.074283,-0.165502,0.982477,0.000329,0.006630,0.001973,-0.003398,0.001686,0.002020,0.131805,0.108632,-0.985305
1760107877.910641,-0.042679,0.074274,-0.165453,0.982490,0.003043,0.005045,0.003024,-0.002258,0.000940,0.001682,0.131825,0.108442,-0.985324
1760107877.910947,-0.042587,0.074266,-0.165405,0.982503,0.005757,0.003459,0.004075,-0.001118,0.000193,0.001344,0.131845,0.108251,-0.985342
1760107877.911229,-0.042494,0.074257,-0.165357,0.982516,0.008471,0.001874,0.005126,0.000021,-0.000553,0.001006,0.131864,0.108061,-0.985360
1760107877.915358,-0.042397,0.074223,-0.165321,0.982529,0.011211,-0.003151,0.002247,-0.000069,-0.000644,-0.000122,0.131833,0.107853,-0.985387
1760107877.943646,-0.042297,0.074179,-0.165288,0.982542,0.006464,-0.000017,0.002987,0.000729,-0.000463,-0.000848,0.131785,0.107640,-0.985417
1760107877.974471,-0.042254,0.074190,-0.165266,0.982546,0.003359,-0.000415,0.001194,0.000305,-0.000660,-0.001651,0.131825,0.107555,-0.985421
1760107877.975446,-0.042248,0.074209,-0.165271,0.982545,-0.002578,0.001093,-0.000234,0.000598,0.000108,-0.002830,0.131863,0.107550,-0.985416
1760107878.016762,-0.042285,0.074243,-0.165257,0.982543,-0.005763,0.002000,-0.000914,0.000260,-0.000473,-0.002303,0.131919,0.107632,-0.985400
1760107878.018797,-0.042365,0.074287,-0.165273,0.982533,-0.005577,0.001887,-0.000927,0.000624,-0.000824,-0.001107,0.131975,0.107804,-0.985373
1760107878.048021,-0.042391,0.074301,-0.165278,0.982530,-0.001533,0.000522,-0.002141,-0.000168,-0.001617,-0.000822,0.131994,0.107861,-0.985365
1760107878.054986,-0.042392,0.074314,-0.165306,0.982524,0.002103,-0.001679,-0.003039,0.000203,-0.001104,0.001220,0.132015,0.107872,-0.985361
1760107878.085325,-0.042364,0.074264,-0.165343,0.982523,0.002410,-0.004075,-0.001487,0.000066,-0.000357,0.000394,0.131923,0.107806,-0.985380
1760107878.101462,-0.042358,0.074206,-0.165354,0.982526,0.002718,-0.007883,0.000147,-0.000198,-0.000536,0.000589,0.131811,0.107775,-0.985399
1760107878.132298,-0.042325,0.074109,-0.165346,0.982536,0.004658,-0.007747,0.000890,-0.000218,-0.001109,-0.000741,0.131634,0.107679,-0.985433
1760107878.132582,-0.042292,0.074015,-0.165344,0.982545,0.002653,-0.005838,0.003493,-0.001317,0.000064,-0.000448,0.131460,0.107584,-0.985466
1760107878.161739,-0.042280,0.073961,-0.165304,0.982556,-0.001081,-0.006185,0.003895,-0.001042,0.000229,-0.000248,0.131364,0.107537,-0.985484
1760107878.210633,-0.042324,0.073902,-0.165268,0.982565,-0.002637,-0.007739,0.001070,-0.000842,-0.000677,-0.000426,0.131237,0.107599,-0.985494
1760107878.210912,-0.042368,0.073843,-0.165233,0.982573,-0.004193,-0.009293,-0.001756,-0.000643,-0.001584,-0.000603,0.131110,0.107662,-0.985504
1760107878.212945,-0.042455,0.073773,-0.165241,0.982573,-0.011362,0.000443,-0.002260,0.000780,-0.001319,-0.003360,0.130944,0.107811,-0.985510
1760107878.242181,-0.042609,0.073778,-0.165233,0.982568,-0.013945,-0.005406,-0.001063,-0.001498,-0.002338,0.001187,0.130903,0.108114,-0.985483
1760107878.272923,-0.042753,0.073676,-0.165274,0.982562,-0.008916,-0.020207,-0.009750,-0.002394,-0.001590,0.001562,0.130650,0.108368,-0.985488
1760107878.274198,-0.042896,0.073497,-0.165329,0.982560,-0.011589,-0.016375,-0.004835,-0.000163,-0.000680,-0.003282,0.130247,0.108598,-0.985516
1760107878.304377,-0.043008,0.073451,-0.165327,0.982559,-0.014831,0.005751,0.001079,0.002899,0.000327,-0.008810,0.130119,0.108802,-0.985511
1760107878.338103,-0.043105,0.073648,-0.165285,0.982547,-0.017028,0.024076,0.006996,0.001364,0.001461,-0.007063,0.130476,0.109050,-0.985436
1760107878.340094,-0.043256,0.073914,-0.165198,0.982535,-0.024098,0.022755,0.007211,-0.001184,0.001992,-0.002483,0.130955,0.109421,-0.985331
