timestamp,quat_x,quat_y,quat_z,quat_w,rot_x,rot_y,rot_z,acc_x,acc_y,acc_z,grav_x,grav_y,grav_z,pitch_rad
1760736204.24874,0.155593,0.303554,-0.0,0.940024,-0.009769,-0.002492,0.004145,-0.837861,0.273572,-0.195443,0.570696,-0.292522,-0.767292,-0.6073531656192594
1760736204.286283,0.013094,-0.134574,0.026572,0.990461,-0.013851,0.001452,0.000599,0.000104,0.000628,0.000623,-0.267277,-0.018786,-0.963437,0.27056601034910305
1760736204.287167,0.013005,-0.134599,0.02656,0.990459,-0.012366,-0.000596,0.000929,4.3e-05,0.000261,0.000259,-0.26732,-0.018612,-0.963428,0.2706107534964298
1760736204.317511,0.012895,-0.134641,0.026534,0.990455,-0.006573,-0.003195,0.001108,6.5e-05,0.000596,0.000785,-0.267396,-0.018398,-0.963411,0.27068962989560186
1760736204.317918,0.013102,-0.134767,0.026501,0.990436,-0.001767,-0.00285,-0.001907,-0.00015,0.000181,0.001239,-0.26765,-0.018811,-0.963332,0.27095336911585544
1760736204.349278,0.012959,-0.134875,0.026482,0.990424,0.001049,-0.003259,-0.002474,-0.000538,0.00018,-9.2e-05,-0.267854,-0.018527,-0.963282,0.2711647791371624
1760736204.379837,0.01293,-0.134914,0.026472,0.990419,0.00042,-0.003048,-0.002581,-0.000448,-0.000155,0.000232,-0.267927,-0.01847,-0.963262,0.2712407609291696
1760736204.380212,0.012902,-0.134953,0.026461,0.990415,-0.00021,-0.002838,-0.002688,-0.000358,-0.00049,0.000555,-0.268001,-0.018414,-0.963243,0.27131743229060434
1760736204.411028,0.012909,-0.135086,0.026386,0.990398,-0.001406,-0.004299,-0.004589,-0.000413,-0.000794,0.000871,-0.26826,-0.01844,-0.96317,0.27158638494572973
1760736204.451129,0.012904,-0.135116,0.026378,0.990395,-0.001368,-0.003686,-0.002118,-0.000197,-6e-05,0.001038,-0.268318,-0.018432,-0.963154,0.27164659149290343
1760736204.451469,0.012899,-0.135146,0.02637,0.990391,-0.001329,-0.003072,0.000354,2e-05,0.000674,0.001205,-0.268376,-0.018423,-0.963138,0.2717068031557746
1760736204.512463,0.012874,-0.135175,0.026374,0.990387,-0.002229,-0.002623,0.000788,1.5e-05,0.000507,0.000906,-0.26843,-0.01837,-0.963124,0.2717628503423598
1760736204.512794,0.012849,-0.135203,0.026378,0.990383,-0.003129,-0.002173,0.001222,1e-05,0.000339,0.000606,-0.268483,-0.018318,-0.96311,0.27181792836032986
1760736204.513236,0.012824,-0.135231,0.026382,0.99038,-0.004029,-0.001724,0.001656,5e-06,0.000172,0.000307,-0.268537,-0.018265,-0.963096,0.2718739740171355
1760736204.513487,0.012798,-0.135259,0.026386,0.990376,-0.004929,-0.001274,0.00209,0.0,4e-06,7e-06,-0.26859,-0.018212,-0.963082,0.2719290556387129
1760736204.544948,0.012744,-0.135235,0.026402,0.99038,-0.006901,-0.000611,7.1e-05,-0.000264,-0.000791,2e-06,-0.268541,-0.018102,-0.963098,0.27187811638655723
1760736204.573975,0.012636,-0.135223,0.02637,0.990384,-0.004856,-0.000519,-0.002779,-0.000362,-0.002276,0.000553,-0.268511,-0.017898,-0.96311,0.27184702007982453
1760736204.57435,0.012635,-0.135218,0.026334,0.990385,-0.007698,-0.00158,-0.005095,0.001138,-0.00127,0.002183,-0.268501,-0.017904,-0.963113,0.27183655198055257
1760736204.627515,0.012562,-0.135255,0.026286,0.990382,-0.009045,-0.000682,-0.004916,0.001139,-0.000424,0.001944,-0.268569,-0.017772,-0.963096,0.271907275071546
1760736204.627858,0.01249,-0.135293,0.026239,0.990379,-0.010392,0.000216,-0.004736,0.001141,0.000422,0.001705,-0.268638,-0.01764,-0.96308,0.271978688042692
1760736204.678826,0.012378,-0.13533,0.026099,0.990379,-0.00862,-0.005548,-0.006058,0.000177,0.001281,0.001472,-0.268703,-0.017454,-0.963065,0.27204623785011434
1760736204.67918,0.012348,-0.13535,0.026094,0.990377,-0.004876,-0.004438,-0.000993,-0.000217,0.000524,0.002301,-0.26874,-0.017395,-0.963056,0.27208458181064865
1760736204.679738,0.012318,-0.13537,0.026089,0.990375,-0.001131,-0.003329,0.004072,-0.000611,-0.000233,0.003131,-0.268777,-0.017336,-0.963046,0.2721231935199087
1760736204.709014,0.012336,-0.135405,0.026215,0.990367,0.006257,-0.002127,0.008325,-0.000371,-2.6e-05,-0.001572,-0.268847,-0.017336,-0.963027,0.27219572361687455
1760736204.741012,0.012296,-0.135358,0.026289,0.990372,0.001616,0.007746,0.009866,0.000261,0.000717,-0.00232,-0.268756,-0.017238,-0.963054,0.27210128913488285
1760736204.741329,0.012255,-0.135311,0.026363,0.990376,-0.003025,0.017619,0.011407,0.000894,0.00146,-0.003068,-0.268665,-0.017141,-0.963081,0.2720068471395766
1760736204.771332,0.012099,-0.135034,0.026492,0.990413,-0.01163,0.020244,0.005417,0.001829,-0.002752,0.001865,-0.268121,-0.016811,-0.963239,0.2714419681600968
1760736204.823196,0.012017,-0.135007,0.026423,0.990419,-0.01241,0.013021,0.00058,0.002468,-0.001951,0.001515,-0.268062,-0.01667,-0.963257,0.27138095987930344
1760736204.823513,0.011936,-0.13498,0.026354,0.990426,-0.01319,0.005797,-0.004256,0.003107,-0.00115,0.001165,-0.268004,-0.016528,-0.963276,0.27132064599493544
1760736204.824059,0.011854,-0.134952,0.026284,0.990433,-0.01397,-0.001426,-0.009093,0.003746,-0.000349,0.000815,-0.267945,-0.016387,-0.963295,0.27125935853564703
1760736204.854317,0.01171,-0.134953,0.026144,0.990438,-0.006411,0.000684,-0.001055,0.001987,0.004254,0.001303,-0.267937,-0.016139,-0.963301,0.27125116531579124
1760736204.854635,0.011711,-0.134923,0.026133,0.990442,-0.003245,-0.000378,0.003295,0.001002,0.004085,0.002589,-0.267879,-0.016146,-0.963317,0.27119096817212746
1760736204.884858,0.011714,-0.13493,0.026196,0.99044,-0.005693,-0.00134,0.010027,0.000924,0.003195,0.001017,-0.267893,-0.016135,-0.963314,0.2712053093909795
1760736204.916335,0.011542,-0.134919,0.026403,0.990437,-0.011353,-0.002959,0.017125,0.000132,0.000545,0.000292,-0.267867,-0.015738,-0.963327,0.27117853678138265
1760736204.916633,0.011394,-0.134888,0.026511,0.990441,-0.014706,9.8e-05,0.018322,0.000196,4e-05,-0.001071,-0.267802,-0.015418,-0.963351,0.2711108701482142
1760736204.952616,0.011064,-0.134909,0.026705,0.990436,-0.014556,-0.000302,0.008124,0.000243,-0.001731,-0.000339,-0.267828,-0.01471,-0.963355,0.27113781386185043
1760736204.953013,0.010933,-0.134909,0.026728,0.990437,-0.015579,-0.00201,0.00212,-0.000927,-0.001858,0.001959,-0.267822,-0.014445,-0.96336,0.27113176793399624
1760736204.983387,0.010824,-0.134938,0.026714,0.990435,-0.013214,-7.5e-05,-0.00041,0.000349,-0.001375,0.003075,-0.267873,-0.014231,-0.963349,0.2711847034768904
1760736205.01436,0.010716,-0.135003,0.026693,0.990428,-0.00149,-0.007736,-0.003732,-0.002061,-0.00443,0.003419,-0.267994,-0.014019,-0.963319,0.27131014930160263
1760736205.014672,0.010723,-0.135091,0.026641,0.990417,-0.001275,-0.010845,-0.002572,-3.9e-05,-0.000546,-0.00084,-0.268164,-0.014043,-0.963271,0.2714866994610105
1760736205.044676,0.010724,-0.135097,0.026637,0.990416,-0.00482,-0.001901,-0.00093,-0.000412,0.001254,-0.002595,-0.268176,-0.014045,-0.963267,0.2714993246704287
1760736205.068037,0.010582,-0.135006,0.026684,0.990429,-0.014159,0.007636,0.009333,0.000351,0.003164,-0.000458,-0.267992,-0.013756,-0.963323,0.2713081665842953
1760736205.109985,0.01049,-0.135021,0.026716,0.990427,-0.015043,0.0029,0.006293,0.000994,0.001563,0.000568,-0.268017,-0.013564,-0.963319,0.271334053522068
1760736205.110306,0.010398,-0.135036,0.026748,0.990425,-0.015927,-0.001836,0.003253,0.001636,-3.7e-05,0.001594,-0.268042,-0.013373,-0.963314,0.27136019449554444
1760736205.112591,0.010156,-0.135093,0.026754,0.99042,-0.014815,-0.002328,-0.003336,0.000272,0.001333,0.001372,-0.268142,-0.012889,-0.963293,0.27146393184024353
1760736205.144174,0.010061,-0.135101,0.026717,0.99042,-0.00955,-0.003174,-0.005249,0.000316,0.001792,0.001795,-0.268151,-0.012711,-0.963293,0.2714732364140229
1760736205.178916,0.009916,-0.135186,0.026643,0.990412,-0.008625,0.001091,-0.001817,0.000739,0.00283,0.001211,-0.268309,-0.012438,-0.963253,0.27163713056208333
1760736205.179282,0.009889,-0.135173,0.026635,0.990415,-0.011353,0.001157,0.000185,0.000925,0.003189,0.000818,-0.268281,-0.012389,-0.963261,0.2716081803593032
1760736205.208984,0.009666,-0.135108,0.026634,0.990426,-0.014833,0.004367,0.002545,0.000392,0.003219,0.000321,-0.268144,-0.011949,-0.963305,0.27146589040440783
1760736205.240129,0.009534,-0.135098,0.026631,0.990428,-0.016051,0.003801,0.00145,0.000935,0.003158,0.001107,-0.268118,-0.011689,-0.963315,0.2714390166217492
1760736205.240432,0.009402,-0.135088,0.026627,0.990431,-0.01727,0.003235,0.000356,0.001478,0.003096,0.001893,-0.268092,-0.011429,-0.963326,0.2714118559172553
1760736205.286719,0.009105,-0.135036,0.026604,0.990442,-0.013717,0.000862,-0.00075,0.000835,0.003121,0.001215,-0.267976,-0.01085,-0.963365,0.27129144226681734
1760736205.287165,0.00903,-0.135057,0.026594,0.99044,-0.012505,0.001763,-0.000609,0.001176,0.003987,0.00091,-0.268012,-0.010703,-0.963356,0.271328977856261
1760736205.321511,0.008839,-0.135062,0.026545,0.990442,-0.009534,-0.002645,0.001811,0.001309,0.002472,0.00253,-0.268011,-0.010339,-0.96336,0.2713280078227759
1760736205.322006,0.008754,-0.135098,0.026551,0.990438,-0.009783,-0.002564,0.003429,0.001015,0.002572,0.000821,-0.268077,-0.010167,-0.963344,0.27139637178582443
1760736205.372565,0.0086,-0.135118,0.026549,0.990436,-0.003609,-0.004379,0.00036,0.000357,0.00291,0.002592,-0.268108,-0.009862,-0.963338,0.2714286954288864
1760736205.372895,0.008552,-0.135132,0.02656,0.990435,-0.003688,-0.003755,0.002047,0.000114,0.003292,0.002247,-0.268132,-0.009763,-0.963333,0.271453427573986
1760736205.373239,0.008504,-0.135145,0.026571,0.990433,-0.003766,-0.003131,0.003733,-0.00013,0.003673,0.001902,-0.268156,-0.009663,-0.963327,0.27147842779416725
1760736205.409801,0.008392,-0.135161,0.02658,0.990432,-0.005475,-0.002551,0.001989,0.000119,0.002827,0.001979,-0.268182,-0.009438,-0.963322,0.27150541441130777
1760736205.439079,0.008309,-0.135185,0.026586,0.990429,-0.003619,-0.003165,0.000564,6.8e-05,0.001627,0.001139,-0.268223,-0.00927,-0.963312,0.2715480316822862
1760736205.439413,0.008226,-0.135208,0.026592,0.990426,-0.001764,-0.003779,-0.00086,1.8e-05,0.000428,0.0003,-0.268265,-0.009103,-0.963302,0.2715916019319372
1760736205.470219,0.008207,-0.135306,0.02658,0.990413,0.005265,-0.002131,-0.001521,0.000377,0.001787,0.001289,-0.268454,-0.009063,-0.96325,0.27178772448034993
1760736205.512456,0.008261,-0.135332,0.026579,0.990409,0.003916,-0.002039,-0.000465,0.000592,0.001323,0.00114,-0.268507,-0.009169,-0.963234,0.2718428047666978
1760736205.51281,0.008315,-0.135358,0.026577,0.990405,0.002566,-0.001947,0.00059,0.000808,0.000859,0.000991,-0.26856,-0.009276,-0.963218,0.2718978793493503
1760736205.513111,0.008369,-0.135384,0.026576,0.990401,0.001216,-0.001855,0.001646,0.001023,0.000395,0.000842,-0.268613,-0.009382,-0.963202,0.2719529533679194
1760736205.544982,0.008354,-0.135401,0.026566,0.990399,0.001449,-0.001936,1.3e-05,0.000473,0.000573,0.000746,-0.268647,-0.009354,-0.963193,0.2719881943650671
1760736205.602959,0.008343,-0.135506,0.026533,0.990386,0.002301,-0.004959,-0.003098,2.4e-05,0.000631,0.001822,-0.268848,-0.009334,-0.963137,0.2721969010694234
1760736205.603444,0.008355,-0.135539,0.026512,0.990382,0.000332,-0.003798,-0.002003,0.000375,0.000263,0.001166,-0.268915,-0.009363,-0.963119,0.27226619762762744
1760736205.603748,0.008368,-0.135573,0.026492,0.990378,-0.001637,-0.002638,-0.000908,0.000725,-0.000106,0.000511,-0.268981,-0.009392,-0.9631,0.2723347996398574
1760736205.633998,0.008296,-0.135605,0.026447,0.990375,-0.002403,-0.001432,-0.000948,-0.000135,-0.000684,0.001087,-0.269038,-0.009261,-0.963085,0.27239407467149374
1760736205.634495,0.008279,-0.135624,0.026436,0.990373,-0.003262,-0.003083,0.000862,0.000334,-0.000842,0.002097,-0.269074,-0.009228,-0.963075,0.2724315228199834
1760736205.665072,0.008201,-0.135702,0.026457,0.990363,-0.002227,-0.002985,0.001823,0.000108,-0.000531,0.001751,-0.269222,-0.009063,-0.963036,0.27258497943838705
1760736205.73598,0.008178,-0.135714,0.026442,0.990361,-0.003169,-0.002822,0.000186,-4.5e-05,-0.000536,0.001821,-0.269244,-0.00902,-0.96303,0.272607891095347
1760736205.736316,0.008154,-0.135726,0.026426,0.99036,-0.004111,-0.002659,-0.00145,-0.000198,-0.000541,0.001891,-0.269267,-0.008978,-0.963024,0.2726317628034419
1760736205.736663,0.008131,-0.135738,0.026411,0.990359,-0.005053,-0.002496,-0.003087,-0.000351,-0.000547,0.001961,-0.269289,-0.008935,-0.963018,0.2726546734572916
1760736205.737083,0.008108,-0.135751,0.026396,0.990358,-0.005994,-0.002333,-0.004724,-0.000504,-0.000552,0.002031,-0.269312,-0.008893,-0.963012,0.27267854417286136
1760736205.768169,0.00796,-0.13582,0.026284,0.990353,-0.012161,-0.00238,-0.006746,-9.7e-05,0.000553,0.001655,-0.269438,-0.008626,-0.962979,0.27280942983009804
1760736205.798563,0.007883,-0.135845,0.026242,0.990351,-0.012222,-0.002093,-0.005825,0.000289,-0.000112,0.000718,-0.269482,-0.008484,-0.962968,0.2728551062019393
1760736205.798886,0.007806,-0.135869,0.0262,0.99035,-0.012283,-0.001807,-0.004903,0.000674,-0.000777,-0.00022,-0.269525,-0.008342,-0.962957,0.27289981394051543
1760736205.877931,0.00772,-0.13598,0.026095,0.990338,-0.003214,-0.005561,-0.005779,0.000543,0.002713,0.00034,-0.269735,-0.008193,-0.9629,0.27311774964421826
1760736205.878421,0.007754,-0.136021,0.026114,0.990331,-0.000407,-0.005368,-0.002817,-0.000247,0.001655,-0.000272,-0.269817,-0.008254,-0.962876,0.2732030431866196
1760736205.878783,0.007789,-0.136062,0.026133,0.990325,0.0024,-0.005175,0.000145,-0.001037,0.000598,-0.000885,-0.269899,-0.008316,-0.962853,0.2732880635414625
1760736205.879139,0.007824,-0.136103,0.026152,0.990318,0.005207,-0.004982,0.003107,-0.001827,-0.00046,-0.001498,-0.26998,-0.008377,-0.962829,0.2733723921802173
1760736205.912387,0.00773,-0.135967,0.026269,0.990335,-0.012402,0.020324,0.010461,0.001005,0.002615,-0.00451,-0.269712,-0.008167,-0.962906,0.2730940433630122
1760736205.912994,0.00763,-0.135821,0.026324,0.990354,-0.017414,0.029015,0.012631,0.00033,0.000641,-0.00072,-0.269424,-0.007961,-0.962989,0.27279479636651977
1760736205.95496,0.007479,-0.13563,0.026342,0.990381,-0.014021,0.017066,0.003327,0.001368,-0.00108,0.00411,-0.269046,-0.007669,-0.963097,0.27240231580771135
1760736205.955298,0.007329,-0.135439,0.02636,0.990408,-0.010627,0.005118,-0.005977,0.002406,-0.002801,0.00894,-0.268667,-0.007377,-0.963205,0.2720088481184606
1760736206.009837,0.007127,-0.135414,0.026165,0.990418,-0.010248,-0.001374,-0.010928,0.00366,0.001359,0.001392,-0.268606,-0.007031,-0.963224,0.27194568157000687
1760736206.010185,0.007052,-0.135402,0.026078,0.990422,-0.006429,0.000651,-0.006208,0.002289,0.004296,0.001299,-0.268577,-0.006907,-0.963233,0.2719155708845817
1760736206.039255,0.007013,-0.135409,0.026038,0.990423,-0.004935,0.000166,-0.001987,0.000466,0.00492,0.000201,-0.26859,-0.00684,-0.96323,0.2719290273602569
1760736206.039653,0.006974,-0.135416,0.025998,0.990423,-0.00344,-0.000318,0.002235,-0.001357,0.005544,-0.000897,-0.268602,-0.006773,-0.963228,0.27194125073454056
1760736206.070214,0.006819,-0.135344,0.026157,0.99043,-0.009144,0.003031,0.015232,0.000177,0.002221,-0.000522,-0.268455,-0.006427,-0.963271,0.27178873998391373
1760736206.101396,0.006736,-0.135324,0.026236,0.990431,-0.007162,0.002966,0.01156,0.000151,0.001598,-3.2e-05,-0.268413,-0.006242,-0.963284,0.27174511846710786
1760736206.101804,0.006652,-0.135304,0.026316,0.990432,-0.005181,0.002901,0.007889,0.000126,0.000976,0.000457,-0.26837,-0.006056,-0.963297,0.27170052578563375
1760736206.135382,0.006503,-0.135301,0.026388,0.990432,-0.002282,-0.000691,-0.002474,0.000546,0.00147,0.00134,-0.268356,-0.005741,-0.963303,0.27168594680364205
1760736206.135679,0.006458,-0.135305,0.026369,0.990432,0.00144,-0.001932,-0.003605,0.000798,0.00184,0.004446,-0.26836,-0.005656,-0.963302,0.2716902033682575
1760736206.17897,0.00665,-0.135369,0.026327,0.990423,0.017692,-0.00825,-0.005147,-0.001066,-0.000266,0.001963,-0.268496,-0.006046,-0.963262,0.2718313131911467
1760736206.17928,0.006751,-0.135433,0.026293,0.990414,0.019207,-0.008086,-0.00812,0.000273,0.00029,-0.002016,-0.268625,-0.006251,-0.963224,0.2719654277950554
1760736206.211235,0.006944,-0.135406,0.026226,0.990419,0.005652,0.007756,-0.002794,-0.001499,0.000953,-0.001579,-0.268582,-0.006653,-0.963234,0.27192059876884683
1760736206.218061,0.006953,-0.135336,0.026219,0.990428,-0.000977,0.003706,-0.002174,-0.000147,-0.00096,0.00079,-0.268445,-0.006676,-0.963272,0.27177838398957066
1760736206.248487,0.006928,-0.135307,0.026182,0.990434,-0.003127,0.001763,-0.00525,0.000145,-0.000904,0.001567,-0.268388,-0.006638,-0.963288,0.2717192516493421
1760736206.310207,0.006882,-0.135306,0.026095,0.990436,-0.003235,0.002736,-0.005191,0.000249,-0.00016,0.001341,-0.268383,-0.006571,-0.96329,0.271714021617324
1760736206.310524,0.006836,-0.135305,0.026009,0.990439,-0.003343,0.003708,-0.005131,0.000353,0.000584,0.001115,-0.268379,-0.006504,-0.963292,0.2717097536488985
1760736206.311148,0.00679,-0.135304,0.025922,0.990442,-0.003451,0.004681,-0.005072,0.000457,0.001329,0.000888,-0.268374,-0.006436,-0.963293,0.2717047912800996
1760736206.31801,0.006742,-0.135259,0.025825,0.990451,-0.001952,0.005939,-0.003749,0.000195,0.000839,0.000731,-0.268282,-0.006369,-0.963319,0.2716093082213687
1760736206.348258,0.006724,-0.135198,0.025801,0.99046,-0.004707,0.008761,-0.001026,0.00015,0.000756,0.000704,-0.268163,-0.006343,-0.963353,0.2714855953819187
1760736206.376837,0.006592,-0.135098,0.025795,0.990474,-0.009564,0.002747,0.002114,0.000455,-6.1e-05,0.002627,-0.267963,-0.006088,-0.96341,0.27127807687493055
1760736206.376834,0.006658,-0.135148,0.025798,0.990467,-0.007136,0.005754,0.000544,0.000303,0.000348,0.001666,-0.268063,-0.006216,-0.963381,0.27138197157523086
1760736206.407037,0.006436,-0.135063,0.025798,0.99048,-0.004834,0.000179,-0.002131,0.000755,-0.000612,0.000491,-0.267886,-0.005781,-0.963433,0.2711982364986777
1760736206.436492,0.006412,-0.135087,0.025771,0.990478,-0.002893,-0.001122,-0.002397,0.000826,-0.000476,0.000343,-0.267932,-0.005739,-0.963421,0.27124583705523814
1760736206.436737,0.006388,-0.135111,0.025745,0.990475,-0.000952,-0.002424,-0.002662,0.000896,-0.00034,0.000194,-0.267977,-0.005698,-0.963409,0.2712924720637948
1760736206.478719,0.00642,-0.135086,0.025689,0.99048,0.001092,-0.001817,-0.002046,0.001543,-0.00028,0.000477,-0.267931,-0.005777,-0.963421,0.2712448127682683
1760736206.479004,0.006442,-0.135095,0.025669,0.990479,0.003166,-0.002508,-0.003117,0.002532,-0.00024,0.000983,-0.267948,-0.005826,-0.963416,0.2712624517863655
1760736206.51368,0.006497,-0.135174,0.025619,0.990469,0.000488,-0.004525,-0.003896,-4.4e-05,-0.000657,0.001173,-0.268104,-0.005944,-0.963372,0.27142434369167534
1760736206.513974,0.006507,-0.135201,0.025587,0.990466,-0.000591,-0.004165,-0.00408,0.000944,0.000302,0.000865,-0.268157,-0.005972,-0.963357,0.27147937840216574
1760736206.545582,0.006453,-0.135262,0.025551,0.990459,-0.006726,-0.001437,-0.001535,-0.000323,-0.000621,0.000681,-0.268273,-0.005871,-0.963325,0.2715998772716837
1760736206.575969,0.00639,-0.13527,0.025548,0.990459,-0.008273,-0.002558,0.000452,-0.000418,-0.00059,0.001301,-0.268284,-0.005746,-0.963323,0.2716112127723032
1760736206.576308,0.006327,-0.135277,0.025545,0.990458,-0.009819,-0.003679,0.002438,-0.000513,-0.000559,0.00192,-0.268296,-0.005622,-0.96332,0.2716237739771493
1760736206.622662,0.006175,-0.135316,0.025579,0.990453,-0.007075,-0.002538,0.003742,0.000622,-0.000208,0.000106,-0.268364,-0.005309,-0.963303,0.2716943182631607
1760736206.623035,0.006144,-0.135322,0.025589,0.990452,-0.005682,-0.001702,0.002666,0.000214,-7.2e-05,3.7e-05,-0.268374,-0.005244,-0.963301,0.27170458370066564
1760736206.664641,0.006039,-0.135382,0.025643,0.990443,-0.006243,-0.003747,0.004824,3.2e-05,0.000445,0.000682,-0.268486,-0.005019,-0.963271,0.2718208476755579
1760736206.664963,0.005993,-0.135384,0.025664,0.990443,-0.006243,-0.003747,0.004824,-0.000185,-0.000208,0.000681,-0.268488,-0.004923,-0.963271,0.27182290725105684
1760736206.692693,0.00588,-0.135447,0.025718,0.990433,-0.007594,-0.002216,0.003504,0.000267,0.000449,0.000899,-0.268605,-0.004681,-0.963239,0.27194452678272263
1760736206.693142,0.005846,-0.135462,0.025721,0.990431,-0.008056,-0.003104,0.004477,0.00069,-0.000213,0.001497,-0.268632,-0.004612,-0.963232,0.27197250415553137
1760736206.734785,0.005685,-0.135514,0.025751,0.990424,-0.008187,-0.001469,0.001614,-0.000197,0.0003,0.001744,-0.268726,-0.004282,-0.963207,0.2720701739974205
1760736206.735097,0.005638,-0.135534,0.025754,0.990422,-0.007719,-0.003052,0.001765,0.000176,0.001246,0.001411,-0.268763,-0.004187,-0.963197,0.27210861248800433
1760736206.794177,0.005408,-0.135584,0.025745,0.990417,-0.01379,-0.001996,0.003578,-0.000362,-0.000225,0.001685,-0.268848,-0.003731,-0.963175,0.27219690153542253
1760736206.794593,0.005299,-0.135623,0.025741,0.990412,-0.014096,-0.002913,0.003577,-0.000136,0.000209,0.001208,-0.268917,-0.003514,-0.963157,0.2722684197790999
1760736206.794907,0.00519,-0.135661,0.025736,0.990407,-0.014402,-0.003831,0.003576,9.1e-05,0.000644,0.000731,-0.268986,-0.003297,-0.963138,0.2723401938027639
1760736206.826133,0.004972,-0.135725,0.025753,0.990399,-0.010929,-0.003392,0.003969,-0.000607,0.001326,-0.000479,-0.2691,-0.002857,-0.963108,0.2724584398846583
1760736206.855465,0.004904,-0.135743,0.025782,0.990396,-0.008666,-0.002921,0.004991,-0.00017,0.001667,0.000684,-0.269132,-0.002715,-0.963099,0.27249179191863737
1760736206.85591,0.004837,-0.135762,0.025811,0.990393,-0.006403,-0.00245,0.006014,0.000267,0.002009,0.001848,-0.269165,-0.002573,-0.963091,0.2725258322801879
1760736206.907936,0.004664,-0.135789,0.025875,0.990389,-0.008662,-0.00294,0.004699,-0.000447,0.001386,0.001052,-0.26921,-0.002211,-0.963079,0.2725726434858543
1760736206.908247,0.004572,-0.135816,0.025896,0.990385,-0.008886,-0.002861,0.001381,-0.000134,0.000997,0.000846,-0.269256,-0.002022,-0.963066,0.27262055679817937
1760736206.916184,0.00443,-0.135861,0.025872,0.99038,-0.00566,-0.003932,-0.002539,0.000244,0.000686,-0.000418,-0.269338,-0.001746,-0.963044,0.2727055974374688
1760736206.965914,0.004349,-0.135951,0.025811,0.99037,-0.005126,-0.002837,-0.00187,0.000198,0.002842,0.002687,-0.269508,-0.001597,-0.962997,0.27288204370194274
1760736206.987308,0.004317,-0.135998,0.025815,0.990363,0.001512,-0.003252,0.002333,-0.001017,0.000275,0.00222,-0.269597,-0.00153,-0.962972,0.272974517547943
1760736207.022302,0.004346,-0.136043,0.025875,0.990355,0.005218,-0.004587,0.003471,-0.001491,0.000471,0.000741,-0.269688,-0.001568,-0.962947,0.2730688715024226
1760736207.024387,0.004347,-0.136062,0.025942,0.990351,-0.00132,0.004369,0.005505,-0.000298,0.003501,-0.002266,-0.269724,-0.00155,-0.962937,0.2731062423367359
1760736207.077366,0.004234,-0.135896,0.026059,0.990371,-0.006026,0.012561,0.007876,-0.000561,0.002599,-0.000728,-0.269396,-0.001303,-0.963028,0.27276595240640383
1760736207.077683,0.004121,-0.135731,0.026176,0.990391,-0.010731,0.020753,0.010246,-0.000825,0.001696,0.00081,-0.269069,-0.001057,-0.96312,0.2724263384369963
1760736207.079479,0.003986,-0.135547,0.026245,0.990415,-0.01294,0.015669,0.003376,0.00094,-0.000591,0.00471,-0.268706,-0.000782,-0.963222,0.27204935118188794
1760736207.108221,0.00386,-0.135457,0.026217,0.990429,-0.011422,0.00762,-0.003734,0.002038,-0.001655,0.003907,-0.268524,-0.000543,-0.963273,0.2718603849287241
1760736207.116814,0.00375,-0.135411,0.026138,0.990438,-0.008256,0.004322,-0.007095,0.001891,0.000689,0.001694,-0.268428,-0.000349,-0.9633,0.2717606847232619
1760736207.146951,0.003703,-0.135357,0.026033,0.990448,-0.003625,0.006161,-0.007294,0.001683,0.003421,0.001503,-0.268322,-0.000288,-0.963329,0.2716507959264323
1760736207.210143,0.003684,-0.135335,0.026048,0.990451,-0.002774,0.004132,-0.001896,0.001096,0.002931,0.001053,-0.268277,-0.000247,-0.963342,0.27160396098749146
1760736207.210511,0.003665,-0.135312,0.026063,0.990453,-0.001923,0.002104,0.003501,0.000509,0.00244,0.000603,-0.268232,-0.000207,-0.963354,0.27155739379604066
1760736207.210762,0.003646,-0.13529,0.026078,0.990456,-0.001073,7.5e-05,0.008899,-7.7e-05,0.00195,0.000153,-0.268187,-0.000167,-0.963367,0.2715105579235658
1760736207.216908,0.003616,-0.135279,0.026171,0.990455,0.000362,-0.001112,0.011276,0.000229,0.001569,6.3e-05,-0.268165,-8.2e-05,-0.963373,0.2714877576764833
1760736207.24516,0.003606,-0.135283,0.026271,0.990452,0.001171,-0.0034,0.007358,9.2e-05,0.000633,2.5e-05,-0.268172,-3.5e-05,-0.963371,0.2714950383831599
1760736207.275347,0.003617,-0.135294,0.026332,0.990449,0.004457,-0.00357,0.004519,-0.000154,-0.002296,0.003452,-0.268194,-3.9e-05,-0.963365,0.2715178415353736
1760736207.294876,0.003672,-0.135374,0.02636,0.990437,0.00663,-0.010887,-0.001158,-0.000836,-0.002409,0.003016,-0.268353,-0.000137,-0.963321,0.2716828146364179
1760736207.295213,0.003733,-0.135448,0.026346,0.990427,0.005099,-0.005173,-0.001725,0.000168,-0.001128,-0.002062,-0.268499,-0.000257,-0.96328,0.2718344553280912
1760736207.324791,0.003772,-0.13546,0.026351,0.990425,0.003475,0.001828,-0.001503,-7e-05,-0.001278,-0.001644,-0.268524,-0.000334,-0.963273,0.2718604104762862
1760736207.383999,0.003772,-0.135454,0.026313,0.990427,0.000274,0.000488,-0.002926,-0.000108,-0.00091,-0.000821,-0.268513,-0.000343,-0.963276,0.2718490080521564
1760736207.384347,0.003771,-0.135448,0.026276,0.990429,-0.002926,-0.000852,-0.004349,-0.000146,-0.000542,1e-06,-0.268502,-0.000352,-0.963279,0.27183760560406833
1760736207.384666,0.00377,-0.135442,0.026239,0.990431,-0.006126,-0.002191,-0.005772,-0.000184,-0.000174,0.000824,-0.268491,-0.000361,-0.963282,0.2718262031320279
1760736207.412786,0.003724,-0.135466,0.026185,0.990429,-0.007259,-0.001889,-0.005511,-7.3e-05,-6.9e-05,0.000325,-0.268534,-0.000282,-0.96327,0.27187085324450655
1760736207.414804,0.003675,-0.135484,0.026133,0.990428,-0.004637,-0.002797,-0.00319,0.000178,0.001225,0.001369,-0.268566,-0.000198,-0.963261,0.27190410032562956
1760736207.443277,0.003656,-0.135491,0.026113,0.990428,-0.002215,-0.001853,-0.000427,0.000277,0.001736,0.001781,-0.268579,-0.000165,-0.963258,0.27191743008567243
1760736207.47508,0.00362,-0.13551,0.026139,0.990424,-0.002489,-0.00019,0.002959,0.000109,0.000681,0.000698,-0.268615,-8.7e-05,-0.963248,0.2719547958779955
1760736207.475784,0.00358,-0.135508,0.026173,0.990424,-0.004964,0.000368,0.003078,0.000181,0.001105,0.001104,-0.268609,2e-06,-0.963249,0.2719487488302766
1760736207.537526,0.003483,-0.135483,0.026183,0.990428,-0.007575,0.000624,0.001201,0.000503,0.000832,0.001003,-0.268555,0.000195,-0.963264,0.27189269891422085
1760736207.537856,0.003386,-0.135458,0.026193,0.990431,-0.010187,0.00088,-0.000677,0.000824,0.000558,0.000902,-0.268501,0.000388,-0.963279,0.2718366386118575
1760736207.538534,0.003275,-0.135465,0.02618,0.990431,-0.010223,-0.000238,-0.002053,0.002208,0.000921,0.00189,-0.268508,0.000606,-0.963277,0.2718438883714468
1760736207.567864,0.003172,-0.135489,0.026148,0.990429,-0.007994,-0.001421,-0.002206,0.001554,0.001014,0.001663,-0.268549,0.000803,-0.963266,0.2718862976354224
1760736207.575625,0.003099,-0.135533,0.026115,0.990424,-0.005867,-0.001407,-0.001235,0.000541,0.000856,0.001898,-0.268633,0.00094,-0.963242,0.2719736238803483
1760736207.594476,0.003042,-0.135564,0.026104,0.99042,-0.003332,-0.003767,-0.000479,0.000418,0.001602,0.00199,-0.268689,0.001052,-0.963226,0.27203183250441193
1760736207.625237,0.003005,-0.135597,0.026123,0.990415,-0.00327,-0.005274,0.004015,0.00077,0.002655,0.001186,-0.268752,0.001132,-0.963209,0.2720970591291888
1760736207.654139,0.002946,-0.135673,0.026165,0.990404,-0.003247,-0.005852,0.005741,0.000435,0.001866,0.001297,-0.268896,0.001265,-0.963169,0.2722464667914244
1760736207.655301,0.002878,-0.135737,0.026206,0.990394,-0.004369,-0.005696,0.006209,0.000707,0.002333,0.000496,-0.269017,0.001413,-0.963135,0.2723720973223553
1760736207.707494,0.002825,-0.135804,0.026251,0.990384,-0.003979,-0.004759,0.004231,8.6e-05,0.001556,0.000247,-0.269145,0.001534,-0.963098,0.27250528253116457
1760736207.707801,0.002772,-0.135872,0.026296,0.990374,-0.003588,-0.003823,0.002254,-0.000535,0.000779,-3e-06,-0.269274,0.001655,-0.963062,0.2726391577013391
1760736207.711954,0.002722,-0.135911,0.026316,0.990368,-0.002302,-0.003847,0.001697,-0.000131,0.000723,0.000423,-0.269346,0.001762,-0.963042,0.2727138326284043
1760736207.740401,0.002687,-0.135943,0.026313,0.990364,-0.003147,-0.000688,0.000251,2.2e-05,0.000702,0.000585,-0.269408,0.001833,-0.963024,0.27277835387333715
1760736207.771024,0.002642,-0.135996,0.026324,0.990356,-0.003273,-0.002289,0.000748,-0.000253,0.000349,0.001922,-0.269508,0.001927,-0.962996,0.2728821504800777
1760736207.772399,0.002638,-0.136049,0.026327,0.990349,0.000373,-0.004122,-0.000187,4.8e-05,0.000993,0.001574,-0.26961,0.001939,-0.962968,0.2729879159725799
1760736207.81244,0.002632,-0.136119,0.026316,0.990339,0.000857,-0.004512,-0.002441,-0.000185,-1.9e-05,0.001014,-0.269747,0.001951,-0.962929,0.27313035107669575
1760736207.814499,0.002642,-0.136178,0.026309,0.990331,3.3e-05,-0.00341,-0.002623,-0.000643,0.000185,0.00028,-0.269862,0.001932,-0.962897,0.27324973039690004
1760736207.84886,0.00263,-0.136219,0.026297,0.990326,-0.000394,-0.002047,-0.000117,-9.5e-05,0.000935,0.000962,-0.26994,0.001955,-0.962875,0.27333076095618186
1760736207.853338,0.002609,-0.136252,0.026282,0.990322,-0.000697,-0.002408,-4.5e-05,0.000684,0.001022,0.001314,-0.270003,0.001995,-0.962857,0.2733962590046252
1760736207.874379,0.002586,-0.136287,0.0263,0.990317,-0.000401,-0.001758,-0.000878,-0.000109,0.001874,0.001679,-0.27007,0.002047,-0.962838,0.2734658712001158
1760736207.903976,0.002561,-0.136318,0.026296,0.990313,-0.001713,-0.001046,0.000341,-0.000101,0.001168,0.001911,-0.27013,0.002097,-0.962822,0.27352793366674194
1760736207.932935,0.002521,-0.136343,0.026296,0.990309,-0.004513,-1e-05,0.000396,-0.00017,0.000471,0.001564,-0.270176,0.002177,-0.962808,0.273575957432648
1760736207.934806,0.002464,-0.136332,0.026301,0.990311,-0.004646,7e-05,0.002344,-0.000195,0.000215,0.001437,-0.270152,0.002292,-0.962815,0.27355088663599275
1760736207.978517,0.002382,-0.136355,0.026307,0.990308,-0.004429,1.2e-05,0.001324,-7.1e-05,7.8e-05,0.000523,-0.270192,0.002457,-0.962803,0.27359253123901195
1760736207.979846,0.002309,-0.136343,0.026313,0.990309,-0.004761,-0.0008,0.001819,-0.000232,-0.000367,0.000624,-0.270166,0.002603,-0.96281,0.2735655032686976
1760736208.009677,0.002237,-0.136347,0.02633,0.990309,-0.00447,-0.000303,0.00113,-0.00029,-0.000529,0.00066,-0.27017,0.002749,-0.962809,0.273569515057991
1760736208.011692,0.002181,-0.136362,0.026339,0.990306,-0.002781,0.000281,0.000208,0.000114,0.001131,0.001547,-0.270196,0.002864,-0.962801,0.27359661897450155
1760736208.04336,0.002115,-0.136343,0.026312,0.99031,-0.007014,0.001176,-0.001802,0.000187,0.00129,0.00143,-0.270155,0.002985,-0.962812,0.27355407249852803
1760736208.073644,0.002045,-0.13634,0.026284,0.990311,-0.007917,-0.000582,-0.002324,0.001463,0.001397,0.002028,-0.270146,0.003116,-0.962814,0.2735447547094494
1760736208.075753,0.001958,-0.136333,0.026233,0.990314,-0.006497,8.6e-05,-0.002308,7.7e-05,0.001582,0.0015,-0.270128,0.003274,-0.962819,0.2735259316025936
1760736208.112713,0.001894,-0.136368,0.026194,0.99031,-0.005792,-0.002566,-0.001224,0.000174,0.00145,0.001413,-0.270193,0.003394,-0.9628,0.27359353535743813
1760736208.116453,0.00184,-0.136394,0.026182,0.990307,-0.002586,-0.000729,0.003098,0.000283,0.00185,0.001824,-0.270241,0.003499,-0.962786,0.2736434311927314
1760736208.146931,0.001809,-0.136407,0.02626,0.990303,0.002625,-0.000505,0.011622,-0.001641,0.000285,0.002206,-0.270264,0.00358,-0.96278,0.2736671163784816
1760736208.180974,0.001835,-0.136412,0.026387,0.990299,0.004856,-0.001498,0.010195,-0.001491,0.000408,-0.001201,-0.270274,0.003566,-0.962777,0.27367756906753155
1760736208.183066,0.001836,-0.136364,0.026526,0.990302,-0.00114,0.012728,0.0143,0.001299,0.003332,-0.004852,-0.270181,0.003597,-0.962803,0.2735809719802187
1760736208.211566,0.001747,-0.136177,0.02668,0.990324,-0.00806,0.023113,0.014725,0.000526,0.001608,-0.001242,-0.269811,0.003806,-0.962906,0.2731966870048143
1760736208.212736,0.001623,-0.135931,0.026769,0.990355,-0.00885,0.019541,0.007254,-0.000252,0.000219,0.005461,-0.269326,0.004063,-0.963041,0.27269296678480975
1760736208.24357,0.001519,-0.135815,0.026783,0.990371,-0.008942,0.005861,-0.004766,0.002534,-0.001759,0.006959,-0.269096,0.004265,-0.963104,0.27245426291542474
1760736208.292662,0.001435,-0.135819,0.026692,0.990373,-0.008221,0.003905,-0.004992,0.001921,0.000251,0.004471,-0.2691,0.004408,-0.963102,0.2724584802931613
1760736208.292984,0.001351,-0.135824,0.026601,0.990375,-0.007501,0.001948,-0.005219,0.001308,0.002261,0.001983,-0.269104,0.00455,-0.9631,0.2724626932300079
1760736208.294412,0.001292,-0.13581,0.026561,0.990378,-0.003466,0.002882,-0.000189,0.000118,0.004715,0.002273,-0.269075,0.004656,-0.963108,0.27243247387158104
1760736208.324896,0.001262,-0.13578,0.026619,0.990381,-0.000777,0.002755,0.009139,-0.00083,0.005256,0.000919,-0.269015,0.00473,-0.963124,0.2723702845243847
1760736208.359885,0.001228,-0.135744,0.026758,0.990382,-0.001497,0.002295,0.013013,-0.00017,0.00367,-0.000691,-0.268943,0.004831,-0.963144,0.27229542364225046
1760736208.360226,0.001193,-0.135735,0.026937,0.990378,-0.001741,0.002138,0.014329,-0.000663,0.001441,-0.000336,-0.268923,0.004949,-0.963149,0.27227465470202633
1760736208.408629,0.001169,-0.13575,0.027038,0.990373,-0.001395,0.000238,0.008604,-0.000398,0.000866,-0.000202,-0.26895,0.005024,-0.963141,0.27230270700260106
1760736208.408952,0.001146,-0.135765,0.027139,0.990369,-0.001049,-0.001663,0.00288,-0.000133,0.00029,-6.8e-05,-0.268978,0.005099,-0.963133,0.27233172088092167
1760736208.410662,0.001153,-0.135776,0.027159,0.990367,-7.1e-05,-0.000646,-0.000856,0.000107,0.001015,0.000887,-0.268998,0.005092,-0.963127,0.2723526076194403
1760736208.439178,0.001183,-0.135819,0.027151,0.990361,0.004684,-0.004696,-0.004008,-0.001691,-0.002979,0.003931,-0.269085,0.005033,-0.963103,0.2724429401731354
1760736208.470101,0.001264,-0.13589,0.027093,0.990353,0.005378,-0.009642,-0.006886,-0.00056,-0.000986,0.001301,-0.269227,0.004859,-0.963065,0.2725901681788869
1760736208.471128,0.001318,-0.135949,0.027024,0.990346,0.003506,0.000151,-0.005921,-7e-06,0.001082,-0.001958,-0.269345,0.004738,-0.963032,0.2727128579416669
1760736208.514919,0.001338,-0.135909,0.026978,0.990353,0.001684,0.005739,-0.002147,-0.000427,0.002942,-0.001307,-0.269269,0.004683,-0.963054,0.2726338135843525
1760736208.517766,0.001333,-0.135866,0.027001,0.990358,-0.002627,0.001954,0.00163,-0.000345,0.001518,0.001867,-0.269184,0.004697,-0.963077,0.27254574156044914
1760736208.546648,0.001317,-0.135846,0.027021,0.990361,-0.002961,-0.000627,0.002157,0.000145,-8.4e-05,0.002091,-0.269145,0.004734,-0.963088,0.27250517134350594
1760736208.554372,0.001294,-0.13586,0.027017,0.990359,-0.001268,-0.002065,-0.001145,-0.000608,-0.001286,0.002058,-0.26917,0.004779,-0.963081,0.2725310730069027
1760736208.584452,0.001301,-0.135869,0.027002,0.990358,0.001912,-0.002427,-0.000873,-0.000261,9.7e-05,0.00205,-0.269189,0.004761,-0.963076,0.27255074159044074
1760736208.626403,0.001285,-0.135865,0.027015,0.990358,-0.000419,-0.000338,0.000884,-0.000109,0.000337,0.001497,-0.269179,0.004797,-0.963078,0.27254052425584635
1760736208.626707,0.001268,-0.13586,0.027029,0.990359,-0.00275,0.001751,0.002641,4.2e-05,0.000576,0.000943,-0.269169,0.004832,-0.963081,0.27253003873194037
1760736208.634325,0.001219,-0.135842,0.027073,0.99036,-0.00612,0.004284,0.005568,1.4e-05,0.000184,0.000301,-0.269131,0.004942,-0.963091,0.2724905993065857
1760736208.664279,0.001125,-0.135835,0.02713,0.990359,-0.00873,0.005603,0.008152,0.000551,-0.00062,-0.000264,-0.269111,0.005142,-0.963095,0.2724699789290425
1760736208.708592,0.001027,-0.135801,0.027192,0.990362,-0.005336,0.004556,0.008165,0.000282,-0.002131,0.001631,-0.26904,0.005352,-0.963114,0.2723961772550784
1760736208.70901,0.000928,-0.135767,0.027254,0.990365,-0.001941,0.003509,0.008178,1.3e-05,-0.003642,0.003526,-0.268969,0.005562,-0.963133,0.2723223633224219
1760736208.712684,0.0009,-0.135767,0.027346,0.990363,0.003552,-0.000297,0.009035,-0.001259,-0.006724,0.005992,-0.268965,0.005642,-0.963133,0.2723183855722855
1760736208.740516,0.000994,-0.135768,0.027488,0.990359,0.01403,-0.000407,0.010593,-0.000279,-0.012658,0.005783,-0.268972,0.005495,-0.963132,0.27232562517509973
1760736208.771025,0.001173,-0.135791,0.027642,0.990351,0.023007,-0.004353,0.012151,-0.000457,-0.016865,0.008171,-0.269027,0.005183,-0.963119,0.2723825600718582
1760736208.773138,0.001412,-0.135842,0.027844,0.990338,0.026329,-0.006766,0.015675,-0.000824,-0.022598,0.010537,-0.269138,0.004768,-0.96309,0.2724978462218796
1760736208.80197,0.001718,-0.135929,0.028094,0.990319,0.03862,-0.01027,0.021539,-0.002331,-0.029455,0.013731,-0.269322,0.004235,-0.963041,0.2726889150161818
1760736208.832446,0.002174,-0.13606,0.028384,0.990291,0.056631,-0.01811,0.020046,-0.002674,-0.036154,0.013508,-0.269601,0.003418,-0.962966,0.27297867933304487
1760736208.833735,0.002899,-0.136283,0.028703,0.99025,0.090417,-0.029947,0.022452,-0.004617,-0.040635,0.015223,-0.270074,0.002081,-0.962837,0.27346997294960146
1760736208.877613,0.003999,-0.136624,0.029127,0.990187,0.126883,-0.04432,0.027738,-0.006311,-0.043664,0.014688,-0.270799,3.8e-05,-0.962636,0.2742229236723788
1760736208.879519,0.005342,-0.137104,0.029669,0.990098,0.137984,-0.058875,0.043525,-0.005883,-0.045398,0.007388,-0.271811,-0.002443,-0.962348,0.2752742615592661
1760736208.911297,0.006715,-0.137659,0.030411,0.98999,0.136094,-0.057477,0.064819,-0.006807,-0.045062,0.004485,-0.272971,-0.004923,-0.96201,0.2764798793449495
1760736208.913549,0.008041,-0.138165,0.031319,0.989881,0.134027,-0.050452,0.084399,-0.008058,-0.047692,-0.000325,-0.274037,-0.007265,-0.961692,0.27758814764723194
1760736208.942775,0.009413,-0.138582,0.032412,0.989776,0.146721,-0.036436,0.095649,-0.010399,-0.04936,-0.000551,-0.274941,-0.00965,-0.961413,0.278528246473523
1760736208.973419,0.010969,-0.138879,0.033574,0.989679,0.174043,-0.031899,0.090788,-0.010479,-0.05058,0.002959,-0.275627,-0.012386,-0.961185,0.27924186985959487
1760736208.975727,0.012757,-0.139133,0.034717,0.989583,0.194752,-0.029617,0.086299,-0.008745,-0.049478,0.005185,-0.276254,-0.015588,-0.960958,0.27989430065233817
1760736209.013802,0.014744,-0.139381,0.035831,0.989481,0.20741,-0.028035,0.082966,-0.005258,-0.048602,0.006766,-0.276885,-0.019189,-0.960711,0.2805509688131011
1760736209.014373,0.016802,-0.139636,0.036923,0.989372,0.205008,-0.029648,0.079169,-0.002468,-0.046874,0.00842,-0.277545,-0.022935,-0.960439,0.2812377224081756
1760736209.041944,0.018795,-0.139917,0.03799,0.989256,0.200068,-0.038006,0.078794,-0.004044,-0.045573,0.011475,-0.278255,-0.026555,-0.96014,0.2819769057028412
1760736209.075062,0.020733,-0.140223,0.039052,0.989132,0.192938,-0.033366,0.082432,0.000112,-0.040522,0.011844,-0.279018,-0.030064,-0.959815,0.28277138520558903
1760736209.07536,0.022671,-0.140554,0.040136,0.988999,0.200133,-0.036148,0.082122,-0.000666,-0.038921,0.015129,-0.279835,-0.03356,-0.959461,0.2836223388798813
1760736209.107319,0.024669,-0.14084,0.041244,0.988865,0.217665,-0.035891,0.080376,0.000668,-0.036398,0.019689,-0.280579,-0.037171,-0.959111,0.28439726263019016
1760736209.113076,0.026901,-0.141126,0.042294,0.988722,0.233626,-0.041506,0.065874,0.002449,-0.031981,0.020043,-0.281345,-0.041258,-0.958719,0.28519553262192326
1760736209.143156,0.029128,-0.141391,0.04317,0.988583,0.207091,-0.030643,0.050302,0.003023,-0.021886,0.015218,-0.282068,-0.045383,-0.958321,0.2859487911794857
1760736209.201181,0.03038,-0.141439,0.043479,0.988525,0.151095,-0.018135,0.027001,0.002164,-0.01523,0.01094,-0.282275,-0.047764,-0.958144,0.28616464908181516
1760736209.20153,0.031632,-0.141488,0.043788,0.988465,0.095099,-0.005627,0.0037,0.001307,-0.008574,0.006656,-0.282482,-0.050144,-0.957961,0.2863805369025192
1760736209.201819,0.032884,-0.141536,0.044097,0.988404,0.039103,0.006881,-0.019601,0.00045,-0.001918,0.002365,-0.28269,-0.052523,-0.957772,0.286597415038026
1760736209.23058,0.033171,-0.141387,0.043939,0.988422,-0.018171,0.028445,-0.029413,0.002725,0.007505,0.001164,-0.282414,-0.053148,-0.957819,0.28630967480589337
1760736209.239277,0.032939,-0.141041,0.043557,0.988497,-0.044338,0.044179,-0.042274,0.002911,0.010296,0.003778,-0.281706,-0.052834,-0.958045,0.28557166541647006
1760736209.269832,0.032565,-0.140538,0.043037,0.988603,-0.048148,0.051623,-0.051548,0.002724,0.017469,0.005163,-0.280675,-0.052292,-0.958377,0.28449739659087514
1760736209.270165,0.032136,-0.139985,0.042494,0.988719,-0.047194,0.059336,-0.045988,0.003771,0.026473,0.008407,-0.279543,-0.051649,-0.958743,0.2833180935652002
1760736209.310461,0.031651,-0.139354,0.042078,0.988842,-0.051415,0.071392,-0.025326,0.003044,0.037225,0.009242,-0.278262,-0.050867,-0.959157,0.28198426445655755
1760736209.314664,0.031017,-0.138606,0.041956,0.988972,-0.071916,0.082175,0.010589,0.001573,0.037945,0.01702,-0.276758,-0.049719,-0.959653,0.28041855862441406
1760736209.352694,0.030047,-0.137827,0.042107,0.989105,-0.106192,0.080868,0.037621,-0.000823,0.031909,0.01864,-0.275181,-0.047833,-0.960202,0.2787779001567341
1760736209.353672,0.028624,-0.137139,0.042322,0.989233,-0.156177,0.071765,0.034047,-0.000653,0.028412,0.010613,-0.273748,-0.045023,-0.960747,0.2772877601591659
1760736209.38378,0.026709,-0.136527,0.042414,0.989368,-0.20184,0.086432,0.031384,0.002791,0.030077,-0.001914,-0.272416,-0.04127,-0.961294,0.2759031300323732
1760736209.39054,0.024384,-0.135697,0.042412,0.989542,-0.237331,0.098133,0.020559,-9.5e-05,0.027527,-0.006739,-0.270625,-0.036749,-0.961983,0.27404224436261315
1760736209.419054,0.021852,-0.13488,0.042273,0.989719,-0.24986,0.098004,0.011192,-0.000143,0.031959,-0.011256,-0.268834,-0.031851,-0.96266,0.27218219430499446
1760736209.452972,0.019258,-0.1341,0.042071,0.989887,-0.25416,0.088635,0.014174,-0.001105,0.044717,-0.015755,-0.267108,-0.026843,-0.963293,0.27039065194864736
1760736209.454615,0.016628,-0.133408,0.04197,0.990033,-0.257784,0.070857,0.026701,0.001723,0.045434,-0.008592,-0.265553,-0.021727,-0.963852,0.2687773147366256
1760736209.483275,0.01398,-0.13291,0.041958,0.990141,-0.257932,0.047612,0.034144,0.00544,0.043014,-0.006644,-0.264373,-0.01653,-0.964279,0.2675536899683571
1760736209.490645,0.011382,-0.132663,0.042013,0.990205,-0.243983,0.028247,0.036823,0.008234,0.039075,-0.005172,-0.263683,-0.011394,-0.964542,0.2668383724737671
1760736209.520178,0.008876,-0.132555,0.042062,0.990243,-0.239767,0.015456,0.036958,0.0077,0.035771,-0.006429,-0.263271,-0.006428,-0.964701,0.2664111258328692
1760736209.571108,0.006488,-0.132577,0.042087,0.990258,-0.231413,0.014719,0.035716,0.00588,0.036494,-0.01231,-0.263117,-0.00169,-0.964762,0.2662517473879775
1760736209.571415,0.004099,-0.132598,0.04211,0.990266,-0.22306,0.013982,0.034475,0.004057,0.037216,-0.018213,-0.262961,0.003048,-0.964802,0.2660898422522367
1760736209.573091,0.001855,-0.132516,0.04215,0.990283,-0.204142,0.025609,0.031964,0.002994,0.038143,-0.019322,-0.262613,0.007497,-0.964872,0.2657292895475944
1760736209.64274,-1.4e-05,-0.132133,0.042217,0.990333,-0.192685,0.03279,0.031613,0.003328,0.033929,-0.013884,-0.261709,0.011184,-0.965082,0.26479250085045464
1760736209.643079,-0.001883,-0.131749,0.042285,0.990379,-0.181228,0.039971,0.031263,0.003659,0.029715,-0.008461,-0.260803,0.014871,-0.965277,0.2638540259191988
1760736209.643383,-0.003751,-0.131364,0.042351,0.990422,-0.169771,0.047152,0.030913,0.003988,0.025501,-0.003052,-0.259895,0.018558,-0.965459,0.26291334487825013
1760736209.649606,-0.005503,-0.130942,0.042378,0.990469,-0.156416,0.047635,0.021957,0.004116,0.018953,-0.003537,-0.258921,0.021999,-0.965648,0.2619049273461665
1760736209.677868,-0.007089,-0.130536,0.042343,0.990514,-0.144549,0.04821,0.007301,0.001309,0.02159,-0.006419,-0.257995,0.025098,-0.96582,0.26094642405059065
1760736209.708535,-0.008549,-0.13013,0.042205,0.990561,-0.13662,0.043371,0.001553,0.003038,0.029153,-0.012396,-0.257083,0.027921,-0.965986,0.2600025062064819
1760736209.711342,-0.009893,-0.129767,0.042047,0.990603,-0.124719,0.043287,-0.000492,0.003846,0.034731,-0.013447,-0.256263,0.030512,-0.966125,0.25915421259550847
1760736209.740345,-0.011204,-0.129394,0.041951,0.990642,-0.12911,0.040144,0.007629,0.004176,0.032703,-0.007128,-0.255427,0.033055,-0.966263,0.2582893580420766
1760736209.77995,-0.012461,-0.129098,0.041875,0.990669,-0.117152,0.033635,0.007939,0.004189,0.030862,-0.006493,-0.254743,0.035502,-0.966357,0.2575818943457011
1760736209.780261,-0.013718,-0.128802,0.041799,0.990694,-0.105193,0.027127,0.008248,0.004202,0.02902,-0.005864,-0.254059,0.037949,-0.966444,0.2568746417756534
1760736209.822572,-0.014656,-0.128583,0.041727,0.990712,-0.085597,0.027207,0.005539,0.004427,0.028385,-0.007849,-0.253554,0.039771,-0.966503,0.2563526368381342
1760736209.822913,-0.015594,-0.128364,0.041656,0.990729,-0.066001,0.027287,0.002829,0.004652,0.02775,-0.009839,-0.253049,0.041593,-0.966559,0.25583052548089263
1760736209.829303,-0.01628,-0.1282,0.041587,0.990742,-0.050879,0.019312,-8.7e-05,0.003868,0.030112,-0.005179,-0.252673,0.042921,-0.966599,0.2554419731652716
1760736209.859603,-0.016826,-0.12796,0.041568,0.990765,-0.047235,0.025264,0.00426,0.003777,0.026708,-0.007661,-0.252158,0.043979,-0.966686,0.2549097194138152
1760736209.909294,-0.017405,-0.127695,0.041607,0.990788,-0.049187,0.026206,0.008716,0.00346,0.024778,-0.00643,-0.25159,0.045115,-0.966782,0.254322706619582
1760736209.909571,-0.017984,-0.12743,0.041647,0.99081,-0.051139,0.027148,0.013172,0.003142,0.022848,-0.0052,-0.251021,0.046252,-0.966876,0.25373488457756255
1760736209.913489,-0.018538,-0.127163,0.041725,0.99083,-0.039407,0.024431,0.012942,0.002765,0.016296,-0.000865,-0.250448,0.047348,-0.966972,0.25314286105058587
1760736209.941687,-0.018925,-0.12697,0.041837,0.990843,-0.023083,0.01586,0.012127,0.00292,0.011346,0.001407,-0.25003,0.048128,-0.967041,0.25271129065459647
1760736209.97212,-0.019241,-0.126837,0.04194,0.99085,-0.023978,0.010922,0.013579,0.002688,0.00863,0.000319,-0.24974,0.04877,-0.967084,0.2524117319849822
1760736209.974254,-0.019542,-0.126719,0.04204,0.990855,-0.021498,0.007799,0.013321,0.001151,0.005684,-0.000579,-0.249477,0.049381,-0.967121,0.25214010394593783
1760736210.002747,-0.019826,-0.126713,0.042163,0.990845,-0.021459,0.006141,0.014329,0.001024,0.003826,0.000411,-0.249433,0.049974,-0.967102,0.25209463982411595
1760736210.004737,-0.020084,-0.126674,0.042291,0.990839,-0.02088,0.002165,0.01372,-0.000151,-0.000769,0.003951,-0.249327,0.050515,-0.967101,0.25198523800793143
1760736210.034117,-0.020301,-0.126604,0.042376,0.99084,-0.023301,0.002158,0.010956,-0.000208,-0.004115,0.003765,-0.249168,0.050959,-0.967119,0.25182097797820685
1760736210.072847,-0.020568,-0.126602,0.042455,0.990831,-0.021806,-0.001955,0.009775,-0.001242,-0.003916,0.001869,-0.249137,0.051509,-0.967098,0.25178893106888683
1760736210.074007,-0.020812,-0.126627,0.042501,0.990821,-0.023112,-0.003436,0.0082,-0.002306,-0.001867,0.000684,-0.24916,0.052005,-0.967065,0.2518128116449153
1760736210.10512,-0.021105,-0.126634,0.042545,0.990812,-0.031712,0.001332,0.008551,-0.001684,-0.003446,0.001217,-0.249145,0.052597,-0.967037,0.2517972852656923
1760736210.107661,-0.021427,-0.126626,0.042562,0.990805,-0.032601,-0.001434,0.005623,-0.001176,-0.005057,0.001451,-0.249099,0.05324,-0.967014,0.2517497040816365
1760736210.128154,-0.02174,-0.126655,0.042572,0.990794,-0.027729,-0.001381,0.005761,-0.002434,-0.004358,0.001795,-0.249127,0.053864,-0.966972,0.2517786726489001
1760736210.158201,-0.022031,-0.126704,0.042606,0.99078,-0.026216,-0.000383,0.004707,-0.001798,-0.004512,0.000905,-0.249194,0.054452,-0.966922,0.2518478052497883
1760736210.208034,-0.022296,-0.126724,0.042614,0.990771,-0.02403,0.000353,0.004864,-0.001725,-0.004529,0.000803,-0.249209,0.05498,-0.966888,0.25186335736651205
1760736210.208388,-0.022561,-0.126745,0.042621,0.990762,-0.021845,0.001088,0.005021,-0.001653,-0.004547,0.000701,-0.249225,0.055509,-0.966854,0.25187979161492974
1760736210.208815,-0.022763,-0.126721,0.042636,0.99076,-0.020886,0.002231,0.003963,-0.000589,-0.001405,0.000685,-0.24916,0.055911,-0.966847,0.25181282102512
1760736210.239772,-0.02301,-0.126701,0.042671,0.990755,-0.028088,0.003749,0.010406,-0.000376,-0.000776,0.000682,-0.249097,0.056407,-0.966835,0.25174762655324473
1760736210.270045,-0.023301,-0.126671,0.042743,0.990749,-0.029334,0.005159,0.012782,-0.000242,-9.8e-05,0.00123,-0.249007,0.057,-0.966823,0.25165479909074884
1760736210.272,-0.023562,-0.126621,0.042818,0.990746,-0.021536,0.002757,0.010109,-4.7e-05,-1.9e-05,0.000239,-0.248882,0.057532,-0.966824,0.2515256551467204
1760736210.301036,-0.023782,-0.12662,0.042918,0.990737,-0.021833,0.002892,0.011539,0.001234,0.004283,0.001153,-0.248854,0.057991,-0.966803,0.25149694056850974
1760736210.307558,-0.024011,-0.126581,0.042984,0.990734,-0.020505,0.004818,0.007403,0.001204,0.00344,-0.000328,-0.248753,0.058458,-0.966801,0.25139262847045457
1760736210.33773,-0.024263,-0.126559,0.043029,0.990728,-0.024606,0.004272,0.010529,0.001088,0.006266,0.000925,-0.248683,0.058967,-0.966788,0.25132038151952324
1760736210.379183,-0.02456,-0.126528,0.043105,0.990722,-0.03015,0.005921,0.011242,0.001487,0.006424,0.001126,-0.248591,0.059573,-0.966775,0.2512252768485369
1760736210.379509,-0.024858,-0.126497,0.043181,0.990715,-0.035694,0.00757,0.011954,0.001886,0.006582,0.001327,-0.248498,0.060179,-0.966761,0.2511293575479994
1760736210.409767,-0.025254,-0.126425,0.043255,0.990711,-0.035943,0.005237,0.012338,0.000904,0.004583,0.003588,-0.248316,0.060976,-0.966758,0.2509414247031536
1760736210.411137,-0.025637,-0.126422,0.043281,0.9907,-0.036734,0.000296,0.007938,0.00069,0.006611,0.003879,-0.248273,0.06174,-0.966721,0.25089692401882097
1760736210.441054,-0.026,-0.126473,0.043294,0.990684,-0.035938,-0.004495,0.004034,-0.001301,0.00584,0.003115,-0.248338,0.062468,-0.966657,0.25096415791153204
1760736210.44804,-0.026414,-0.126482,0.043341,0.99067,-0.041255,0.00962,0.0144,-0.001143,0.005533,-0.000386,-0.248313,0.063299,-0.966609,0.2509384393075649
1760736210.478384,-0.026866,-0.126376,0.043473,0.990665,-0.033943,0.011776,0.017532,-0.003749,0.000955,0.000541,-0.248057,0.064218,-0.966615,0.25067395112798685
1760736210.538757,-0.027184,-0.126209,0.043582,0.990673,-0.034413,0.017693,0.015559,-0.002259,0.001915,-0.00095,-0.247694,0.064862,-0.966665,0.2502992790406524
1760736210.539087,-0.027503,-0.126042,0.043692,0.990681,-0.034882,0.023609,0.013586,-0.000769,0.002875,-0.002442,-0.247331,0.065506,-0.966714,0.24992474940234313
1760736210.539516,-0.027821,-0.125875,0.043802,0.990688,-0.035351,0.029526,0.011614,0.00072,0.003835,-0.003935,-0.246968,0.066151,-0.966763,0.24955009843667048
1760736210.567741,-0.028176,-0.125615,0.043823,0.99071,-0.030482,0.021623,0.0055,-0.000133,0.001331,0.002175,-0.246427,0.066838,-0.966854,0.24899179382824077
1760736210.56979,-0.028505,-0.125461,0.043838,0.99072,-0.026924,0.012096,0.002966,-8.6e-05,0.002058,0.004343,-0.246094,0.067481,-0.966894,0.248648249965411
1760736210.599163,-0.028775,-0.125378,0.043816,0.990723,-0.023464,0.008338,0.001923,-9.4e-05,0.000971,0.002423,-0.245907,0.068004,-0.966905,0.2484553051859822
1760736210.60684,-0.029095,-0.12532,0.043807,0.990722,-0.032789,0.011016,0.004756,0.000351,0.001255,0.000395,-0.245765,0.068631,-0.966897,0.24830876098277552
1760736210.636779,-0.029441,-0.125224,0.043803,0.990724,-0.036033,0.010807,0.003809,0.000152,0.00078,0.000637,-0.245545,0.069306,-0.966904,0.24808198944185217
1760736210.667379,-0.029811,-0.125153,0.043831,0.99072,-0.032641,0.009461,0.009033,0.000713,0.000504,0.001954,-0.245371,0.07004,-0.966896,0.24790232228238457
1760736210.667773,-0.030123,-0.12508,0.043889,0.990718,-0.026122,0.006024,0.00976,-6.5e-05,0.000136,0.001456,-0.245194,0.070667,-0.966895,0.2477198132321774
1760736210.698092,-0.030351,-0.125073,0.043943,0.990709,-0.016659,0.002673,0.006579,-0.00138,0.00048,-0.001192,-0.245154,0.07113,-0.966871,0.24767860102977382
1760736210.746031,-0.030518,-0.125059,0.044018,0.990702,-0.014534,-0.000731,0.009243,-0.000737,0.000924,0.000609,-0.245106,0.071479,-0.966858,0.2476289514628562
1760736210.746348,-0.030686,-0.125046,0.044092,0.990696,-0.012408,-0.004135,0.011907,-9.5e-05,0.001368,0.00241,-0.245059,0.071828,-0.966844,0.24758048505422933
1760736210.747999,-0.030792,-0.125134,0.044214,0.990676,-0.005888,-0.009192,0.008721,0.000374,0.00255,0.002683,-0.245211,0.072076,-0.966787,0.2477372696239605
1760736210.812335,-0.030856,-0.125207,0.0443,0.990661,-0.005439,-0.004202,0.008185,-0.000168,0.001833,0.001689,-0.245341,0.072229,-0.966742,0.24787151236577623
1760736210.812589,-0.03092,-0.12528,0.044387,0.990646,-0.00499,0.000788,0.007648,-0.000709,0.001115,0.000694,-0.245471,0.072383,-0.966698,0.24800548598972014
1760736210.812889,-0.031006,-0.125268,0.044467,0.990641,-0.006853,0.00215,0.009643,-0.002064,0.003309,0.00204,-0.245433,0.072572,-0.966693,0.24796640391594735
1760736210.828138,-0.031134,-0.125233,0.044581,0.990636,-0.009607,0.001918,0.013175,-0.000978,0.001319,0.000739,-0.245344,0.07285,-0.966695,0.2478745190569817
1760736210.877738,-0.031267,-0.125197,0.044724,0.99063,-0.008368,0.002769,0.012324,-0.000921,0.000163,0.00166,-0.245252,0.073147,-0.966696,0.24777959946954492
1760736210.878052,-0.0314,-0.125162,0.044868,0.990624,-0.007129,0.00362,0.011473,-0.000865,-0.000992,0.00258,-0.24516,0.073443,-0.966697,0.24768467630201463
1760736210.907076,-0.031498,-0.125173,0.044971,0.990615,-0.00521,0.001896,0.008082,-0.000396,-0.000671,0.000935,-0.245163,0.073662,-0.966679,0.24768791156622066
1760736210.911355,-0.031611,-0.125177,0.045039,0.990607,-0.009749,0.000744,0.002078,4.7e-05,0.00051,0.000716,-0.245156,0.073904,-0.966663,0.24768052112772904
1760736210.940537,-0.031727,-0.125136,0.045043,0.990609,-0.011774,-0.000195,-0.002547,-0.000691,0.000932,0.000551,-0.245063,0.074131,-0.966669,0.24758464380850323
1760736210.944282,-0.03187,-0.125145,0.044992,0.990605,-0.014664,0.001832,-0.00488,-0.000604,0.000927,-0.000659,-0.24507,0.074402,-0.966646,0.24759196292395705
1760736210.978544,-0.032037,-0.125148,0.044905,0.990604,-0.016633,0.002625,-0.00545,-0.001094,0.003001,0.00084,-0.245066,0.074712,-0.966623,0.2475878624366102
1760736210.985558,-0.032203,-0.12508,0.04483,0.99061,-0.015348,0.007319,-0.005516,0.001098,0.003152,-0.001686,-0.244924,0.075015,-0.966636,0.2474412824650602
1760736211.015809,-0.032307,-0.125028,0.044751,0.990617,-0.005545,0.00468,-0.003882,0.000582,0.00471,0.000263,-0.244817,0.075198,-0.966649,0.24733089495920418
1760736211.045919,-0.032359,-0.124964,0.044715,0.990625,-0.0013,0.004617,0.00047,0.002651,0.003545,0.001511,-0.244691,0.075288,-0.966674,0.24720091742317568
1760736211.04623,-0.032369,-0.124988,0.044679,0.990623,0.001061,-0.002434,-0.002082,0.001283,0.003945,0.001385,-0.24474,0.0753,-0.96666,0.24725161520635044
1760736211.074074,-0.032372,-0.12503,0.04469,0.990617,-8e-05,-0.001499,-0.001447,0.001731,0.002502,0.0003,-0.24482,0.075311,-0.966639,0.24733409724593997
1760736211.112704,-0.032377,-0.125105,0.044674,0.990608,-0.00014,-0.006585,-0.001104,0.0007,0.003339,0.003063,-0.244968,0.075324,-0.966601,0.24748662116035108
1760736211.116001,-0.03238,-0.125153,0.044687,0.990601,-0.002519,-0.006373,0.00351,0.000584,0.003434,0.003374,-0.24506,0.075336,-0.966577,0.24758145103520246
1760736211.14758,-0.032447,-0.125251,0.044739,0.990585,-0.003155,-0.006228,0.006452,0.000368,0.002215,0.002191,-0.245241,0.07549,-0.966519,0.24776816669368046
1760736211.149521,-0.032496,-0.12529,0.044795,0.990576,-0.003125,-0.002334,0.002839,0.000243,0.001467,0.001452,-0.245307,0.075604,-0.966493,0.24783632941199424
1760736211.184694,-0.032561,-0.125276,0.044854,0.990572,-0.002437,-0.00346,0.006401,-0.000488,0.002279,0.001847,-0.24527,0.075747,-0.966491,0.24779821077716857
1760736211.186166,-0.032651,-0.125291,0.044947,0.990563,-0.006234,-0.003596,0.007435,-0.000769,0.001124,0.000661,-0.245283,0.075948,-0.966472,0.2478116024882351
1760736211.204189,-0.032746,-0.125341,0.04501,0.990551,-0.007685,-0.00194,0.006032,0.000129,0.001353,0.001295,-0.245366,0.076156,-0.966435,0.2478971120358172
1760736211.233715,-0.032816,-0.125329,0.045071,0.990548,-0.003141,0.000616,0.005227,-0.001437,0.001929,0.001077,-0.24533,0.076309,-0.966432,0.2478599942956016
1760736211.26274,-0.032865,-0.125356,0.045127,0.99054,0.00099,-0.000374,0.00324,-2.9e-05,0.000803,0.000719,-0.245374,0.076422,-0.966412,0.24790535719760234
1760736211.264808,-0.032825,-0.125385,0.045193,0.990535,0.004528,-0.000199,0.007347,0.000151,0.002673,-0.001315,-0.245429,0.076362,-0.966402,0.24796228204426632
1760736211.298855,-0.032839,-0.125349,0.04525,0.990536,0.001436,0.006269,0.006871,-2.4e-05,0.002903,-0.000254,-0.245353,0.076399,-0.966419,0.24788373175949152
1760736211.330214,-0.03279,-0.125299,0.045333,0.99054,0.004093,0.003199,0.004902,-0.000422,0.003048,0.002333,-0.245255,0.076319,-0.96645,0.2477826909736686
1760736211.331394,-0.032784,-0.125302,0.045388,0.990537,0.001841,0.001094,0.004445,0.00047,0.002086,0.000821,-0.245257,0.076322,-0.966449,0.24778481646197809
1760736211.362561,-0.032757,-0.125283,0.045457,0.990538,0.001445,-0.000348,0.003151,5.5e-05,0.001498,0.002575,-0.245217,0.076284,-0.966462,0.24774359320175252
1760736211.364283,-0.032733,-0.125295,0.045493,0.990535,0.003275,-0.002424,-0.000439,0.000654,-0.000102,0.001602,-0.24524,0.076246,-0.96646,0.24776711291160938
1760736211.409947,-0.032712,-0.125343,0.045493,0.99053,0.0024,-0.006282,-0.001985,-0.000249,-0.000582,0.000751,-0.245335,0.076208,-0.966438,0.2478653232021942
1760736211.411021,-0.032693,-0.125434,0.045505,0.990519,-0.001833,-0.00519,0.002375,0.000193,0.001235,0.00132,-0.245513,0.076182,-0.966395,0.2480489013940905
1760736211.44095,-0.032737,-0.125462,0.045509,0.990513,-0.008552,-0.002967,-0.000995,0.000669,-0.000133,0.001505,-0.245563,0.076272,-0.966375,0.24810052861815957
1760736211.442993,-0.032831,-0.125506,0.045516,0.990504,-0.009419,-0.002683,0.001306,0.000152,0.000633,0.000739,-0.24564,0.076463,-0.966341,0.2481797990946337
1760736211.471607,-0.032953,-0.12558,0.045508,0.990491,-0.012216,-0.005828,-0.000106,0.000971,0.0004,0.000832,-0.245772,0.076709,-0.966288,0.24831595869002762
1760736211.484302,-0.033077,-0.125655,0.045499,0.990478,-0.01172,-0.010352,-0.001189,-0.000633,-0.000429,0.003244,-0.245907,0.076959,-0.966233,0.24845542252999947
1760736211.518452,-0.033203,-0.125772,0.045506,0.990459,-0.012903,-0.012973,0.0013,-0.002346,0.000739,0.003746,-0.246122,0.077219,-0.966158,0.24867712017713714
1760736211.520871,-0.033308,-0.125898,0.045494,0.99044,-0.007849,-0.006624,0.007183,-0.000479,0.002213,0.000716,-0.246357,0.077435,-0.966081,0.2489195407529981
1760736211.551083,-0.033406,-0.125998,0.045566,0.99042,-0.009676,-0.005548,0.009808,-0.000835,-0.000985,0.002613,-0.246537,0.077655,-0.966017,0.24910537274984548
1760736211.582072,-0.033497,-0.126028,0.045711,0.990407,-0.007003,-0.002281,0.011545,-0.003306,-0.002414,0.003067,-0.246576,0.077873,-0.96599,0.2491454914075828
1760736211.584165,-0.03361,-0.126041,0.045829,0.990396,-0.010333,-0.000947,0.011047,-0.005282,-0.002565,0.002148,-0.246581,0.078127,-0.965968,0.2491507032890133
1760736211.613123,-0.033763,-0.125957,0.045951,0.990396,-0.014354,0.01011,0.00855,-0.002212,-0.000854,-0.001492,-0.246392,0.078454,-0.96599,0.24895561852456308
1760736211.643816,-0.033938,-0.12577,0.04601,0.99041,-0.019105,0.026061,0.006961,-0.003045,-0.001138,-0.002468,-0.246006,0.078799,-0.96606,0.24855743230963104
1760736211.644874,-0.03418,-0.125503,0.046006,0.990436,-0.020053,0.028433,0.002677,-0.001973,0.00126,0.001554,-0.24546,0.079255,-0.966161,0.24799430204441686
1760736211.674179,-0.034408,-0.125322,0.046012,0.990451,-0.01946,0.01156,0.000752,-0.002328,0.001494,0.004344,-0.245084,0.079692,-0.966221,0.24760633367025411
1760736211.708839,-0.034549,-0.12522,0.046009,0.990459,-0.013753,0.008984,-0.001051,0.000499,0.000557,0.003594,-0.244871,0.079961,-0.966253,0.24738658559067006
1760736211.70999,-0.03469,-0.125156,0.045971,0.990464,-0.011993,0.006968,-0.002136,0.000879,0.003943,0.002762,-0.244735,0.080225,-0.966265,0.24724645738841242
1760736211.747316,-0.034829,-0.12505,0.045915,0.990475,-0.015249,0.009411,-0.001456,0.001095,0.003996,0.001414,-0.24452,0.080477,-0.966299,0.24702459241714989
1760736211.748243,-0.035013,-0.124974,0.045914,0.990478,-0.015427,0.00809,0.008126,0.000749,0.006234,0.001883,-0.244352,0.080835,-0.966311,0.24685148668120854
1760736211.776995,-0.035241,-0.124894,0.046004,0.990476,-0.018433,0.009041,0.016068,0.001203,0.004729,0.002047,-0.244166,0.081301,-0.966319,0.24665965753261063
1760736211.778874,-0.035398,-0.124805,0.046126,0.990476,-0.012345,0.007015,0.011875,0.000567,0.002066,0.000718,-0.243968,0.081636,-0.966341,0.2464554260444225
1760736211.809655,-0.035534,-0.124766,0.046245,0.990471,-0.005485,0.00188,0.010319,0.000347,0.002067,0.002019,-0.243867,0.08193,-0.966342,0.2463511861489321
1760736211.891842,-0.035589,-0.124815,0.046302,0.99046,-0.005493,-0.000672,0.008686,6.1e-05,0.0018,0.001647,-0.243953,0.082057,-0.966309,0.24643999000023828
1760736211.892163,-0.035643,-0.124864,0.046359,0.990449,-0.005501,-0.003224,0.007052,-0.000225,0.001532,0.001275,-0.244039,0.082183,-0.966277,0.24652856725010452
1760736211.892877,-0.035752,-0.124963,0.046473,0.990427,-0.005516,-0.008328,0.003785,-0.000797,0.000997,0.000531,-0.24421,0.082435,-0.966212,0.24670498270523303
1760736211.89249,-0.035698,-0.124914,0.046416,0.990438,-0.005508,-0.005776,0.005418,-0.000511,0.001265,0.000903,-0.244125,0.082309,-0.966245,0.24661714028562856
1760736211.934983,-0.03583,-0.124919,0.046534,0.990427,-0.008582,0.001393,0.004215,-0.001312,0.000804,0.000111,-0.244112,0.0826,-0.966223,0.24660384457479195
1760736211.93531,-0.035908,-0.124875,0.046596,0.990427,-0.011648,0.011114,0.004644,-0.001826,0.000612,-0.000309,-0.244014,0.082765,-0.966233,0.24650294290947705
1760736211.964173,-0.036069,-0.124815,0.046629,0.990427,-0.01565,0.006681,0.00705,-0.001602,0.001986,0.001051,-0.243876,0.083087,-0.966241,0.2463604508133689
1760736212.008565,-0.036253,-0.124748,0.046682,0.990426,-0.012457,0.002694,0.004948,-9.5e-05,0.000757,0.002046,-0.243722,0.083459,-0.966247,0.24620185296677113
1760736212.010644,-0.036373,-0.12471,0.046605,0.99043,-0.010645,0.004289,-0.00257,-0.000287,0.001187,0.000943,-0.243642,0.083675,-0.966249,0.2461192436909927
1760736212.039037,-0.03646,-0.124694,0.046515,0.990433,-0.008228,0.003849,-0.005327,-0.000805,0.003371,0.00058,-0.24361,0.083822,-0.966244,0.24608632898512364
1760736212.040196,-0.036538,-0.124646,0.046438,0.99044,-0.007005,0.005084,-0.003957,7.6e-05,0.004811,0.000557,-0.243516,0.083954,-0.966257,0.24598922457460082
1760736212.077185,-0.036623,-0.124579,0.046378,0.990448,-0.007624,0.006837,2e-06,0.00065,0.004749,0.001309,-0.243382,0.084102,-0.966277,0.24585128398794381
1760736212.079218,-0.036722,-0.124504,0.046364,0.990455,-0.010102,0.007698,0.002342,0.000437,0.003049,0.001338,-0.243226,0.084288,-0.9663,0.24569046858219978
1760736212.13338,-0.03684,-0.124463,0.046384,0.990455,-0.010649,0.004469,0.002862,0.000405,0.002719,0.001576,-0.243131,0.084524,-0.966304,0.24559235731350118
1760736212.133684,-0.036959,-0.124421,0.046405,0.990455,-0.011196,0.00124,0.003382,0.000373,0.002389,0.001815,-0.243036,0.08476,-0.966307,0.24549447447810915
1760736212.162075,-0.037077,-0.124398,0.046421,0.990452,-0.009287,-0.000347,0.003265,0.000463,0.002192,0.001242,-0.242979,0.084996,-0.966301,0.24543561739478073
1760736212.164612,-0.037183,-0.124393,0.04645,0.990447,-0.008555,-0.001063,0.00459,0.000266,0.002913,0.000881,-0.242955,0.085212,-0.966288,0.24541087866577457
1760736212.1927,-0.037295,-0.124392,0.046497,0.990441,-0.010634,0.001614,0.00685,0.000797,0.00343,0.000436,-0.242938,0.085444,-0.966271,0.24539354413811967
1760736212.222564,-0.03742,-0.124391,0.046562,0.990434,-0.011173,0.00129,0.008121,0.001253,0.003248,0.001336,-0.242917,0.085708,-0.966253,0.24537187112775652
1760736212.224608,-0.037563,-0.124364,0.046638,0.990428,-0.014233,0.002064,0.00827,0.000789,0.002646,0.001699,-0.242843,0.086007,-0.966245,0.2452955948146754
1760736212.253975,-0.037731,-0.12438,0.046701,0.990417,-0.015152,2.3e-05,0.006413,-0.00043,0.002311,0.00137,-0.242851,0.086356,-0.966212,0.24530380799978627
1760736212.309818,-0.037897,-0.124386,0.046743,0.990408,-0.015155,0.000247,0.005811,-0.000717,0.002412,0.001033,-0.242843,0.086696,-0.966184,0.2452954553523381
1760736212.310203,-0.038063,-0.124392,0.046785,0.990398,-0.015158,0.00047,0.00521,-0.001003,0.002513,0.000696,-0.242834,0.087035,-0.966156,0.24528612529947164
1760736212.310876,-0.038218,-0.124413,0.04683,0.990388,-0.012354,-0.000357,0.005392,-0.000783,0.002441,0.001308,-0.242854,0.087353,-0.966122,0.24530680858822532
1760736212.322405,-0.03834,-0.12441,0.046892,0.99038,-0.009929,-0.000369,0.00634,-0.000685,0.001666,0.00021,-0.242831,0.087609,-0.966104,0.2452832441154898
1760736212.350485,-0.038435,-0.124422,0.046962,0.990372,-0.006206,0.000273,0.005726,-0.000637,0.001287,-0.000327,-0.242837,0.087815,-0.966084,0.24528937823621472
1760736212.381455,-0.038491,-0.124406,0.047025,0.990369,-0.004057,0.001224,0.004727,-0.001856,0.001891,-0.001178,-0.242795,0.08794,-0.966083,0.2452461274554343
1760736212.382368,-0.038552,-0.124388,0.047086,0.990366,-0.00534,0.000968,0.003919,-0.001138,0.002493,0.000752,-0.242749,0.088076,-0.966082,0.24519874999629837
1760736212.414849,-0.038619,-0.124389,0.047128,0.990361,-0.005022,0.000529,0.003686,-0.001013,0.002111,0.001689,-0.24274,0.088219,-0.966072,0.24518928242792687
1760736212.424339,-0.038687,-0.124379,0.047179,0.990357,-0.003258,0.001281,0.002329,-0.000432,0.001378,0.00117,-0.24271,0.088363,-0.966066,0.24515844876723086
1760736212.477308,-0.038747,-0.124366,0.047229,0.990354,-0.002433,0.000937,0.003394,-0.00048,0.001717,0.001416,-0.242672,0.088493,-0.966064,0.2451191923242484
1760736212.477632,-0.038807,-0.124352,0.047279,0.990351,-0.001608,0.000593,0.004459,-0.000528,0.002056,0.001662,-0.242635,0.088623,-0.966061,0.24508114344208343
1760736212.479251,-0.03887,-0.124336,0.047334,0.990348,-0.001525,0.001282,0.008505,-0.000551,0.00222,0.001781,-0.242592,0.088761,-0.966059,0.24503685041722933
1760736212.519881,-0.038922,-0.124307,0.047427,0.990345,-0.003716,0.001603,0.010842,-0.000147,0.001783,0.001565,-0.242522,0.088883,-0.966066,0.24496454072410265
1760736212.522146,-0.039004,-0.124282,0.047551,0.990339,-0.006791,0.001677,0.010936,-0.000961,0.001532,0.000945,-0.242453,0.089074,-0.966066,0.24489335226748823
1760736212.55231,-0.039101,-0.124258,0.04769,0.990332,-0.007201,0.002111,0.011854,-0.000819,0.001611,0.001083,-0.242383,0.089298,-0.966062,0.24482141396945167
1760736212.610138,-0.039202,-0.124228,0.047777,0.990327,-0.007905,0.000947,0.008764,-0.000642,0.001341,0.00188,-0.242307,0.089516,-0.966061,0.2447430522011653
1760736212.610466,-0.039303,-0.124199,0.047864,0.990323,-0.008609,-0.000216,0.005674,-0.000466,0.001072,0.002678,-0.242231,0.089734,-0.96606,0.24466467867566694
1760736212.611908,-0.039391,-0.124235,0.047908,0.990312,-0.003971,-0.00395,0.000733,-0.000572,0.002147,0.003336,-0.242288,0.089923,-0.966028,0.24472346047690496
1760736212.64035,-0.039437,-0.124294,0.047919,0.990303,-0.002928,-0.005346,-0.000368,-0.000882,0.002749,0.002143,-0.242398,0.090021,-0.965991,0.24483690707421132
1760736212.642357,-0.039473,-0.124361,0.047924,0.990293,-0.002029,-0.006911,0.001411,-0.00072,0.002552,0.002012,-0.242524,0.0901,-0.965953,0.2449665429906219
1760736212.671545,-0.039477,-0.124405,0.047972,0.990285,-0.000784,-0.004115,0.004409,-0.001641,0.000882,0.001507,-0.242604,0.090122,-0.96593,0.24504921299316226
1760736212.705227,-0.039479,-0.124453,0.048031,0.990276,-0.000191,-0.002784,0.005837,-0.00343,0.000153,0.002894,-0.242693,0.090145,-0.965906,0.24514083301714382
1760736212.70547,-0.039515,-0.124466,0.048091,0.99027,-0.005724,0.002855,0.005373,-0.002128,0.001772,0.00121,-0.242709,0.090232,-0.965894,0.24515729140894024
1760736212.745902,-0.039625,-0.124372,0.048148,0.990274,-0.011427,0.013458,0.006495,-0.001601,0.002957,-0.001467,-0.24251,0.090456,-0.965923,0.24495217079445827
1760736212.747114,-0.03978,-0.124178,0.048198,0.99029,-0.015435,0.01815,0.007582,-0.002928,0.003656,0.000337,-0.242111,0.090758,-0.965994,0.24454109852760136
1760736212.777169,-0.039961,-0.124002,0.048242,0.990303,-0.015255,0.015832,0.006423,-0.00107,0.004309,0.003404,-0.241744,0.09111,-0.966053,0.24416280860661568
1760736212.77927,-0.040119,-0.123891,0.04827,0.990309,-0.014058,0.010517,0.004037,-0.000494,0.002794,0.003047,-0.241507,0.091421,-0.966083,0.2439185467336246
1760736212.80799,-0.040269,-0.123806,0.048263,0.990314,-0.011011,0.006418,-0.001817,0.000262,0.001918,0.002961,-0.241326,0.091708,-0.966101,0.24373203673445112
1760736212.837713,-0.040378,-0.123743,0.048206,0.99032,-0.009576,0.004488,-0.004573,5.1e-05,0.002854,0.002394,-0.241196,0.091905,-0.966115,0.24359801815727966
1760736212.855854,-0.04047,-0.123713,0.048136,0.990323,-0.01044,0.003317,-0.003861,0.000406,0.003919,0.00068,-0.241136,0.092066,-0.966114,0.24353634897845997
1760736212.909232,-0.04055,-0.123671,0.048113,0.990326,-0.009043,0.003645,-0.0024,0.000498,0.003405,0.000329,-0.241047,0.092216,-0.966122,0.24344462076183138
1760736212.9097,-0.04063,-0.123629,0.048089,0.99033,-0.007647,0.003973,-0.00094,0.000589,0.002892,-2.2e-05,-0.240958,0.092365,-0.96613,0.24335291001530523
1760736212.910043,-0.040711,-0.123586,0.048066,0.990333,-0.006251,0.004301,0.000521,0.00068,0.002379,-0.000373,-0.24087,0.092515,-0.966138,0.24326214146890432
1760736212.966114,-0.040777,-0.123572,0.048062,0.990332,-0.005464,0.001235,0.001179,0.000834,0.003448,0.001186,-0.240835,0.092643,-0.966134,0.24322619011893795
1760736212.966535,-0.040842,-0.123558,0.048058,0.990331,-0.004678,-0.001832,0.001837,0.000987,0.004517,0.002745,-0.240801,0.092771,-0.966131,0.24319096556178485
1760736212.968114,-0.040886,-0.123572,0.048076,0.990327,-0.00321,-0.002848,0.003043,0.000182,0.002574,0.003832,-0.240822,0.092863,-0.966117,0.24321258479637542
1760736213.011154,-0.040917,-0.123618,0.048113,0.990318,-0.002008,-0.00137,0.002456,0.000305,0.001867,0.001777,-0.240905,0.092937,-0.966089,0.24329814830989435
1760736213.011465,-0.040948,-0.123664,0.04815,0.990309,-0.000805,0.000108,0.001869,0.000427,0.00116,-0.000278,-0.240988,0.093012,-0.966061,0.24338368731197904
1760736213.040156,-0.040962,-0.123662,0.048158,0.990308,-0.001234,0.001121,0.00143,-0.001219,0.0014,-1.2e-05,-0.240981,0.09304,-0.96606,0.2433764867254186
1760736213.04138,-0.041007,-0.123665,0.048146,0.990307,-0.003651,0.000761,-0.000581,-0.000993,0.001181,0.000279,-0.240984,0.093128,-0.966051,0.2433795232347464
1760736213.078398,-0.041068,-0.123672,0.048124,0.990304,-0.007563,-0.000832,-0.001112,-0.000744,0.000244,0.001232,-0.240993,0.093243,-0.966037,0.2433889553017722
1760736213.08056,-0.041127,-0.123726,0.048077,0.990297,-0.006293,-0.003375,-0.003065,-0.000157,0.001231,0.001673,-0.241097,0.093352,-0.966001,0.24349600042631728
1760736213.109189,-0.041182,-0.123783,0.048038,0.99029,-0.004348,-0.002635,-0.001575,3e-05,0.002895,0.001424,-0.241206,0.093457,-0.965963,0.24360846778667142
1760736213.140327,-0.041221,-0.12383,0.04804,0.990282,-0.004033,-0.002896,0.001327,0.000115,0.00366,0.001309,-0.241293,0.093538,-0.965934,0.24369797912363328
1760736213.141911,-0.041278,-0.123861,0.048053,0.990275,-0.00242,-0.001923,0.002828,-0.000259,0.00296,0.001626,-0.241346,0.093656,-0.965909,0.2437526712047084
1760736213.172305,-0.041316,-0.123872,0.04807,0.990272,-0.000979,-0.000126,0.002032,-0.000316,0.002603,0.001029,-0.241361,0.093737,-0.965898,0.24376798271506686
1760736213.209649,-0.041317,-0.123867,0.0481,0.990271,0.000739,-2.6e-05,0.002016,-0.000218,0.002717,0.000612,-0.24135,0.093746,-0.9659,0.24375661763332104
1760736213.209972,-0.041318,-0.123863,0.048129,0.99027,0.002457,7.4e-05,0.002001,-0.000121,0.002831,0.000195,-0.241338,0.093755,-0.965902,0.24374428209464605
1760736213.220337,-0.041304,-0.123845,0.048152,0.990272,0.00076,-0.000646,0.001651,0.000246,0.002376,0.000462,-0.241302,0.093732,-0.965913,0.24370724011193232
1760736213.250453,-0.041298,-0.123837,0.048162,0.990272,-0.000259,-0.002481,-2e-06,0.000361,0.002584,0.001704,-0.241286,0.093721,-0.965918,0.24369076839716627
1760736213.279999,-0.041311,-0.123873,0.048167,0.990267,-0.000367,-0.002632,-0.001498,0.000967,0.002096,0.00123,-0.241355,0.093751,-0.965898,0.243761833687919
1760736213.280284,-0.041319,-0.123909,0.048149,0.990263,-0.00142,-0.002365,-0.002346,0.000686,0.002459,0.002054,-0.241427,0.093765,-0.965879,0.24383594293568972
1760736213.309718,-0.041339,-0.12399,0.04815,0.990252,0.000767,-0.003935,-0.001466,0.000297,0.003511,0.002341,-0.241582,0.093812,-0.965835,0.2439958342654063
1760736213.319156,-0.041323,-0.124062,0.048167,0.990243,0.001647,-0.003808,0.001185,0.000592,0.004632,0.00097,-0.241722,0.093792,-0.965802,0.24414008945566806
1760736213.349039,-0.041302,-0.124107,0.048222,0.990235,0.003072,-0.002494,0.005556,0.001114,0.005005,0.00119,-0.241807,0.093766,-0.965783,0.24422774746618153
1760736213.378389,-0.041303,-0.124128,0.048287,0.99023,0.0002,-0.002338,0.007003,-0.000322,0.00372,0.001492,-0.241842,0.093787,-0.965772,0.24426386550300377
1760736213.379429,-0.041317,-0.124163,0.048366,0.990221,0.000386,-0.002756,0.004809,-0.000966,0.003144,0.001627,-0.241902,0.093836,-0.965753,0.24432551218521878
1760736213.412407,-0.04131,-0.124212,0.048429,0.990212,0.000111,-0.003632,0.00458,-0.001887,0.002292,0.000845,-0.24199,0.093842,-0.96573,0.24441629594543793
1760736213.419293,-0.041308,-0.124257,0.048466,0.990204,0.00172,-0.002984,0.003141,-0.000706,0.00461,-0.00017,-0.242076,0.093852,-0.965707,0.24450504557660874
1760736213.448484,-0.041269,-0.124293,0.048479,0.990201,0.003559,-0.003875,0.000398,-0.001734,0.004949,0.000339,-0.242148,0.09378,-0.965697,0.2445789987840561
1760736213.52252,-0.0412,-0.124392,0.048413,0.990195,0.0046,-0.005041,-0.005934,-0.002991,0.011521,-0.008154,-0.242356,0.093637,-0.965658,0.24479355269741046
1760736213.522853,-0.041132,-0.124492,0.048347,0.990188,0.005641,-0.006207,-0.012266,-0.004249,0.018094,-0.016647,-0.242564,0.093494,-0.96562,0.24500786065408114
1760736213.523169,-0.041063,-0.124592,0.048281,0.990182,0.006682,-0.007373,-0.018599,-0.005507,0.024667,-0.02514,-0.242773,0.093351,-0.965581,0.2452233753641624
1760736213.525087,-0.04091,-0.124686,0.048091,0.990185,0.020956,-0.005977,-0.030322,-0.004471,0.03274,-0.028131,-0.24299,0.093009,-0.96556,0.2454469333560005
1760736213.553846,-0.040522,-0.124749,0.047761,0.990209,0.046962,-0.008656,-0.047972,-0.003141,0.040087,-0.027158,-0.243184,0.092166,-0.965591,0.24564717289959864
1760736213.556121,-0.039891,-0.124866,0.047285,0.990243,0.064158,-0.017452,-0.063122,-0.001044,0.049759,-0.026425,-0.243523,0.090811,-0.965634,0.24599666721266203
1760736213.585549,-0.039158,-0.125044,0.046674,0.990279,0.062357,-0.019011,-0.072129,0.001274,0.062544,-0.027885,-0.244001,0.089228,-0.965661,0.24648951214611345
1760736213.616172,-0.038604,-0.125186,0.046024,0.990313,0.025556,-0.010968,-0.067891,0.003731,0.076683,-0.027158,-0.244393,0.087983,-0.965676,0.2468937764581274
1760736213.617232,-0.038731,-0.12531,0.04536,0.990323,-0.072117,7e-05,-0.055293,0.00656,0.091321,-0.030931,-0.244682,0.088081,-0.965594,0.24719179604075397
1760736213.681087,-0.040961,-0.125063,0.04498,0.990282,-0.182479,0.010315,-0.018914,0.006451,0.082025,-0.008715,-0.24401,0.092377,-0.965363,0.24649868936399832
1760736213.681564,-0.043191,-0.124814,0.0446,0.990236,-0.292841,0.02056,0.017465,0.006342,0.07273,0.013481,-0.243339,0.096671,-0.965112,0.2458068083103486
1760736213.682155,-0.046315,-0.124756,0.044418,0.99011,-0.331711,-0.005231,0.030705,0.005274,0.06655,0.021527,-0.242929,0.102796,-0.964582,0.24538417141124882
1760736213.711473,-0.049636,-0.125107,0.044327,0.989909,-0.329363,-0.045142,0.033717,0.008943,0.063726,0.02131,-0.243288,0.109361,-0.963769,0.2457543233626478
1760736213.715561,-0.052949,-0.125826,0.044273,0.989648,-0.326214,-0.07722,0.035293,0.012237,0.056979,0.017783,-0.244359,0.115943,-0.962728,0.24685868582909742
1760736213.749925,-0.056116,-0.126769,0.044232,0.989356,-0.293204,-0.082629,0.026894,0.012509,0.034173,0.011901,-0.245875,0.122252,-0.961561,0.24842234889411297
1760736213.811762,-0.057267,-0.12758,0.043906,0.9892,-0.186229,-0.081054,-0.000191,0.009624,0.034228,0.006113,-0.247376,0.124499,-0.960888,0.24997106272725375
1760736213.812088,-0.058417,-0.128391,0.043579,0.989042,-0.079255,-0.07948,-0.027276,0.006739,0.034286,0.000317,-0.248877,0.126745,-0.960206,0.2515206480866198
1760736213.812624,-0.059568,-0.129202,0.043253,0.988882,0.027719,-0.077905,-0.054361,0.003854,0.034345,-0.005487,-0.250378,0.128988,-0.959517,0.2530706818548988
1760736213.842001,-0.059274,-0.129903,0.042832,0.988826,0.093234,-0.064612,-0.058023,0.005997,0.041573,-0.010223,-0.251826,0.128352,-0.959223,0.2545666869881393
1760736213.857766,-0.058319,-0.130445,0.042502,0.988826,0.111759,-0.047402,-0.044006,0.007404,0.048677,-0.010774,-0.253018,0.126423,-0.959166,0.25579845340406304
1760736213.858019,-0.057339,-0.130768,0.042349,0.988847,0.087201,-0.027556,-0.01954,0.008191,0.053318,-0.005443,-0.253762,0.124474,-0.959224,0.25656764365746854
1760736213.886405,-0.056777,-0.130929,0.042424,0.988855,0.034225,-0.009121,0.013628,0.008704,0.053976,0.003758,-0.254123,0.123397,-0.959268,0.2569407731302443
1760736213.916466,-0.056865,-0.130939,0.042751,0.988835,-0.033196,-0.000572,0.045796,0.009882,0.048062,0.014575,-0.254093,0.123655,-0.959243,0.2569096853522395
1760736213.918898,-0.057724,-0.130884,0.04327,0.98877,-0.113062,0.002498,0.076638,0.008817,0.041453,0.020348,-0.253833,0.125478,-0.959075,0.2566408942944895
1760736214.006052,-0.059504,-0.130848,0.044124,0.988631,-0.127434,-0.01026,0.088251,0.006228,0.019899,0.025876,-0.25347,0.129203,-0.958676,0.2562657061485919
1760736214.006341,-0.061285,-0.130812,0.044977,0.988489,-0.141807,-0.023019,0.099864,0.003632,-0.001652,0.031392,-0.253099,0.132926,-0.958265,0.25588218684427066
1760736214.008083,-0.062339,-0.131191,0.045676,0.98834,-0.080745,-0.042171,0.073151,0.003325,-0.011818,0.026473,-0.253628,0.135209,-0.957805,0.2564291845226616
1760736214.008405,-0.063393,-0.13157,0.046374,0.98819,-0.019683,-0.061323,0.046438,0.003014,-0.021985,0.021548,-0.254153,0.137492,-0.957341,0.25697190015540083
1760736214.036483,-0.063427,-0.132171,0.046785,0.988089,0.056767,-0.070214,0.012965,0.001267,-0.027408,0.016034,-0.255258,0.13771,-0.957016,0.25811449184357727
1760736214.038542,-0.062529,-0.132807,0.046941,0.988053,0.129145,-0.071267,-0.018637,0.000104,-0.033353,0.012616,-0.25657,0.136033,-0.956905,0.25947168614002447
1760736214.110231,-0.060388,-0.133344,0.046707,0.988125,0.160887,-0.066371,-0.032866,-0.001358,-0.035861,0.011667,-0.25788,0.131798,-0.957145,0.260827428854592
1760736214.110935,-0.058246,-0.133881,0.046474,0.988192,0.192629,-0.061475,-0.047095,-0.002825,-0.038366,0.010699,-0.259186,0.127561,-0.957367,0.26217920429771896
1760736214.111476,-0.056104,-0.134417,0.046241,0.988254,0.224371,-0.056579,-0.061324,-0.004296,-0.040869,0.009711,-0.260488,0.123322,-0.957569,0.2635275231485834
1760736214.118131,-0.053782,-0.134906,0.045919,0.988332,0.221116,-0.051639,-0.065783,-0.004101,-0.041743,0.004902,-0.261724,0.118699,-0.957816,0.2648079821731759
1760736214.148563,-0.051612,-0.135369,0.045559,0.988401,0.189734,-0.045572,-0.063392,-0.003588,-0.036253,0.001041,-0.262894,0.114361,-0.958023,0.26602052360652045
1760736214.188832,-0.050154,-0.135797,0.045281,0.98843,0.144202,-0.051531,-0.048928,-0.005462,-0.032001,0.003743,-0.26391,0.111446,-0.958087,0.2670737657931101
1760736214.18917,-0.048697,-0.136226,0.045004,0.988456,0.09867,-0.057489,-0.034465,-0.007339,-0.027747,0.006436,-0.264923,0.108531,-0.958142,0.26812416907703424
1760736214.217744,-0.04769,-0.136812,0.044843,0.988432,0.073129,-0.067982,-0.025865,-0.006299,-0.027456,0.00128,-0.266181,0.106548,-0.958016,0.26942899187822045
1760736214.219784,-0.046843,-0.13747,0.044708,0.988387,0.079161,-0.071754,-0.023972,-0.006492,-0.027135,0.0032,-0.267559,0.10489,-0.957815,0.27085887091762295
1760736214.248976,-0.04581,-0.138212,0.044602,0.988337,0.111501,-0.079803,-0.029895,-0.005755,-0.031161,0.005563,-0.269113,0.102879,-0.957598,0.27247196116322936
1760736214.299686,-0.044037,-0.138938,0.044523,0.988319,0.16416,-0.078748,-0.034667,-0.005463,-0.034131,0.008639,-0.270709,0.099416,-0.957514,0.2741294603594016
1760736214.300018,-0.042264,-0.139664,0.044444,0.988298,0.216819,-0.077694,-0.03944,-0.005173,-0.0371,0.0117,-0.272302,0.095952,-0.957416,0.2757845493868647
1760736214.301517,-0.039841,-0.140342,0.044393,0.988305,0.268032,-0.074209,-0.042782,-0.005383,-0.039496,0.012539,-0.273864,0.09121,-0.957434,0.2774082577861196
1760736214.332221,-0.036896,-0.140966,0.044396,0.98833,0.306908,-0.070163,-0.043152,-0.007105,-0.03992,0.012604,-0.275366,0.085448,-0.957534,0.2789705213402927
1760736214.333512,-0.033611,-0.141535,0.044464,0.988363,0.330996,-0.07046,-0.037739,-0.00782,-0.044,0.012407,-0.276788,0.079026,-0.957676,0.2804498967704488
1760736214.363723,-0.03019,-0.142097,0.04459,0.988387,0.334683,-0.065088,-0.033407,-0.007128,-0.046402,0.008749,-0.278202,0.072352,-0.957794,0.28192162870255194
1760736214.41481,-0.026907,-0.142577,0.044772,0.988404,0.317169,-0.063594,-0.029385,-0.008207,-0.050408,0.006258,-0.279437,0.065956,-0.957896,0.28320770423169767
1760736214.415146,-0.023622,-0.143054,0.044954,0.988411,0.299656,-0.0621,-0.025363,-0.009289,-0.054413,0.003724,-0.280669,0.059559,-0.957955,0.2844910340366395
1760736214.415391,-0.020649,-0.143542,0.045102,0.9884,0.269724,-0.062606,-0.023852,-0.009153,-0.05227,0.003027,-0.281891,0.053767,-0.957939,0.28576438695249873
1760736214.442803,-0.018072,-0.144054,0.045259,0.988369,0.22589,-0.064455,-0.016269,-0.009552,-0.043812,0.001876,-0.283121,0.048764,-0.957844,0.2870466172648423
1760736214.475187,-0.015968,-0.144608,0.045489,0.988314,0.184255,-0.06593,0.001639,-0.010082,-0.037245,0.002463,-0.284383,0.044718,-0.957667,0.28836287220555124
1760736214.476289,-0.014239,-0.145268,0.045836,0.988228,0.156386,-0.073305,0.017501,-0.010488,-0.035008,0.003106,-0.28581,0.041461,-0.957389,0.2898515704944313
1760736214.507324,-0.012745,-0.146001,0.046322,0.988117,0.14197,-0.08041,0.035334,-0.0108,-0.03231,0.004093,-0.287351,0.038714,-0.957043,0.29145994481560544
1760736214.524616,-0.011357,-0.146799,0.04695,0.987986,0.139408,-0.086042,0.0481,-0.009762,-0.026335,0.003569,-0.289004,0.036226,-0.956642,0.2931863459719807
1760736214.552713,-0.009965,-0.147604,0.047706,0.987845,0.142097,-0.087744,0.062172,-0.007068,-0.018555,0.004291,-0.290669,0.033772,-0.956227,0.29492609001582126
1760736214.554639,-0.008598,-0.148411,0.048569,0.987695,0.134703,-0.088246,0.065555,-0.005985,-0.015053,0.001581,-0.292335,0.031401,-0.9558,0.29666768064824484
1760736214.585099,-0.007373,-0.149205,0.04941,0.987543,0.119361,-0.08163,0.063783,-0.005188,-0.013361,0.002686,-0.293965,0.029306,-0.955367,0.2983724373784774
1760736214.616312,-0.006317,-0.149928,0.050146,0.987404,0.099915,-0.073648,0.047957,-0.005523,-0.016921,0.002377,-0.295445,0.027512,-0.954964,0.2999211391855332
1760736214.620459,-0.005433,-0.150577,0.050677,0.987284,0.081489,-0.065118,0.026166,-0.007281,-0.021328,0.002156,-0.296773,0.02599,-0.954594,0.3013117233673008
1760736214.63673,-0.004707,-0.151121,0.050909,0.987192,0.060312,-0.051754,-0.000386,-0.007046,-0.021567,-0.000431,-0.297893,0.02468,-0.95428,0.3024847356614982
1760736214.666903,-0.004128,-0.151539,0.050893,0.987132,0.045489,-0.038998,-0.01724,-0.007727,-0.019174,0.000464,-0.298757,0.023573,-0.954038,0.3033899123502125
1760736214.747338,-0.003714,-0.151745,0.05077,0.987108,0.041715,-0.034476,-0.011776,-0.006239,-0.015278,0.000955,-0.299201,0.022741,-0.953919,0.30385520812659317
1760736214.747711,-0.003301,-0.151952,0.050647,0.987084,0.037941,-0.029954,-0.006311,-0.004752,-0.011383,0.001445,-0.299644,0.021909,-0.953799,0.3043196335803424
1760736214.74813,-0.002888,-0.152159,0.050525,0.98706,0.034167,-0.025432,-0.000847,-0.003265,-0.007487,0.001934,-0.300087,0.021078,-0.953679,0.3047838364907643
1760736214.74844,-0.002475,-0.152365,0.050402,0.987035,0.030393,-0.02091,0.004617,-0.001778,-0.003592,0.002422,-0.30053,0.020245,-0.953557,0.3052484364226207
1760736214.776568,-0.002137,-0.152594,0.050413,0.987,0.024051,-0.023838,0.0036,-0.001548,-0.003333,0.002187,-0.301005,0.019604,-0.953421,0.3057463660902404
1760736214.777669,-0.001932,-0.152861,0.050461,0.986957,0.013089,-0.026619,0.004582,2.4e-05,-0.001479,0.004402,-0.30154,0.01924,-0.953259,0.3063075387637128
1760736214.817225,-0.001868,-0.153179,0.050497,0.986906,-0.00583,-0.034498,0.002167,0.001212,0.003095,0.005579,-0.302158,0.019158,-0.953066,0.3069554560358857
1760736214.819432,-0.001979,-0.153536,0.050494,0.98685,-0.018895,-0.037352,0.005554,0.000564,0.004296,0.007622,-0.302834,0.019411,-0.952846,0.30766477262184566
1760736214.856133,-0.0022,-0.153952,0.050533,0.986783,-0.024324,-0.041907,0.010422,0.000638,0.004195,0.005428,-0.303611,0.019901,-0.952588,0.3084803412535801
1760736214.858158,-0.002422,-0.154437,0.050596,0.986703,-0.023122,-0.047434,0.008594,0.002136,0.006395,0.000352,-0.304522,0.020408,-0.952286,0.30943675261623366
1760736214.886375,-0.002642,-0.154893,0.050646,0.986629,-0.023747,-0.039165,0.011589,0.005004,0.012823,-0.00411,-0.305376,0.020904,-0.952002,0.31033338050160564
1760736214.916541,-0.002893,-0.155191,0.050743,0.986576,-0.025254,-0.022886,0.015363,0.005607,0.014034,-0.005364,-0.305922,0.021457,-0.951815,0.31090663358085285
1760736214.920602,-0.003151,-0.155407,0.050879,0.986534,-0.018825,-0.020021,0.015386,0.003427,0.011632,0.002702,-0.306308,0.022032,-0.951677,0.31131231598283865
1760736214.949021,-0.003304,-0.155659,0.050941,0.986491,-0.00857,-0.033428,0.002398,0.001788,0.008267,0.005717,-0.306775,0.022379,-0.951519,0.3118027723507342
1760736214.951023,-0.003329,-0.156066,0.050898,0.986429,0.000335,-0.043773,-0.011954,0.001703,0.00684,0.003414,-0.307557,0.022454,-0.951265,0.3126244230429426
1760736215.008742,-0.00322,-0.156483,0.050733,0.986372,0.004799,-0.043569,-0.014989,0.001276,0.009467,0.001596,-0.308373,0.02223,-0.951006,0.3134821242662711
1760736215.009093,-0.003112,-0.1569,0.050568,0.986314,0.009263,-0.043365,-0.018024,0.000849,0.012095,-0.000223,-0.30919,0.022006,-0.950746,0.3143410696187856
1760736215.04814,-0.00299,-0.157217,0.05044,0.986271,0.012263,-0.034396,-0.012888,-0.000613,0.011737,-0.001611,-0.309816,0.021758,-0.950548,0.3149993635018685
1760736215.048439,-0.002868,-0.157535,0.050313,0.986227,0.015264,-0.025427,-0.007752,-0.002075,0.011379,-0.002999,-0.310442,0.021509,-0.950349,0.315657955018516
1760736215.083578,-0.002623,-0.157647,0.050321,0.986209,0.02635,-0.016136,-0.005903,-0.002011,0.009469,-0.002073,-0.310682,0.02104,-0.950281,0.3159104605897833
1760736215.083917,-0.002379,-0.157759,0.050328,0.986191,0.037437,-0.006846,-0.004054,-0.001947,0.007559,-0.001147,-0.310921,0.020571,-0.950213,0.3161619442868101
1760736215.112789,-0.002001,-0.157743,0.050353,0.986194,0.042868,-0.000202,-0.005108,-0.001547,0.006271,-0.000277,-0.310928,0.019832,-0.950226,0.31616944006055125
1760736215.116933,-0.001594,-0.157723,0.050351,0.986198,0.040306,0.00281,-0.008894,-1.8e-05,0.006731,0.001544,-0.310931,0.019026,-0.950242,0.3161724405482866
1760736215.145283,-0.001203,-0.157656,0.05032,0.986211,0.036919,0.005651,-0.008055,0.000369,0.005557,0.004479,-0.310843,0.01824,-0.950286,0.31607991530474644
1760736215.190068,-0.000855,-0.157654,0.050256,0.986214,0.031724,0.00322,-0.011676,-0.000699,0.004834,0.001424,-0.310876,0.017533,-0.950289,0.3161144839011406
1760736215.190442,-0.000507,-0.157653,0.050192,0.986218,0.026529,0.000788,-0.015298,-0.001766,0.004111,-0.001631,-0.310909,0.016826,-0.950291,0.316149199846334
1760736215.191138,-0.000263,-0.157608,0.050069,0.986232,0.015586,0.006672,-0.012946,-0.001698,0.003698,-0.001757,-0.31085,0.016301,-0.950319,0.3160872643283757
1760736215.222059,-0.000173,-0.157528,0.049969,0.98625,0.004679,0.009237,-0.009599,-0.001735,0.004037,-0.000487,-0.310706,0.016084,-0.95037,0.31593569634869634
1760736215.234158,-0.000152,-0.157429,0.049891,0.986269,0.000777,0.010155,-0.008401,-0.001992,0.002362,0.001822,-0.31052,0.016009,-0.950432,0.31574003457616795
1760736215.264228,-0.000113,-0.157344,0.049815,0.986287,0.005483,0.005627,-0.005893,-0.00233,0.002318,0.001226,-0.310362,0.015899,-0.950485,0.315573962963448
1760736215.309932,3.6e-05,-0.157266,0.049761,0.986302,0.011829,0.005161,-0.006757,-0.002313,0.00285,0.001634,-0.310227,0.01558,-0.950535,0.31543175272986795
1760736215.310433,0.000186,-0.157187,0.049707,0.986317,0.018174,0.004695,-0.007621,-0.002297,0.003382,0.002041,-0.310091,0.01526,-0.950584,0.31528887364175945
1760736215.313007,0.000409,-0.157093,0.049663,0.986334,0.020983,0.00623,-0.007924,-0.002365,0.003123,0.001743,-0.309934,0.014796,-0.950643,0.3151235939001066
1760736215.34343,0.000642,-0.157014,0.049613,0.986349,0.0242,0.005081,-0.008513,-0.001931,0.002878,0.002624,-0.309804,0.014313,-0.950693,0.31498679207856756
1760736215.372885,0.000892,-0.156944,0.049548,0.986363,0.023021,0.008295,-0.011986,-0.002832,0.003145,0.001844,-0.309696,0.013792,-0.950736,0.31487317106536244
1760736215.374772,0.001121,-0.156832,0.049457,0.986385,0.019803,0.009406,-0.012719,-0.001101,0.005403,0.001777,-0.309505,0.013302,-0.950805,0.3146723566454024
1760736215.413342,0.001324,-0.156725,0.049348,0.986408,0.01644,0.011491,-0.01249,-0.001691,0.006589,0.001551,-0.30932,0.012856,-0.950871,0.3144779137138318
1760736215.414522,0.001489,-0.156604,0.049222,0.986433,0.015546,0.012126,-0.014194,-0.002605,0.005331,0.002362,-0.309105,0.012479,-0.950946,0.31425181411679415
1760736215.445022,0.001641,-0.156477,0.049092,0.986459,0.014461,0.013561,-0.015881,-0.000763,0.005605,0.003397,-0.308878,0.012126,-0.951024,0.31401323396783604
1760736215.454256,0.001834,-0.15634,0.048944,0.986488,0.019217,0.008522,-0.017236,-0.001328,0.006101,0.00355,-0.308635,0.011686,-0.951109,0.3137575649663534
1760736215.484303,0.002039,-0.15623,0.048802,0.986512,0.020524,0.010725,-0.01611,-0.000884,0.007496,0.00226,-0.308444,0.011225,-0.951176,0.31355692587947953
1760736215.524799,0.002254,-0.156104,0.048711,0.986536,0.018585,0.011335,-0.012331,-0.000641,0.007444,0.002867,-0.308224,0.010761,-0.951253,0.3133255578137799
1760736215.525147,0.002469,-0.155979,0.04862,0.98656,0.016646,0.011945,-0.008552,-0.000397,0.007392,0.003475,-0.308005,0.010296,-0.951329,0.31309538264925574
1760736215.554698,0.002609,-0.155847,0.048562,0.986583,0.008785,0.010707,-0.008297,-0.000326,0.006418,0.001878,-0.307765,0.009988,-0.95141,0.31284311457692326
1760736215.556756,0.002663,-0.155717,0.048544,0.986605,0.000921,0.009123,-0.004319,-0.000869,0.00531,0.00314,-0.307521,0.009863,-0.95149,0.3125867391470064
1760736215.611127,0.00265,-0.15562,0.048502,0.986622,2e-06,0.009737,-0.005684,-0.001161,0.003984,0.002307,-0.307332,0.009867,-0.951551,0.31238812727824555
1760736215.611427,0.002636,-0.155522,0.04846,0.98664,-0.000917,0.010352,-0.007049,-0.001454,0.002658,0.001474,-0.307144,0.009871,-0.951612,0.31219046706838743
1760736215.612903,0.002636,-0.155392,0.048377,0.986664,0.003136,0.010075,-0.009608,-0.000867,0.002468,0.001752,-0.306895,0.009833,-0.951693,0.3119287465614169
1760736215.641483,0.0027,-0.155278,0.048263,0.986688,0.007794,0.010825,-0.011866,-0.000747,0.001945,0.00139,-0.306682,0.009661,-0.951763,0.3117050842676363
1760736215.672619,0.002799,-0.155174,0.048125,0.98671,0.010365,0.013655,-0.013527,-0.000491,0.002185,0.000815,-0.306492,0.009411,-0.951827,0.31150538149221657
1760736215.676709,0.002929,-0.155053,0.04799,0.986735,0.014228,0.013597,-0.017313,-8.6e-05,0.001184,0.000726,-0.306274,0.009102,-0.9519,0.3112764212279246
1760736215.706191,0.003097,-0.154938,0.04783,0.986761,0.017015,0.013077,-0.020187,-0.001026,0.002185,0.001404,-0.30607,0.008708,-0.951969,0.31106222154707003
1760736215.712987,0.003313,-0.15478,0.047647,0.986794,0.020674,0.011994,-0.022549,-0.000657,0.001803,0.000358,-0.305787,0.008211,-0.952065,0.3107647732004991
1760736215.754595,0.003558,-0.154643,0.047455,0.986824,0.023696,0.01299,-0.023114,-0.000818,0.001768,0.001848,-0.305548,0.007656,-0.952146,0.3105138675379748
1760736215.756072,0.003829,-0.154494,0.047271,0.986855,0.020552,0.013714,-0.023011,-0.00019,0.001041,0.001063,-0.305288,0.007049,-0.952234,0.3102408462615603
1760736215.787248,0.004061,-0.154344,0.04707,0.986887,0.018444,0.015293,-0.022265,-4.9e-05,0.001315,0.002188,-0.305022,0.006515,-0.952323,0.30996153613678473
1760736215.794615,0.004247,-0.154209,0.046865,0.986917,0.014747,0.010902,-0.022241,0.000757,0.001151,0.001736,-0.30478,0.006072,-0.952403,0.30970756016642687
1760736215.812989,0.004384,-0.154123,0.046674,0.986939,0.008953,0.009036,-0.02102,0.000426,-0.000678,0.001588,-0.30463,0.005734,-0.952454,0.30954979180367775
1760736215.843098,0.00446,-0.154002,0.046479,0.986967,0.001547,0.010278,-0.017768,0.000149,0.000764,0.002363,-0.304404,0.005511,-0.952527,0.3093126967827735
1760736215.872864,0.004469,-0.153915,0.046346,0.986987,-0.001479,0.007912,-0.010021,-0.000599,-3.9e-05,0.004001,-0.304238,0.005444,-0.952581,0.30913825445645354
1760736215.873158,0.004488,-0.153855,0.046243,0.987001,0.004225,0.00592,-0.007407,-0.001773,-0.001967,0.002559,-0.304126,0.00537,-0.952617,0.3090207391288549
1760736215.908862,0.004545,-0.153802,0.046218,0.98701,0.005031,0.004622,-0.00192,-0.001264,-0.000886,0.000239,-0.304028,0.005246,-0.952649,0.3089178594870063
1760736215.911238,0.004585,-0.153708,0.046235,0.987023,0.000721,0.014689,0.005298,5.3e-05,0.004054,-0.002464,-0.303851,0.005162,-0.952705,0.3087323522023922
1760736215.942271,0.004521,-0.153471,0.046325,0.987056,-0.007515,0.026146,0.013785,0.00051,0.004604,-0.001345,-0.303388,0.005294,-0.952852,0.3082463573396473
1760736215.971389,0.004391,-0.153203,0.046441,0.987093,-0.007726,0.021971,0.012413,0.000775,0.00173,0.004941,-0.302859,0.005562,-0.953019,0.30769116243239325
1760736215.973418,0.004278,-0.15303,0.046522,0.987117,-0.005872,0.010014,0.005111,0.001252,-0.000804,0.005614,-0.302514,0.005793,-0.953127,0.3073292401622437
1760736216.005899,0.004178,-0.152974,0.046541,0.987125,-0.005318,0.004282,-0.000934,0.003067,-0.000142,0.003115,-0.302397,0.005991,-0.953163,0.3072064616203491
1760736216.011072,0.004147,-0.152919,0.046499,0.987136,-1.9e-05,0.003804,-0.004992,0.001409,0.001812,0.001908,-0.302289,0.006033,-0.953197,0.30709315653274477
1760736216.04013,0.004185,-0.152886,0.046433,0.987143,0.003866,0.002906,-0.003934,0.001024,0.005395,0.002373,-0.30223,0.005936,-0.953216,0.30703135744780025
1760736216.107527,0.004248,-0.152852,0.046462,0.987147,0.002376,0.002179,-0.00041,0.000714,0.004677,0.001638,-0.302169,0.005816,-0.953237,0.3069670869851003
1760736216.107865,0.004311,-0.152817,0.04649,0.987151,0.000886,0.001453,0.003114,0.000405,0.003958,0.000904,-0.302107,0.005697,-0.953257,0.30690215908542395
1760736216.10819,0.004375,-0.152782,0.046519,0.987155,-0.000604,0.000726,0.006638,9.5e-05,0.00324,0.000169,-0.302046,0.005578,-0.953277,0.3068381799381193
1760736216.109871,0.004349,-0.152761,0.046606,0.987154,-0.003582,0.003371,0.011082,-0.000253,0.004627,0.000314,-0.302003,0.005652,-0.95329,0.3067931301334356
1760736216.140844,0.004279,-0.152765,0.046699,0.987149,-0.004456,-0.00193,0.008834,0.000242,0.003321,0.002001,-0.302003,0.005821,-0.953289,0.3067931250080041
1760736216.169112,0.004176,-0.152796,0.046783,0.987141,-0.009544,-0.00192,0.005376,0.000283,0.00449,0.001927,-0.302054,0.006052,-0.953272,0.3068464431603111
1760736216.171042,0.004062,-0.152831,0.046827,0.987134,-0.007231,-0.0032,0.004989,-0.000263,0.002983,0.005834,-0.302109,0.006294,-0.953253,0.30690413969787544
1760736216.209667,0.003974,-0.152908,0.046843,0.987122,-0.002577,-0.007964,-0.001176,-0.002218,0.002111,0.003804,-0.30225,0.00648,-0.953207,0.3070520713999779
1760736216.211768,0.00394,-0.153015,0.046809,0.987107,-0.002826,-0.004745,-0.00153,-0.001224,0.003891,-0.002074,-0.302454,0.006547,-0.953142,0.30726603736358055
1760736216.242915,0.003897,-0.15303,0.04679,0.987106,-0.001963,1e-06,0.000291,-0.001332,0.006093,-0.002487,-0.302479,0.006626,-0.953133,0.3072924233738528
1760736216.271849,0.003855,-0.152986,0.046763,0.987114,-0.004965,0.004548,0.000173,-0.001618,0.005795,0.001351,-0.302389,0.006698,-0.953161,0.3071980179011024
1760736216.273639,0.003757,-0.152991,0.046736,0.987115,-0.008998,0.000758,-9e-05,-0.001364,0.004565,0.002589,-0.302391,0.006883,-0.953159,0.3072001305017195
1760736216.30275,0.003643,-0.153012,0.04671,0.987113,-0.011799,-0.001874,-0.002323,6e-06,0.003771,0.003173,-0.30242,0.007102,-0.953148,0.30723061324244877
1760736216.339969,0.003537,-0.153068,0.046644,0.987108,-0.007066,-0.008628,-0.00381,-0.000473,0.003316,0.003716,-0.302519,0.007296,-0.953115,0.30733451404503187
1760736216.340304,0.003464,-0.153185,0.046588,0.987093,-0.005911,-0.007407,-0.00543,-0.001683,0.00406,0.003168,-0.302738,0.007434,-0.953045,0.3075641055027548
1760736216.369159,0.00344,-0.153245,0.046546,0.987085,0.000424,-0.005944,-0.004035,-0.002847,0.00351,0.001926,-0.302852,0.007474,-0.953008,0.3076838622046036
1760736216.371074,0.00348,-0.153317,0.046541,0.987074,0.007797,-0.0053,-0.000794,-0.001986,0.004513,0.001194,-0.302995,0.007402,-0.952963,0.30783394474826453
1760736216.417279,0.003575,-0.153352,0.046571,0.987067,0.008924,-0.002705,0.001865,-0.001479,0.003151,0.000607,-0.30307,0.007226,-0.952941,0.30791249412424554
1760736216.418537,0.003654,-0.153358,0.0466,0.987065,0.006623,-0.001091,0.002176,-0.000598,0.003038,0.00104,-0.303089,0.00708,-0.952936,0.30793244795740715
1760736216.448734,0.003711,-0.153344,0.046606,0.987066,0.002688,-0.003716,-0.002106,-0.001126,0.001172,0.00214,-0.303068,0.006968,-0.952944,0.30791026132002963
1760736216.449633,0.00372,-0.153394,0.046556,0.987061,-0.001547,-0.006554,-0.00671,-0.000974,0.000548,0.000488,-0.303164,0.006938,-0.952913,0.30801120754699324
1760736216.510234,0.003688,-0.153431,0.046483,0.987059,-0.002624,-0.004448,-0.005302,-0.000958,0.00228,0.001298,-0.303234,0.006984,-0.952891,0.3080844807619564
1760736216.510552,0.003655,-0.153469,0.04641,0.987056,-0.0037,-0.002343,-0.003893,-0.000942,0.004012,0.002109,-0.303304,0.00703,-0.952868,0.3081580565086999
1760736216.525343,0.003592,-0.153516,0.04638,0.987051,-0.00593,-0.001119,0.000221,-0.000207,0.003724,0.000966,-0.303389,0.00715,-0.95284,0.30824727394784807
1760736216.532895,0.003558,-0.153523,0.046386,0.987049,-0.003339,-0.002912,0.005002,-0.000155,0.003694,0.001639,-0.3034,0.007218,-0.952836,0.30825881346286943
1760736216.563031,0.003498,-0.153575,0.046455,0.987038,-0.000662,-0.001944,0.006546,-0.000376,0.003234,0.002319,-0.303493,0.007364,-0.952805,0.3083564959458671
1760736216.591496,0.003466,-0.153589,0.046527,0.987033,-0.002062,-0.004146,0.005746,-0.001586,0.001374,0.001397,-0.303518,0.00745,-0.952797,0.3083825417514143
1760736216.59261,0.003441,-0.153627,0.046612,0.987023,-0.002278,-0.00374,0.006524,-0.001013,0.001097,0.000762,-0.303588,0.007529,-0.952774,0.30845603174918546
1760736216.636135,0.003416,-0.153665,0.046662,0.987015,-0.001864,-0.002723,0.005739,-0.002348,0.001518,0.001359,-0.303658,0.007596,-0.952751,0.30852954883305744
1760736216.638072,0.003341,-0.153713,0.046719,0.987005,-0.004824,0.000713,0.002849,-0.001648,0.001813,0.000137,-0.303743,0.007768,-0.952722,0.3086189199358244
1760736216.666429,0.003306,-0.153687,0.046737,0.987008,-0.002459,0.001649,0.001532,-0.000859,0.002224,0.001425,-0.303689,0.00784,-0.952739,0.308562128632731
1760736216.668412,0.003261,-0.153696,0.046744,0.987007,-0.000651,0.000437,0.000405,-0.00097,0.00137,0.001767,-0.303702,0.007931,-0.952734,0.30857580432821263
1760736216.69768,0.003301,-0.153688,0.046729,0.987008,0.005132,0.000495,-0.003221,-0.000915,0.001651,0.002361,-0.303691,0.007847,-0.952738,0.30856432035399883
1760736216.749493,0.003364,-0.153687,0.046669,0.987011,0.003534,-0.001147,-0.00288,-0.00077,0.001958,0.002162,-0.303696,0.007704,-0.952738,0.30856943861800296
1760736216.74982,0.003427,-0.153686,0.046609,0.987014,0.001936,-0.002789,-0.002539,-0.000624,0.002265,0.001962,-0.3037,0.007561,-0.952738,0.3085735975928513
1760736216.750132,0.003423,-0.153701,0.046542,0.987015,-0.003734,-0.000386,-0.002361,-0.000671,0.001834,0.001404,-0.30373,0.00755,-0.952728,0.30860524402769934
1760736216.811304,0.003331,-0.153714,0.046517,0.987014,-0.008073,-0.000104,-0.002867,-0.000726,0.001476,0.00103,-0.303745,0.007725,-0.952722,0.3086209316378267
1760736216.811609,0.003239,-0.153726,0.046491,0.987014,-0.012412,0.000179,-0.003373,-0.000782,0.001118,0.000656,-0.303761,0.0079,-0.952715,0.30863786597238885
1760736216.812704,0.003108,-0.153737,0.046441,0.987015,-0.011991,0.000823,-0.002253,-0.001308,0.002281,0.001461,-0.303771,0.008143,-0.95271,0.3086482907439845
1760736216.840269,0.003002,-0.153766,0.046394,0.987013,-0.007615,0.000649,-0.00025,1e-05,0.002636,0.002409,-0.303816,0.008342,-0.952694,0.3086955014558174
1760736216.883962,0.002926,-0.153755,0.046354,0.987017,-0.006016,0.000303,-0.000995,-0.000379,0.002257,0.002479,-0.303788,0.008479,-0.952702,0.3086660271289895
1760736216.884596,0.00285,-0.153744,0.046315,0.987021,-0.004418,-4.2e-05,-0.00174,-0.000767,0.001878,0.00255,-0.303761,0.008616,-0.952709,0.3086378033370158
1760736216.885101,0.002812,-0.153722,0.04624,0.987028,-0.000954,-0.001149,-0.003508,-0.000292,0.003234,0.002057,-0.303716,0.008666,-0.952723,0.30859053942928816
1760736216.917495,0.002796,-0.153773,0.046167,0.987023,-0.000922,-0.004435,-0.004978,-0.001552,0.004032,0.0017,-0.303813,0.00868,-0.952692,0.30869233351554715
1760736216.94721,0.00279,-0.153779,0.046109,0.987025,0.000578,-0.000254,-0.004307,-0.000641,0.00382,0.002875,-0.303824,0.008673,-0.952689,0.3087037443297215
1760736216.948539,0.002825,-0.153764,0.046093,0.987028,0.006506,0.001115,0.000926,-0.00177,0.002017,0.003044,-0.303799,0.008597,-0.952697,0.30867770490392193
1760736216.978483,0.002943,-0.153752,0.046133,0.987028,0.012257,-0.001086,-0.000188,-0.003893,0.001645,0.000148,-0.303787,0.008377,-0.952703,0.3086650447206401
1760736217.007674,0.003048,-0.153689,0.046165,0.987036,0.006124,0.010835,0.003075,-0.000363,0.004632,-0.004336,-0.303674,0.008173,-0.952741,0.3085463798901372
1760736217.009628,0.003036,-0.153496,0.046235,0.987062,-0.000351,0.028666,0.006606,-3e-06,0.004407,-0.004382,-0.3033,0.008201,-0.95286,0.308153832790108
1760736217.03894,0.002984,-0.153161,0.04629,0.987112,-0.003879,0.034714,0.00386,0.000274,0.003726,0.0026,-0.30265,0.008288,-0.953066,0.30747174534469174
1760736217.108806,0.002869,-0.153038,0.046221,0.987135,-0.006062,0.026211,0.000383,0.000801,0.003716,0.002275,-0.302404,0.008482,-0.953142,0.3072137652495854
1760736217.109146,0.002754,-0.152916,0.046152,0.987157,-0.008245,0.017707,-0.003095,0.001329,0.003706,0.001949,-0.302158,0.008676,-0.953218,0.3069557731397505
1760736217.109963,0.00264,-0.152793,0.046083,0.98718,-0.010428,0.009204,-0.006573,0.001856,0.003696,0.001623,-0.301912,0.008871,-0.953294,0.30669776627213935
1760736217.110546,0.002561,-0.152699,0.046018,0.987197,-0.007217,0.004856,-0.00562,-0.000203,0.00498,0.002761,-0.301724,0.008997,-0.953353,0.30650037065869384
1760736217.157342,0.002483,-0.152632,0.045993,0.987209,-0.00766,0.006472,-0.001471,-0.00102,0.00438,0.00195,-0.301588,0.009137,-0.953395,0.3063576354043323
1760736217.157644,0.002405,-0.152565,0.045969,0.987221,-0.008103,0.008088,0.002678,-0.001837,0.003781,0.00114,-0.301452,0.009278,-0.953436,0.3062151925780465
1760736217.19206,0.002301,-0.152513,0.045999,0.987228,-0.00838,0.007391,0.00257,-0.000609,0.003172,0.001195,-0.301342,0.009488,-0.953469,0.30609973924522005
1760736217.194241,0.002172,-0.152452,0.046016,0.987237,-0.009861,0.007706,0.002305,-0.000419,0.0025,0.000679,-0.301213,0.009741,-0.953507,0.305964516512124
1760736217.223108,0.002072,-0.152401,0.045999,0.987245,-0.008979,0.003986,-0.002812,-0.00116,0.003173,0.00203,-0.301106,0.009929,-0.953539,0.3058522635718155
1760736217.227692,0.001978,-0.152346,0.045933,0.987257,-0.010737,0.000411,-0.007387,-0.001578,0.002841,0.002863,-0.300991,0.010091,-0.953574,0.30573155052857054
1760736217.251711,0.00186,-0.152341,0.045816,0.987264,-0.009764,0.003704,-0.008398,-0.000244,0.00229,0.00329,-0.300972,0.010287,-0.953577,0.3057118983649042
1760736217.281617,0.001811,-0.15235,0.045695,0.987268,-0.001358,-0.002848,-0.01356,-0.002152,6e-05,0.002605,-0.300985,0.010348,-0.953573,0.3057253007751502
1760736217.31275,0.001845,-0.152428,0.045565,0.987262,0.000154,-0.004175,-0.012554,-0.002319,0.002915,-0.002056,-0.30114,0.010248,-0.953525,0.30588788470330047
1760736217.31307,0.001853,-0.152402,0.045482,0.98727,-0.00078,0.00623,-0.003181,-0.001384,0.003783,-0.003481,-0.301093,0.010205,-0.95354,0.3058386884661366
1760736217.341286,0.001826,-0.152277,0.045456,0.98729,-0.004609,0.011974,-0.001892,-0.00202,0.0031,-0.000572,-0.30085,0.010238,-0.953617,0.3055836757204681
1760736217.349202,0.00179,-0.152167,0.045455,0.987307,-0.005874,0.007613,-0.000304,-0.00211,0.001788,0.002321,-0.300633,0.0103,-0.953684,0.30535637232389035
1760736217.416232,0.001763,-0.152135,0.045376,0.987316,-0.003419,0.005956,-0.002718,-0.001668,0.0022,0.002817,-0.30057,0.010325,-0.953704,0.30529019314429706
1760736217.416578,0.001737,-0.152103,0.045297,0.987325,-0.000964,0.0043,-0.005133,-0.001226,0.002611,0.003313,-0.300507,0.01035,-0.953723,0.30522431431289065
1760736217.41681,0.00171,-0.152071,0.045218,0.987333,0.00149,0.002644,-0.007548,-0.000784,0.003022,0.003809,-0.300445,0.010376,-0.953743,0.30515908531943686
1760736217.445085,0.001738,-0.15207,0.045128,0.987337,0.001485,0.001313,-0.006966,-0.000739,0.004284,0.001622,-0.300446,0.010293,-0.953743,0.30516030931285176
1760736217.454388,0.001742,-0.152063,0.045067,0.987341,0.001513,0.003344,-0.002499,-9.2e-05,0.003751,0.000752,-0.300433,0.010266,-0.953748,0.3051464952164021
1760736217.482494,0.001766,-0.152002,0.045054,0.987351,0.000393,0.004136,-0.004014,-0.000567,0.0021,0.001117,-0.300318,0.010209,-0.953785,0.30502587635846495
1760736217.489281,0.001754,-0.15194,0.045012,0.987363,-0.001725,0.007261,-0.006997,0.000677,0.003067,0.000772,-0.300198,0.010215,-0.953822,0.30490028521567386
1760736217.527624,0.001694,-0.151889,0.044924,0.987375,-0.006667,0.00356,-0.009194,0.000408,0.002265,0.001795,-0.300095,0.010301,-0.953854,0.3047921525122938
1760736217.527981,0.001622,-0.15187,0.044798,0.987384,-0.010003,0.000102,-0.01098,0.000355,0.002106,0.001998,-0.300052,0.010404,-0.953866,0.30474719802640154
1760736217.558498,0.001543,-0.151886,0.044635,0.987388,-0.009188,-0.00107,-0.011081,0.000788,0.003685,0.002589,-0.300079,0.010512,-0.953856,0.30477559902529366
1760736217.5879,0.001467,-0.15188,0.044494,0.987396,-0.010842,-0.000696,-0.009151,-0.000695,0.003929,0.001902,-0.300062,0.010619,-0.953861,0.3047575265548443
1760736217.59251,0.00139,-0.151913,0.044413,0.987395,-0.004878,-0.00037,-0.005563,-0.000982,0.003977,0.00177,-0.30012,0.010749,-0.953841,0.3048184178563253
1760736217.623188,0.001335,-0.15193,0.044358,0.987394,-0.003302,-0.002813,-0.002419,0.000535,0.004049,0.002549,-0.300149,0.010842,-0.953831,0.3048487661201944
1760736217.652518,0.001303,-0.151957,0.044334,0.987391,-0.000992,-0.002767,-0.002672,0.000471,0.003,0.002696,-0.300198,0.0109,-0.953815,0.3049001104999625
1760736217.652855,0.001292,-0.152029,0.044314,0.987381,-0.001267,-0.004889,-0.002722,-0.001307,0.001617,0.000806,-0.300336,0.010923,-0.953771,0.30504487436761923
1760736217.70855,0.001223,-0.152079,0.044277,0.987375,-0.006416,-0.0034,-0.002341,-0.000934,0.001617,0.000374,-0.300426,0.011053,-0.953741,0.30513927908611893
1760736217.708897,0.001154,-0.152128,0.044239,0.98737,-0.011565,-0.001911,-0.00196,-0.000561,0.001616,-5.7e-05,-0.300516,0.011182,-0.953711,0.30523368200297696
1760736217.711147,0.001045,-0.152122,0.044197,0.987372,-0.009957,-0.000104,-0.003864,-0.001319,0.002485,0.001411,-0.300495,0.011384,-0.953716,0.30521143211046003
1760736217.749753,0.000925,-0.152136,0.044125,0.987374,-0.009664,0.000225,-0.004211,-0.001457,0.002643,0.001678,-0.300513,0.0116,-0.953707,0.30523052241683735
1760736217.754408,0.000842,-0.152136,0.044044,0.987377,-0.006979,-0.002985,-0.006006,-0.000432,0.000527,0.001419,-0.300506,0.011738,-0.953708,0.3052230381103765
1760736217.782635,0.000783,-0.152178,0.043959,0.987375,-0.004274,-0.001903,-0.006067,-0.000548,0.002047,0.001809,-0.300582,0.011833,-0.953683,0.30530268466629223
1760736217.784584,0.000751,-0.152165,0.043873,0.987381,-0.003796,-0.001712,-0.006077,-0.001417,0.001999,0.001186,-0.300555,0.011869,-0.953691,0.30527439433826775
1760736217.813914,0.000701,-0.152204,0.043788,0.987378,-0.005037,-3.3e-05,-0.005207,-0.000719,0.002308,0.00177,-0.300628,0.011946,-0.953667,0.3053509429443275
1760736217.8451,0.000632,-0.152216,0.043748,0.987378,-0.008821,0.00024,-0.004444,0.000334,0.002052,0.00087,-0.300644,0.01207,-0.95366,0.3053678376929972
1760736217.861757,0.000541,-0.152209,0.04369,0.987382,-0.010006,-0.000745,-0.003182,-5.6e-05,0.003407,0.001721,-0.300624,0.012232,-0.953664,0.30534693996851986
1760736217.891243,0.000446,-0.152199,0.043627,0.987386,-0.010745,-0.001946,-0.001834,-0.000392,0.003119,0.002432,-0.300597,0.0124,-0.953671,0.30531843254896285
1760736217.891588,0.000329,-0.15222,0.043595,0.987385,-0.006736,-0.001093,-0.003362,-0.001036,0.003269,0.001283,-0.300628,0.012622,-0.953658,0.30535103088084126
1760736217.922758,0.00029,-0.15221,0.043562,0.987388,-0.000751,-0.000293,-0.002831,-0.001128,0.004504,0.003375,-0.300605,0.012688,-0.953664,0.30532702793902156
1760736217.92308,0.00028,-0.152239,0.043527,0.987385,-0.000503,-0.002358,-0.002746,0.000933,0.005235,0.002837,-0.300662,0.0127,-0.953646,0.3053867540268903
1760736217.953394,0.000256,-0.152269,0.043507,0.987381,-0.00424,-0.001438,0.001327,0.000803,0.003674,0.002175,-0.300717,0.012744,-0.953628,0.3054444442004575
1760736218.013421,0.000199,-0.152284,0.043493,0.987379,-0.00542,-0.002402,-0.000959,-0.000141,0.003849,0.002599,-0.300741,0.012853,-0.953619,0.30546959966432075
1760736218.013724,0.000142,-0.152299,0.04348,0.987378,-0.006599,-0.003367,-0.003245,-0.001085,0.004024,0.003023,-0.300765,0.012963,-0.95361,0.3054947472842048
1760736218.015425,6.6e-05,-0.152375,0.043436,0.987368,-0.007945,-0.000669,-0.001556,-0.000378,0.003152,0.00149,-0.300907,0.013106,-0.953563,0.30564371929904965
1760736218.043983,-3e-06,-0.152361,0.043435,0.98737,-0.005954,-0.002226,0.002699,-0.000721,0.002549,0.002987,-0.300872,0.013241,-0.953572,0.3056070723571166
1760736218.045989,-5.1e-05,-0.152345,0.043469,0.987371,0.001241,0.00266,0.00415,-0.003264,-0.000422,0.001788,-0.300838,0.013344,-0.953582,0.3055712073944171
1760736218.082113,-1.9e-05,-0.152363,0.043485,0.987367,-0.001924,-0.000143,0.00151,-0.001216,0.002044,-0.00174,-0.300875,0.013288,-0.953571,0.30561003750670923
1760736218.083291,-0.000126,-0.152281,0.043529,0.987378,-0.015706,0.0163,0.007786,-0.000899,0.006759,-0.00427,-0.300706,0.013506,-0.953621,0.30543290466330303
1760736218.119297,-0.000322,-0.15204,0.043603,0.987412,-0.017797,0.023718,0.008446,0.000797,0.00316,-0.00178,-0.300224,0.013895,-0.953768,0.3049273338632655
1760736218.147897,-0.000539,-0.15184,0.043618,0.987442,-0.02009,0.020472,0.001254,0.001616,0.001816,0.004108,-0.299818,0.014311,-0.953889,0.3045018935561971
1760736218.154222,-0.00068,-0.15164,0.043588,0.987474,-0.009016,0.008703,-0.004673,0.001291,0.002392,0.009051,-0.299422,0.014562,-0.95401,0.30408669855316006
1760736218.198455,-0.000748,-0.15163,0.043525,0.987478,-0.005686,0.004953,-0.002652,0.001151,0.002817,0.005175,-0.299397,0.014677,-0.954016,0.3040605216142821
1760736218.19876,-0.000816,-0.151619,0.043462,0.987483,-0.002355,0.001203,-0.000631,0.00101,0.003242,0.001299,-0.299372,0.014791,-0.954022,0.30403434517035166
1760736218.22753,-0.000826,-0.151618,0.043453,0.987483,-0.001239,-0.000795,0.003453,0.000858,0.005236,4.6e-05,-0.299369,0.014807,-0.954023,0.3040311091326544
1760736218.229559,-0.000863,-0.151612,0.043532,0.987481,-0.002808,0.003287,0.012017,-0.001508,0.003761,-0.000396,-0.299352,0.014905,-0.954026,0.3040135339966773
1760736218.258792,-0.000966,-0.151617,0.043643,0.987475,-0.005367,0.002082,0.012882,-0.002336,0.004371,-0.001182,-0.299352,0.015142,-0.954023,0.304013314851117
1760736218.265709,-0.001054,-0.151598,0.043773,0.987472,-0.003577,-4.5e-05,0.007324,-0.001795,0.001694,0.000172,-0.299306,0.015354,-0.954034,0.30396511767237244
1760736218.313432,-0.001106,-0.151622,0.043839,0.987465,-0.004578,9.5e-05,0.003954,-0.000644,0.001625,-0.000113,-0.299346,0.015478,-0.954019,0.3040071733250737
1760736218.315447,-0.001174,-0.151637,0.043867,0.987462,-0.008872,-0.002319,0.001783,0.000219,0.002012,0.001779,-0.299369,0.015623,-0.954009,0.30403140431190884
1760736218.345177,-0.001269,-0.15167,0.043831,0.987458,-0.006101,0.000114,-0.001799,-0.000225,0.00224,0.005604,-0.299424,0.015802,-0.953989,0.3040889859868596
1760736218.347237,-0.001287,-0.151747,0.043809,0.987447,0.000712,-0.009426,-0.005676,-0.001064,-0.001309,0.003671,-0.299571,0.015837,-0.953943,0.3042428394338695
1760736218.379855,-0.001279,-0.151868,0.04374,0.987432,-0.002059,-0.009381,-0.004289,-0.000362,0.001209,-0.000903,-0.299807,0.015812,-0.953869,0.3044902902903068
1760736218.386681,-0.001279,-0.151882,0.043732,0.98743,-0.003271,0.001207,0.000158,-0.002132,0.003415,-0.003062,-0.299835,0.015809,-0.95386,0.3045197150874646
1760736218.415181,-0.001401,-0.151869,0.043758,0.987431,-0.011278,0.008927,0.00534,-0.002794,0.004463,0.000914,-0.299797,0.016057,-0.953868,0.30447982319174716
1760736218.445792,-0.001494,-0.151833,0.043784,0.987435,-0.007858,-0.000681,0.003397,-0.000685,0.000621,0.002524,-0.299719,0.016246,-0.953889,0.3043981568239521
1760736218.447926,-0.001591,-0.151867,0.043793,0.987429,-0.008657,-0.006546,0.000745,-0.000549,-0.000424,0.002097,-0.299777,0.016443,-0.953868,0.3044587720033521
1760736218.477201,-0.001648,-0.151923,0.043765,0.987422,-0.003175,-0.00385,-0.003851,-0.001147,0.000963,0.003129,-0.299881,0.016553,-0.953833,0.3045679093311149
1760736218.50721,-0.001662,-0.151996,0.043697,0.987413,0.000485,-0.005883,-0.005012,-0.000923,0.001668,0.002632,-0.30002,0.016566,-0.953789,0.30471363719291494
1760736218.54341,-0.001687,-0.15203,0.043676,0.987409,-0.003808,-0.000628,0.000143,-0.001123,0.004426,0.003665,-0.300084,0.016612,-0.953768,0.3047807483723741
1760736218.544489,-0.001733,-0.152053,0.043677,0.987405,-0.005416,-0.002315,0.003126,-0.002767,0.001333,0.001177,-0.300124,0.016705,-0.953754,0.3048226180487348
1760736218.547452,-0.001779,-0.152034,0.043665,0.987409,-0.005857,0.001542,0.001925,-0.001717,0.001924,0.001066,-0.300084,0.016791,-0.953765,0.30478070802122054
1760736218.577356,-0.001889,-0.152023,0.043672,0.98741,-0.007174,0.002355,-0.000937,-0.001321,0.002543,0.00044,-0.300054,0.017008,-0.953771,0.3047491368016581
1760736218.609911,-0.001986,-0.152013,0.043617,0.987414,-0.006923,0.002311,-0.003684,-0.002299,0.002941,0.001472,-0.300026,0.017183,-0.953776,0.3047199859116122
1760736218.611872,-0.002082,-0.152003,0.043554,0.987418,-0.007313,-0.000194,-0.006422,-0.002825,0.004445,0.001431,-0.299999,0.017353,-0.953782,0.30469150664715733
1760736218.642628,-0.002163,-0.152033,0.043441,0.987418,-0.00423,-0.002791,-0.007352,-0.001401,0.004091,0.00295,-0.300053,0.01748,-0.953762,0.3047483227679754
1760736218.64292,-0.002193,-0.152014,0.043352,0.987425,-0.003327,0.000742,-0.003703,-0.002106,0.004337,0.002946,-0.300014,0.017512,-0.953774,0.3047073436523832
1760736218.672689,-0.002218,-0.151997,0.043314,0.987429,-0.000495,-0.001195,-0.001567,-0.002708,0.005206,0.002182,-0.299981,0.017547,-0.953784,0.3046726712219422
1760736218.702321,-0.002176,-0.151976,0.043308,0.987433,0.005596,-0.000639,-0.00052,-0.001816,0.005634,0.002886,-0.299944,0.01746,-0.953797,0.3046339550169198
1760736218.705491,-0.002132,-0.152038,0.043335,0.987422,0.004616,0.001239,0.000536,-0.002988,0.004743,0.002798,-0.300066,0.017388,-0.95376,0.30476182827716247
1760736218.73435,-0.002104,-0.152016,0.043352,0.987425,0.000773,0.00264,0.002563,-0.003186,0.004036,0.00216,-0.300025,0.017336,-0.953774,0.3047188013927434
1760736218.751751,-0.002123,-0.152007,0.043372,0.987425,0.000479,0.002748,0.002718,-0.003412,0.002706,0.000848,-0.300006,0.017378,-0.953779,0.30469894754212873
1760736218.785779,-0.002124,-0.152006,0.043373,0.987425,0.000634,0.00135,-0.001069,-0.003217,0.003886,0.002017,-0.300005,0.017381,-0.953779,0.30469797720740316
1760736218.787802,-0.002101,-0.151971,0.043339,0.987432,0.000147,0.00413,-0.004166,-0.002352,0.003687,0.002246,-0.29994,0.017322,-0.953801,0.30462969421040664
1760736218.816661,-0.002099,-0.151918,0.043272,0.987443,0.000113,0.004323,-0.004381,-0.003145,0.003958,0.002117,-0.29984,0.017293,-0.953833,0.30452485973592563
1760736218.868661,-0.002095,-0.151825,0.043211,0.98746,0.001622,0.005236,-0.005556,-0.003118,0.004301,0.002443,-0.29966,0.017259,-0.95389,0.30433623816785627
1760736218.868919,-0.002091,-0.151731,0.043151,0.987477,0.003132,0.00615,-0.006731,-0.00309,0.004644,0.002769,-0.299481,0.017225,-0.953947,0.30414857025876757
1760736218.870535,-0.00207,-0.151682,0.043063,0.987489,-0.000213,0.007355,-0.007389,-0.002336,0.00373,0.002294,-0.29939,0.017151,-0.953977,0.3040531632428151
1760736218.910008,-0.00209,-0.151613,0.042961,0.987504,0.001096,0.005552,-0.008422,-0.000459,0.003749,0.003202,-0.299257,0.017155,-0.954018,0.3039139692652545
1760736218.912109,-0.00207,-0.151566,0.042871,0.987515,0.000956,0.004146,-0.009772,-0.002295,0.003025,0.00167,-0.299169,0.017084,-0.954047,0.30382170621478155
1760736218.942185,-0.002027,-0.151527,0.042762,0.987526,0.003509,0.005973,-0.009548,-0.000663,0.002407,0.00188,-0.2991,0.016962,-0.954071,0.3037493386220559
1760736218.944307,-0.001982,-0.151488,0.042653,0.987536,0.003644,0.006069,-0.009536,-0.001139,0.003254,0.001097,-0.299031,0.016838,-0.954095,0.30367697691397133
1760736218.972655,-0.001935,-0.151406,0.042527,0.987554,0.001908,0.006655,-0.009832,-0.000855,0.003888,0.000409,-0.29888,0.0167,-0.954145,0.3035186621420018
1760736219.00324,-0.001888,-0.151323,0.042401,0.987573,0.004807,0.008472,-0.012149,-0.000259,0.004415,0.00378,-0.298724,0.016562,-0.954196,0.3033552710443551
1760736219.01679,-0.001862,-0.151231,0.042294,0.987591,-0.000716,0.010438,-0.010537,0.000625,0.002762,0.00147,-0.298552,0.01647,-0.954251,0.3031751728455947
1760736219.047102,-0.001881,-0.151117,0.042174,0.987614,-0.004386,0.006078,-0.010774,0.000152,0.00216,0.003333,-0.298332,0.016462,-0.95432,0.3029446504444765
1760736219.047412,-0.001934,-0.15111,0.04202,0.987622,-0.004053,0.000141,-0.013115,-0.000655,0.001701,0.001289,-0.298316,0.016519,-0.954324,0.3029278920988001
1760736219.082426,-0.001965,-0.151122,0.041897,0.987625,-0.008598,2.9e-05,-0.009859,0.00126,0.005248,0.002683,-0.298339,0.016544,-0.954317,0.3029518035603949
1760736219.089039,-0.002033,-0.151084,0.041848,0.987633,-0.005368,0.003106,9.7e-05,-0.000403,0.003133,0.002578,-0.298261,0.016661,-0.954339,0.30287018605908195
1760736219.120239,-0.002057,-0.151076,0.041865,0.987633,0.002276,0.003511,0.004277,-0.002192,0.000818,0.00242,-0.298242,0.016712,-0.954344,0.30285029385328105
1760736219.123162,-0.002006,-0.151018,0.041897,0.987641,0.006249,0.000863,0.001029,-0.000949,0.000319,-8.5e-05,-0.298135,0.016618,-0.954379,0.30273821597477907
1760736219.151764,-0.002018,-0.150937,0.041988,0.987649,-0.001714,0.01767,0.009772,8.4e-05,0.004237,-0.004289,-0.297976,0.016661,-0.954428,0.30257161684353084
1760736219.20848,-0.002122,-0.150655,0.042058,0.987689,-0.007192,0.021842,0.006781,8.1e-05,0.002123,0.000611,-0.297423,0.016864,-0.954597,0.3019923255340028
1760736219.208772,-0.002226,-0.150374,0.042128,0.987729,-0.01267,0.026014,0.00379,7.7e-05,9e-06,0.005511,-0.29687,0.017068,-0.954765,0.30141331360125106
1760736219.210418,-0.00234,-0.150262,0.042054,0.987749,-0.006172,0.002441,-0.009201,0.001669,-0.000566,0.007254,-0.296645,0.01726,-0.954832,0.30117754554899273
1760736219.238866,-0.002416,-0.150249,0.04192,0.987756,-0.011918,0.001129,-0.013034,0.00111,0.003933,0.001453,-0.296617,0.01737,-0.954839,0.30114813809635244
1760736219.240129,-0.00249,-0.150194,0.041767,0.987771,-0.006622,0.00794,-0.007074,0.00063,0.005594,0.001217,-0.296507,0.017466,-0.954871,0.30103307897373666
1760736219.272273,-0.002584,-0.150139,0.041687,0.987782,-0.006632,0.006589,0.002761,-0.000849,0.008267,0.002935,-0.296393,0.017622,-0.954903,0.3009138691038012
1760736219.311014,-0.002679,-0.150063,0.041785,0.987789,-0.005166,0.004633,0.008713,-0.001083,0.006904,0.001581,-0.296237,0.017834,-0.954948,0.3007503770933772
