timestamp,quat_x,quat_y,quat_z,quat_w,rot_x,rot_y,rot_z,acc_x,acc_y,acc_z,grav_x,grav_y,grav_z,pitch_rad
1763541756.283584,-0.141661,-0.02314,0.184041,0.972382,-0.019156,0.009265,0.022145,-0.001758,-0.002448,0.000102,0.007141,0.284014,-0.958794,-0.007141057548660356
1763541756.28398,-0.141791,-0.023078,0.184175,0.972339,-0.024542,0.012805,0.023939,-0.00311,-0.003177,-0.001223,0.007349,0.284238,-0.958726,-0.007349063243641937
1763541756.300777,-0.14228,-0.023038,0.184671,0.972174,-0.010342,-0.005899,0.026846,-0.001174,-0.001804,0.001626,0.007757,0.285152,-0.958451,-0.007757077197667233
1763541756.343221,-0.142292,-0.023038,0.184785,0.97215,-0.004041,-0.001983,0.02513,-0.000535,-0.000251,0.00278,0.007794,0.285173,-0.958444,-0.007794081688471932
1763541756.343465,-0.142304,-0.023038,0.184899,0.972127,0.002261,0.001932,0.023414,0.000104,0.001302,0.003934,0.007832,0.285195,-0.958438,-0.007832076437128176
1763541756.371078,-0.14212,-0.023023,0.185234,0.972091,0.00949,-0.005501,0.020456,0.000229,0.001192,-9.5e-05,0.00789,0.284836,-0.958544,-0.00789008028996955
1763541756.402778,-0.142033,-0.023011,0.185389,0.972074,0.006802,-0.003689,0.019807,3.2e-05,0.002663,0.000524,0.007926,0.284665,-0.958594,-0.00792608520673835
1763541756.403094,-0.141945,-0.022999,0.185544,0.972058,0.004114,-0.001876,0.019159,-0.000165,0.004135,0.001142,0.007962,0.284493,-0.958645,-0.007962084537474995
1763541756.42997,-0.142181,-0.022907,0.185806,0.971975,-0.022451,0.015477,0.015764,0.001292,0.003858,0.002906,0.008305,0.284905,-0.95852,-0.008305093718841847
1763541756.461719,-0.142402,-0.022814,0.185887,0.97193,-0.028281,0.016498,0.01569,-0.001001,0.001434,0.002461,0.008595,0.28529,-0.958403,-0.00859510338469485
1763541756.461959,-0.142623,-0.02272,0.185969,0.971884,-0.03411,0.017519,0.015616,-0.003295,-0.000991,0.002016,0.008884,0.285676,-0.958285,-0.008884117560945674
1763541756.492872,-0.143231,-0.022565,0.186248,0.971744,-0.028262,0.010947,0.02223,-0.00129,-0.00378,0.002203,0.009499,0.286774,-0.957951,-0.009499144393151138
1763541756.522325,-0.143568,-0.022443,0.186543,0.971641,-0.004632,0.017392,0.023476,-0.000354,-0.003048,0.004337,0.009951,0.287365,-0.957769,-0.009951168599767645
1763541756.522054,-0.1434,-0.022504,0.186396,0.971693,-0.016447,0.014169,0.022853,-0.000822,-0.003414,0.00327,0.009725,0.28707,-0.95786,-0.009725155534098525
1763541756.55347,-0.143527,-0.022146,0.186865,0.971592,0.00725,0.004961,0.01773,-0.002412,0.00164,-0.002305,0.010606,0.287177,-0.957819,-0.010606196976210635
1763541756.580456,-0.143433,-0.022156,0.186959,0.971588,0.008174,0.001811,0.015897,0.000695,0.002547,-0.001882,0.010579,0.287001,-0.957872,-0.010579195972372026
1763541756.580793,-0.143339,-0.022166,0.187053,0.971583,0.009098,-0.00134,0.014064,0.003802,0.003455,-0.001459,0.010551,0.286824,-0.957925,-0.010551197691683563
1763541756.612392,-0.143419,-0.022056,0.187216,0.971542,-0.019714,0.010142,0.008117,0.003565,0.005283,0.000673,0.010845,0.286933,-0.957889,-0.010845215327176147
1763541756.641494,-0.143698,-0.022014,0.187206,0.971504,-0.042132,0.01794,0.002301,0.00392,0.008017,0.002146,0.011029,0.287449,-0.957732,-0.01102922829084882
1763541756.641685,-0.143978,-0.021972,0.187196,0.971466,-0.064551,0.025739,-0.003514,0.004275,0.010752,0.003619,0.011214,0.287965,-0.957575,-0.011214237987385012
1763541756.669969,-0.145652,-0.021607,0.186912,0.971279,-0.119098,0.038401,-0.009289,-0.001971,0.006635,0.003231,0.012475,0.291015,-0.956637,-0.012475325430619084
1763541756.704708,-0.147306,-0.021337,0.186665,0.971083,-0.1343,0.048351,-0.003196,-0.004633,-0.000229,0.000379,0.013554,0.294057,-0.955692,-0.013554412129475548
1763541756.704428,-0.146479,-0.021472,0.186789,0.971181,-0.126699,0.043376,-0.006243,-0.003302,0.003203,0.001806,0.013015,0.292537,-0.956166,-0.013015362867982619
1763541756.732433,-0.14997,-0.021166,0.186423,0.970725,-0.134724,0.032823,-0.015364,-0.004168,-0.014754,0.001795,0.014822,0.299051,-0.954122,-0.014822542890098465
1763541756.763247,-0.150462,-0.021166,0.186275,0.970678,-0.056012,0.013111,-0.016898,-0.006183,-0.026899,0.000549,0.014964,0.299985,-0.953827,-0.014964552025009233
1763541756.763493,-0.150953,-0.021166,0.186127,0.97063,0.0227,-0.006601,-0.018432,-0.008197,-0.039044,-0.000699,0.015104,0.300918,-0.95353,-0.015104580122442575
1763541756.790782,-0.148181,-0.021844,0.185661,0.971131,0.249529,-0.10806,-0.059872,0.002913,-0.001129,-0.011418,0.012597,0.295918,-0.95513,-0.012597336557766459
1763541756.823132,-0.146242,-0.022298,0.185363,0.971471,0.272373,-0.116381,-0.071909,0.008439,0.011185,-0.010995,0.010893,0.292407,-0.956232,-0.010893214622950436
1763541756.823324,-0.144303,-0.022752,0.185064,0.971808,0.295218,-0.124703,-0.083946,0.013964,0.023504,-0.010587,0.00919,0.288891,-0.957318,-0.009190128356679893
1763541756.852233,-0.142137,-0.023293,0.184748,0.972174,0.270813,-0.118756,-0.073398,0.017323,0.026048,-0.002679,0.007229,0.284972,-0.958509,-0.007229060064183292
1763541756.881522,-0.138069,-0.024286,0.184157,0.972848,0.153528,-0.066989,-0.033692,0.017526,0.027799,0.004316,0.003599,0.277585,-0.960694,-0.003599008945257008
1763541756.881593,-0.137224,-0.024459,0.184034,0.972987,0.083519,-0.030262,-0.030363,0.016362,0.031288,0.00432,0.002911,0.276037,-0.961143,-0.002911002996742486
1763541756.911536,-0.137232,-0.024543,0.183913,0.973006,0.002723,-0.019038,-0.02585,0.011597,0.026743,0.005716,0.002717,0.276084,-0.96113,-0.002717002481514171
1763541756.941892,-0.138973,-0.024622,0.183453,0.972844,-0.153349,0.022852,-0.02631,-0.005939,0.00278,0.007264,0.003083,0.279431,-0.960161,-0.003083004368206169
1763541756.942437,-0.140298,-0.024592,0.183234,0.972696,-0.182728,0.027009,-0.014333,-0.017453,-0.011039,0.004925,0.003574,0.281946,-0.959424,-0.003574006300385752
1763541756.971327,-0.143429,-0.024856,0.183058,0.972265,-0.129701,0.001027,-0.002478,-0.02023,-0.03867,0.009075,0.004178,0.288003,-0.957621,-0.004178009724846288
1763541757.002205,-0.143873,-0.024903,0.183064,0.972197,-0.047292,0.001754,0.003549,-0.019299,-0.043294,0.010577,0.004254,0.288865,-0.957361,-0.004254010343919136
1763541757.002562,-0.144318,-0.024951,0.18307,0.972129,0.035116,0.002481,0.009575,-0.018369,-0.047918,0.012078,0.00433,0.289726,-0.9571,-0.004330012850806072
1763541757.033129,-0.14366,-0.024934,0.183238,0.972195,0.095844,-0.010049,0.021673,-0.016419,-0.029653,0.003217,0.004166,0.288469,-0.95748,-0.0041660127382041915
1763541757.062121,-0.1411,-0.025046,0.183914,0.97244,0.154317,-0.032645,0.046138,-0.00234,-0.001134,-0.003777,0.003189,0.283635,-0.958927,-0.00318900544625017
1763541757.06241,-0.139841,-0.025066,0.184265,0.972555,0.147012,-0.026074,0.049819,0.003993,0.005986,-0.003181,0.00278,0.281244,-0.959632,-0.0027800042878503885
1763541757.092859,-0.138814,-0.025059,0.184602,0.972638,0.128139,-0.018411,0.046457,0.006124,0.006071,-0.00082,0.002505,0.279284,-0.960205,-0.0025050032840259182
1763541757.122325,-0.137122,-0.024932,0.185421,0.972725,0.044966,0.00575,0.04497,0.009441,0.016781,0.004181,0.002347,0.276011,-0.961152,-0.002347001277360905
1763541757.122576,-0.136918,-0.024822,0.185714,0.972701,0.003355,0.018842,0.036312,0.010346,0.020578,0.004333,0.002567,0.275581,-0.961275,-0.002567001403924548
1763541757.151595,-0.137225,-0.024627,0.185853,0.972636,-0.03891,0.030783,0.021517,0.008392,0.019673,0.006057,0.003102,0.276095,-0.961125,-0.0031020060030391137
1763541757.182669,-0.138558,-0.02415,0.185843,0.972461,-0.079157,0.042881,-0.007777,0.001462,0.0004,0.004058,0.004531,0.278461,-0.960437,-0.004531014847927617
1763541757.182906,-0.139153,-0.023952,0.185759,0.972397,-0.066983,0.042244,-0.008711,0.00045,-0.005106,0.003134,0.005117,0.279522,-0.960126,-0.005117020621360996
1763541757.211613,-0.139625,-0.02375,0.185692,0.972347,-0.044147,0.037435,0.001482,0.000643,-0.009122,0.001423,0.005668,0.280348,-0.959882,-0.00566802870171778
1763541757.244776,-0.140263,-0.023292,0.185762,0.972253,0.000458,0.022915,0.018859,-0.002578,-0.007058,-0.004483,0.006819,0.281397,-0.959567,-0.006819054218079709
1763541757.245186,-0.140285,-0.023127,0.18588,0.972231,0.014069,0.019443,0.024635,-0.002183,-0.007817,-0.003651,0.007183,0.281377,-0.95957,-0.007183064655615552
1763541757.271669,-0.140136,-0.022976,0.186055,0.972223,0.016561,0.012641,0.024729,-0.00089,-0.004694,-0.005689,0.007471,0.281037,-0.959668,-0.007471068450444559
1763541757.301766,-0.139677,-0.022711,0.186534,0.972203,0.020916,-0.001185,0.026579,-0.000594,-0.000799,-0.005057,0.00795,0.280062,-0.959949,-0.007950083710136845
1763541757.302029,-0.139518,-0.022664,0.186699,0.972196,0.010935,-0.006445,0.022793,-0.001036,0.000988,-0.004149,0.008029,0.27974,-0.960042,-0.008029087976613634
1763541757.332064,-0.139445,-0.022697,0.186884,0.97217,0.003721,-0.004315,0.026226,-0.000378,0.000361,-0.001514,0.007989,0.279612,-0.96008,-0.007989083781615704
1763541757.362534,-0.139455,-0.022658,0.187332,0.972083,-0.011057,0.004362,0.021696,-0.000738,0.002862,0.002961,0.008198,0.279612,-0.960078,-0.008198092470374556
1763541757.362899,-0.13955,-0.022643,0.187495,0.972039,-0.017908,0.003989,0.02093,-0.001413,0.003114,0.003511,0.00831,0.279787,-0.960026,-0.00831009671709547
1763541757.422191,-0.140065,-0.02256,0.18772,0.971923,-0.016791,0.011855,0.01038,0.000797,-0.002653,0.005606,0.008732,0.280735,-0.959746,-0.00873210759666201
1763541757.453017,-0.140167,-0.022412,0.18785,0.971886,-0.006431,0.013859,0.014254,0.000392,-0.000615,0.004175,0.009097,0.280873,-0.959702,-0.009097123991237726
1763541757.453898,-0.140239,-0.022053,0.188138,0.971829,0.008616,0.017418,0.011891,0.001256,0.00259,0.000413,0.009904,0.280875,-0.959693,-0.009904164350852925
1763541757.453374,-0.140268,-0.022263,0.187981,0.97185,0.003929,0.015862,0.018127,-1.4e-05,0.001423,0.002745,0.009463,0.28101,-0.959658,-0.00946314291610349
1763541757.48133,-0.140176,-0.021835,0.1882,0.97183,0.01082,0.019586,0.004514,0.003644,0.004112,-0.000748,0.010323,0.280674,-0.959748,-0.01032317983182926
1763541757.511596,-0.140104,-0.021616,0.188148,0.971856,0.010169,0.022246,-0.006553,0.004272,0.005046,-0.001587,0.010705,0.280456,-0.959807,-0.01070520638591779
1763541757.51203,-0.140091,-0.02137,0.18807,0.971878,0.004328,0.017557,-0.003022,-0.000575,0.000636,-0.003347,0.011155,0.280341,-0.959836,-0.011155227690776166
1763541757.541181,-0.140125,-0.021233,0.188008,0.971888,-0.00316,0.007972,-0.00535,-0.001872,-0.001291,-0.001797,0.011417,0.280356,-0.959828,-0.011417250190201202
1763541757.581354,-0.140226,-0.021152,0.188011,0.971875,-0.006987,0.00371,0.000828,-0.002596,-0.00369,-0.001541,0.011614,0.280518,-0.959779,-0.011614255520597961
1763541757.581577,-0.140326,-0.021071,0.188014,0.971862,-0.010813,-0.000552,0.007007,-0.003319,-0.00609,-0.001286,0.011811,0.280679,-0.959729,-0.011811274892913585
1763541757.602448,-0.140423,-0.021079,0.188139,0.971823,-0.004948,-0.000135,0.020903,0.001095,-0.00473,0.004586,0.011868,0.280865,-0.959674,-0.011868277526332785
1763541757.63168,-0.140483,-0.021045,0.188365,0.971772,-0.005808,0.01045,0.023937,0.000977,-0.002033,0.002193,0.012021,0.280962,-0.959643,-0.012021296522190488
1763541757.632044,-0.140611,-0.020941,0.188591,0.971712,-0.019832,0.009143,0.018502,-0.000807,0.00435,-0.001913,0.012338,0.281166,-0.95958,-0.012338311061542043
1763541757.661382,-0.140858,-0.020921,0.188684,0.971658,-0.030689,0.008465,0.004089,0.000283,0.002446,0.00036,0.012499,0.281627,-0.959443,-0.012499320075740634
1763541757.691779,-0.141106,-0.020846,0.18866,0.971629,-0.020073,0.016265,-0.005516,0.00286,0.000454,0.000225,0.012733,0.28207,-0.959309,-0.012733348091066762
1763541757.694738,-0.141302,-0.020752,0.188558,0.971622,-0.011822,0.011288,-0.007094,0.002032,-0.001368,-0.00341,0.012961,0.28241,-0.959206,-0.012961365850503528
1763541757.722697,-0.141409,-0.020686,0.188527,0.971614,-0.007694,-0.001291,0.000546,-0.000213,-0.000239,-0.002784,0.013122,0.282589,-0.959151,-0.013122380731708246
1763541757.753003,-0.141517,-0.020759,0.188519,0.971598,-0.008427,-0.004029,0.002708,0.002481,0.000813,-0.000672,0.013019,0.282822,-0.959084,-0.013019368472446072
1763541757.753164,-0.141607,-0.020777,0.188532,0.971582,-0.011249,0.002733,0.000436,0.004031,0.000682,0.001226,0.013022,0.282999,-0.959032,-0.013022365559662559
1763541757.783747,-0.141738,-0.020746,0.188509,0.971568,-0.010577,0.011553,-0.000328,0.003691,-0.002122,0.00414,0.013125,0.283237,-0.95896,-0.013125378531265577
1763541757.812123,-0.141855,-0.020587,0.188501,0.971556,-0.007229,0.013509,-0.000961,0.001147,-0.001271,0.00287,0.013477,0.283401,-0.958907,-0.01347740536869156
1763541757.812298,-0.141937,-0.020447,0.188496,0.971548,-0.005228,0.005159,0.002893,-0.000779,-0.001085,-0.00138,0.013778,0.283506,-0.958872,-0.01377842908391035
1763541757.843814,-0.14197,-0.020469,0.188529,0.971536,0.001138,-0.002733,0.003952,-0.000596,-0.002229,-0.001835,0.013759,0.283575,-0.958851,-0.01375943876001739
1763541757.871702,-0.141933,-0.020456,0.188569,0.971534,0.00195,-0.000996,-0.001022,0.001346,0.001498,0.000718,0.01378,0.283499,-0.958873,-0.013780443027745124
1763541757.872249,-0.14195,-0.020405,0.188555,0.971535,-0.002807,0.006552,-0.004909,0.002055,0.000172,0.000412,0.013883,0.283514,-0.958868,-0.013883440674787351
1763541757.902035,-0.141971,-0.020321,0.188484,0.971548,0.003389,0.009714,-0.00408,-0.002079,-0.003942,-4e-06,0.014033,0.283523,-0.958863,-0.014033457322004497
1763541757.931781,-0.141908,-0.020317,0.188479,0.971558,0.003182,-0.009242,0.005664,-0.00478,-0.003276,-0.005259,0.014015,0.283403,-0.958899,-0.014015452027661093
1763541757.932167,-0.141897,-0.02044,0.188614,0.971531,-0.001794,-0.012077,0.00891,3e-06,-0.000858,0.002248,0.013812,0.283425,-0.958895,-0.013812438343860891
1763541757.962998,-0.141897,-0.02054,0.188683,0.971515,0.003652,-0.009161,0.009446,0.001393,-0.002795,0.003245,0.013637,0.283461,-0.958887,-0.013637420083351687
1763541757.994452,-0.141765,-0.020549,0.188784,0.971515,0.006108,0.001799,0.008731,0.000557,-0.000281,0.002801,0.013598,0.283213,-0.958961,-0.013598414275112904
1763541757.994621,-0.141681,-0.020484,0.188885,0.971509,0.004606,0.007708,0.006308,0.000765,0.000807,0.00086,0.013722,0.283028,-0.959014,-0.013722423840949911
1763541758.024247,-0.141702,-0.020444,0.188898,0.971504,-0.007909,0.004477,-0.001459,-0.000256,0.001234,0.000131,0.013812,0.283051,-0.959005,-0.013812444511675978
1763541758.055698,-0.14185,-0.020432,0.188876,0.971487,-0.02196,-0.001301,-0.001672,0.000283,0.000916,-0.001839,0.013886,0.28333,-0.958922,-0.013886445513231855
1763541758.055865,-0.142121,-0.020514,0.18886,0.971449,-0.027108,-0.006866,0.002517,-0.001126,-0.00147,-3.2e-05,0.013826,0.283876,-0.958761,-0.013826444700792105
1763541758.084212,-0.142373,-0.020596,0.188879,0.971406,-0.022911,-0.0012,0.004425,0.001074,-0.002262,0.003416,0.013769,0.284384,-0.958612,-0.013769429517586182
1763541758.114695,-0.142554,-0.020586,0.18894,0.971368,-0.012929,0.004032,0.006587,0.000574,-0.002071,0.004673,0.013875,0.284724,-0.958509,-0.013875446792861896
1763541758.114997,-0.142632,-0.020544,0.189013,0.971344,-0.002964,0.00526,0.005653,0.000351,0.000331,0.003625,0.014008,0.284855,-0.958468,-0.014008461645782361
1763541758.148522,-0.142616,-0.020459,0.189026,0.971345,0.002477,0.010334,-0.003406,0.001416,0.004113,0.001377,0.01417,0.284794,-0.958484,-0.014170474313051396
1763541758.176607,-0.142609,-0.020338,0.188932,0.971367,-0.001585,0.008357,-0.009815,0.001085,0.004603,-0.002373,0.014376,0.284736,-0.958498,-0.014376497561678553
1763541758.176918,-0.142686,-0.02036,0.188767,0.971387,-0.013086,0.002035,-0.015863,0.00051,0.001541,-0.002231,0.014314,0.284893,-0.958452,-0.014314494941633112
1763541758.202004,-0.142837,-0.020454,0.188586,0.971398,-0.013106,-0.010271,-0.016723,0.001347,-0.004033,-0.001531,0.014135,0.285219,-0.958358,-0.014135472625448663
1763541758.233044,-0.14292,-0.020545,0.188502,0.9714,-0.002925,-0.004458,-0.00072,0.000976,-0.007015,0.00161,0.013967,0.28541,-0.958304,-0.013967450643519687
1763541758.233363,-0.142949,-0.020605,0.188549,0.971386,0.001488,-0.002537,0.008652,0.001936,-0.005474,0.002505,0.013876,0.285488,-0.958282,-0.013876443016352628
1763541758.262499,-0.142993,-0.020587,0.18865,0.97136,-0.001115,-0.00215,0.009866,-0.00026,-0.001879,7.2e-05,0.013957,0.285563,-0.958258,-0.013957457224228004
1763541758.292046,-0.14295,-0.020589,0.188767,0.971344,0.004852,-0.00689,0.00935,-0.002062,-0.00221,-0.000703,0.01397,0.28548,-0.958283,-0.01397045234810415
1763541758.292123,-0.142728,-0.020673,0.18888,0.971352,0.017822,-0.017805,0.010161,-0.000711,-0.002285,-0.000564,0.013756,0.285088,-0.958403,-0.013756429018424842
1763541758.322028,-0.142463,-0.020782,0.189024,0.971361,0.02303,-0.019171,0.007675,-0.000494,0.000561,-0.000116,0.013484,0.284622,-0.958545,-0.013484408517182805
1763541758.352156,-0.142196,-0.020887,0.189143,0.971375,0.017454,-0.0102,0.005515,0.003771,0.004278,0.001929,0.013213,0.284153,-0.958688,-0.013213383222518563
1763541758.352396,-0.142056,-0.020918,0.189218,0.97138,0.010485,3.9e-05,0.006629,0.003325,0.004042,0.002069,0.013121,0.283897,-0.958765,-0.013121376565170711
1763541758.38216,-0.142027,-0.020874,0.189234,0.971382,-0.000142,0.001472,-0.000432,0.000223,0.001855,-0.00061,0.013201,0.283826,-0.958785,-0.013201382515092487
1763541758.41281,-0.142076,-0.020959,0.189235,0.971373,-0.010614,-0.011129,0.001013,-0.000573,-0.00036,-0.000545,0.013054,0.283951,-0.95875,-0.013054369864416725
1763541758.413146,-0.142164,-0.021054,0.189262,0.971353,-0.002636,-0.005976,0.001521,-0.000163,-0.00517,0.003926,0.012911,0.284153,-0.958692,-0.012911358903961657
1763541758.441396,-0.142158,-0.021128,0.189315,0.971342,0.009432,-0.004761,0.005446,-0.001155,-0.003806,0.003359,0.012779,0.284167,-0.95869,-0.01277934334229914
1763541758.473293,-0.142027,-0.021126,0.189395,0.971345,0.015532,-0.004498,0.006919,-0.0006,0.000147,0.000765,0.012758,0.283917,-0.958764,-0.012758345884330074
1763541758.473637,-0.141875,-0.021146,0.18945,0.971356,0.011025,-0.001921,0.005879,0.001754,0.003467,-0.000823,0.012675,0.283635,-0.958848,-0.01267534602672428
1763541758.502656,-0.141755,-0.021135,0.189467,0.971371,0.004504,-0.003149,-0.002,0.003623,0.004117,-0.002994,0.012656,0.283403,-0.958917,-0.012656342646776966
1763541758.532958,-0.141662,-0.021188,0.189384,0.971399,0.004262,-0.00633,-0.011356,0.001022,0.003811,-0.003544,0.012493,0.283246,-0.958966,-0.012493323993068857
1763541758.533205,-0.14162,-0.021284,0.189262,0.971427,-0.000314,-0.015217,-0.018843,-0.000736,0.002803,-0.002921,0.012255,0.283203,-0.958982,-0.012255303093452926
1763541758.563345,-0.141611,-0.021486,0.189085,0.971459,0.002713,-0.013772,-0.017214,0.001446,-0.002084,0.003409,0.011808,0.283264,-0.958969,-0.0118082775690075
1763541758.591636,-0.141583,-0.021577,0.188969,0.971483,0.007037,-0.00675,-0.010328,-0.001267,-0.003254,0.004388,0.011586,0.283246,-0.958977,-0.01158626259340756
1763541758.591939,-0.141518,-0.021581,0.1889,0.971506,0.007103,-0.000991,-0.006585,-0.00146,-0.000652,0.003888,0.011533,0.283124,-0.959014,-0.011533255327271692
1763541758.621053,-0.14147,-0.021585,0.18884,0.971524,0.002198,0.00206,-0.003933,-0.001749,0.000459,0.003254,0.011489,0.283035,-0.959041,-0.01148925019364143
1763541758.652837,-0.141454,-0.02161,0.188781,0.971538,-0.000322,-0.009505,-0.007655,-0.004499,0.000931,0.001415,0.011417,0.283014,-0.959048,-0.011417246113038826
1763541758.653158,-0.141448,-0.021656,0.18865,0.971563,3.6e-05,0.002989,-0.017819,-0.000476,0.001004,0.005922,0.011288,0.283022,-0.959047,-0.011288239620414448
1763541758.681997,-0.141448,-0.021602,0.188385,0.971616,0.002724,0.01783,-0.027614,-0.001953,-0.001962,0.004525,0.011315,0.283006,-0.959051,-0.011315245722502722
1763541758.71268,-0.141478,-0.021496,0.188082,0.971672,-0.001641,0.020013,-0.027254,-0.001611,-0.002488,-7.5e-05,0.011445,0.283027,-0.959044,-0.011445246070450945
1763541758.712922,-0.141556,-0.021388,0.187826,0.971713,-0.0084,0.017646,-0.021033,-0.000502,-0.001221,-0.001517,0.01161,0.283138,-0.959009,-0.011610259786453457
1763541758.743332,-0.141725,-0.02128,0.187649,0.971725,-0.01193,0.014313,-0.016933,0.001031,0.001118,0.000356,0.011832,0.283422,-0.958922,-0.01183227947181839
1763541758.771848,-0.141949,-0.02116,0.187421,0.971739,-0.019068,0.022985,-0.024491,0.002452,0.000497,0.004324,0.012083,0.283806,-0.958806,-0.012083289262644403
1763541758.772199,-0.142145,-0.020955,0.187081,0.97178,-0.016743,0.032049,-0.032602,0.000706,-0.000384,0.00476,0.012458,0.284109,-0.958711,-0.012458322851412209
1763541758.802133,-0.142292,-0.020699,0.186728,0.971832,-0.008729,0.028618,-0.029633,-0.002341,-0.002524,-0.000675,0.012908,0.284298,-0.958649,-0.012908359284675673
1763541758.832105,-0.142383,-0.020358,0.186354,0.971898,0.003829,0.012011,-0.004296,0.000369,-0.001801,-0.001776,0.013495,0.284351,-0.958625,-0.013495413035923729
1763541758.831864,-0.142376,-0.020529,0.186458,0.971875,5.4e-05,0.019387,-0.015353,-0.001565,-0.003623,-0.002415,0.013192,0.284398,-0.958615,-0.013192389459251394
1763541758.862219,-0.142358,-0.02022,0.186284,0.971918,0.005505,0.015296,-0.004496,0.000825,0.000236,0.000832,0.013734,0.284253,-0.958651,-0.013734430897459071
1763541758.891077,-0.142348,-0.020041,0.18618,0.971943,-0.00027,0.022416,-0.011832,0.002239,0.002279,0.003295,0.014047,0.28417,-0.958671,-0.014047462042547783
1763541758.922935,-0.14237,-0.01977,0.185954,0.971988,-0.000915,0.036138,-0.019638,-0.000337,0.000335,0.003114,0.014515,0.284117,-0.95868,-0.014515506121366437
1763541758.923122,-0.142465,-0.019482,0.185703,0.972028,-0.007409,0.025766,-0.018272,-0.003312,0.001591,-0.002099,0.015039,0.284195,-0.958649,-0.015039560378222815
1763541758.952764,-0.14264,-0.019357,0.185497,0.972044,-0.013918,0.022191,-0.020077,0.000381,0.000929,0.004036,0.015287,0.284486,-0.958558,-0.015287599936700737
1763541758.982689,-0.142856,-0.019163,0.18514,0.972085,-0.022282,0.030181,-0.040578,0.000502,0.002945,0.004444,0.01564,0.284831,-0.95845,-0.015640639948794253
1763541758.982953,-0.143111,-0.018868,0.184626,0.97215,-0.014914,0.049043,-0.050064,0.000549,1.2e-05,0.0062,0.016158,0.285218,-0.958326,-0.01615871035873299
1763541759.014692,-0.143367,-0.018506,0.184012,0.972236,-0.021376,0.055912,-0.059415,-0.000965,0.000629,0.004956,0.016777,0.285583,-0.958207,-0.016777789039313526
1763541759.044117,-0.143704,-0.018061,0.183296,0.97233,-0.030286,0.064745,-0.064447,-0.002612,-7.8e-05,0.004319,0.017558,0.286077,-0.958046,-0.01755889812592257
1763541759.044365,-0.144129,-0.017553,0.182559,0.972415,-0.034267,0.073063,-0.06225,-0.004994,-0.001919,0.002568,0.018486,0.286715,-0.957838,-0.018487045110092325
1763541759.074032,-0.144657,-0.016994,0.181812,0.972487,-0.044502,0.076643,-0.062148,-0.004706,-0.00165,0.001344,0.019548,0.287534,-0.957571,-0.019549243752711158
1763541759.07436,-0.145277,-0.01636,0.181031,0.972551,-0.05428,0.089486,-0.069323,-0.004938,0.0013,0.004681,0.020778,0.288502,-0.957254,-0.020779491720291376
1763541759.104095,-0.145961,-0.015679,0.180146,0.972624,-0.052377,0.106109,-0.075843,-0.005052,0.00123,0.007695,0.022088,0.289579,-0.956899,-0.022089801157279345
1763541759.133977,-0.146616,-0.0149,0.179231,0.972706,-0.051748,0.104529,-0.074746,-0.007822,-0.001667,0.003542,0.02357,0.29057,-0.956563,-0.023572191837762508
1763541759.134268,-0.147224,-0.014129,0.178361,0.972786,-0.043663,0.104678,-0.068092,-0.006828,-0.003445,0.003372,0.025029,0.291476,-0.956251,-0.02503160540880909
1763541759.164385,-0.147781,-0.013314,0.177561,0.972859,-0.041191,0.105652,-0.065014,-0.002909,-0.001358,0.00498,0.026575,0.292269,-0.955967,-0.026578124965832606
1763541759.191292,-0.148385,-0.012416,0.176728,0.972931,-0.045135,0.122898,-0.066931,-0.000302,-0.001211,0.008138,0.028288,0.293126,-0.955655,-0.028291780569792428
1763541759.221962,-0.149058,-0.011385,0.175777,0.973013,-0.053349,0.148622,-0.08522,-0.000214,0.002948,0.008626,0.030247,0.294073,-0.955304,-0.030251620885780796
1763541759.222224,-0.149861,-0.01019,0.174654,0.973105,-0.062932,0.158754,-0.095896,-0.003868,0.00069,0.004426,0.032516,0.29522,-0.954876,-0.03252172742794377
1763541759.252012,-0.150717,-0.009007,0.173422,0.973205,-0.066853,0.150349,-0.102473,-0.006401,0.000464,0.000418,0.034743,0.296482,-0.954406,-0.0347500026689557
1763541759.2598,-0.151615,-0.007888,0.172153,0.973301,-0.067946,0.148558,-0.109388,-0.003049,0.000345,0.003496,0.036847,0.297849,-0.953902,-0.03685532907158755
1763541759.283962,-0.152564,-0.006745,0.17082,0.973396,-0.071112,0.158499,-0.115509,-0.004502,-0.000563,0.007739,0.038991,0.299314,-0.953358,-0.03900087384115412
1763541759.312201,-0.153486,-0.00552,0.169404,0.973506,-0.069252,0.162875,-0.114439,-0.010736,-0.006118,0.005297,0.041255,0.30071,-0.952823,-0.04126670840366681
1763541759.343289,-0.154374,-0.004343,0.168064,0.973604,-0.068817,0.156707,-0.106358,-0.012312,-0.009739,0.004454,0.043433,0.302057,-0.9523,-0.04344666393515259
1763541759.343579,-0.155255,-0.003181,0.166826,0.973681,-0.076178,0.139757,-0.09712,-0.015169,-0.006555,-0.000705,0.045608,0.303399,-0.951771,-0.04562384729080071
1763541759.371436,-0.15627,-0.002032,0.165606,0.97373,-0.082471,0.163719,-0.104778,-0.00534,-0.004203,0.007999,0.047801,0.305003,-0.951151,-0.047819222673479746
1763541759.402735,-0.157374,-0.000767,0.164277,0.973779,-0.096078,0.178675,-0.114167,-0.002818,-0.000864,0.006562,0.050213,0.306746,-0.950466,-0.05023412291030805
1763541759.40303,-0.158537,0.0006,0.162848,0.973831,-0.100078,0.188916,-0.118758,-0.003237,-0.000119,0.005378,0.052805,0.308581,-0.949731,-0.05282958206994838
1763541759.445411,-0.159734,0.002031,0.161349,0.973883,-0.098417,0.196511,-0.118228,-0.001271,-0.001252,0.005151,0.055502,0.310469,-0.948962,-0.05553052525469314
1763541759.445783,-0.16093,0.003462,0.159848,0.973929,-0.096756,0.204107,-0.117699,0.000703,-0.00239,0.00491,0.058192,0.312362,-0.948179,-0.05822490029167824
1763541759.45956,-0.162142,0.005062,0.15839,0.973959,-0.09391,0.207603,-0.110721,0.004397,-0.001804,0.000733,0.061224,0.314236,-0.947369,-0.06126229274599711
1763541759.486603,-0.163333,0.00669,0.157033,0.97397,-0.089543,0.201594,-0.094981,0.004797,-0.001436,-0.001969,0.06433,0.316062,-0.946555,-0.06437445589937153
1763541759.520417,-0.164438,0.00828,0.155839,0.973964,-0.08189,0.196815,-0.0821,0.00768,-0.001317,-0.002474,0.067381,0.317733,-0.945783,-0.06743209362114613
1763541759.520654,-0.165449,0.009869,0.154783,0.973946,-0.073089,0.182313,-0.067074,0.007082,-0.004125,-0.006253,0.07044,0.319221,-0.945059,-0.07049836941040188
1763541759.552396,-0.166306,0.011343,0.153916,0.973922,-0.060941,0.160673,-0.048892,0.007442,-0.004956,-0.007731,0.073289,0.320447,-0.944427,-0.07335477145004675
1763541759.578053,-0.167029,0.012639,0.153244,0.973888,-0.05078,0.146375,-0.036611,0.010705,-0.003305,-0.00533,0.075809,0.321462,-0.943883,-0.07588180317101922
1763541759.578296,-0.167667,0.01387,0.152693,0.973848,-0.04701,0.134704,-0.029127,0.014648,-0.00178,-0.005787,0.078218,0.322329,-0.943391,-0.0782979531262071
1763541759.610962,-0.168207,0.015068,0.152227,0.97381,-0.038518,0.122717,-0.022681,0.012384,-0.001089,-0.008453,0.080557,0.323017,-0.942959,-0.08064433962005563
1763541759.637001,-0.168706,0.01607,0.151887,0.973761,-0.040373,0.0975,-0.014108,0.010864,0.00076,-0.010297,0.082546,0.323676,-0.94256,-0.08264005814946464
1763541759.637248,-0.169188,0.016851,0.15163,0.973704,-0.041006,0.078111,-0.014749,0.013085,0.002381,-0.007988,0.084124,0.324367,-0.942183,-0.08422355617113454
1763541759.673556,-0.169668,0.017516,0.151379,0.973648,-0.039498,0.071377,-0.018752,0.017839,0.004296,-0.004319,0.085477,0.325091,-0.941812,-0.08558141704449516
1763541759.696555,-0.17012,0.018159,0.151061,0.973607,-0.034928,0.07016,-0.024406,0.017822,0.004416,-0.003479,0.086756,0.325773,-0.941459,-0.0868652130059997
1763541759.699974,-0.170507,0.018736,0.150742,0.973577,-0.030428,0.058971,-0.02387,0.016433,0.004003,-0.004644,0.087886,0.326356,-0.941152,-0.08799956487932172
1763541759.732237,-0.170849,0.01924,0.15046,0.973551,-0.024717,0.04529,-0.018663,0.013926,0.002292,-0.004711,0.088875,0.326872,-0.940881,-0.0889923680603808
1763541759.757026,-0.171161,0.019657,0.150239,0.973522,-0.018815,0.036799,-0.016207,0.013343,0.001757,-0.002237,0.089703,0.327352,-0.940635,-0.08982373146559618
1763541759.757483,-0.171393,0.02005,0.150045,0.973503,-0.011866,0.031514,-0.014167,0.011678,0.001515,-0.002334,0.090472,0.327687,-0.940445,-0.09059584437099495
1763541759.795226,-0.171525,0.020362,0.149863,0.973502,-0.002848,0.024492,-0.015791,0.00992,0.00105,-0.002183,0.091056,0.327856,-0.940329,-0.0911823273133783
1763541759.820444,-0.171566,0.020626,0.149711,0.973512,0.002039,0.017779,-0.00882,0.008884,-0.000568,-0.003268,0.091531,0.327867,-0.940279,-0.09165932344435884
1763541759.820748,-0.171577,0.020827,0.149641,0.973517,0.002098,0.010122,-0.004695,0.008501,0.000559,-0.003788,0.091901,0.327832,-0.940255,-0.09203089945724013
1763541759.852173,-0.171589,0.020998,0.149591,0.973519,-0.000466,0.007105,-0.003508,0.007662,0.00165,-0.003079,0.092221,0.327808,-0.940233,-0.09235218037169077
1763541759.876934,-0.171629,0.021109,0.149523,0.97352,-0.005275,0.004646,-0.005744,0.005263,0.001393,-0.001607,0.092424,0.327855,-0.940196,-0.09255611023592916
1763541759.877276,-0.171664,0.021158,0.149461,0.973522,-0.004585,-0.004163,-0.006648,0.001972,0.000952,-0.004404,0.09251,0.327913,-0.940168,-0.09264242041916168
1763541759.910035,-0.171697,0.021079,0.149434,0.973522,-0.002345,-0.019184,-0.003407,0.001887,0.000749,-0.001967,0.092356,0.328003,-0.940151,-0.0924878234019943
1763541759.937902,-0.171686,0.020941,0.149423,0.973529,-0.000621,-0.018914,-0.006693,0.002395,0.000848,-0.001077,0.092081,0.328024,-0.940171,-0.09221161583824049
1763541759.939635,-0.171635,0.020797,0.14942,0.973541,0.003479,-0.017679,-0.000326,0.003942,0.000474,-0.000901,0.091784,0.327972,-0.940218,-0.09191336852422723
1763541759.973325,-0.171542,0.020636,0.149478,0.973552,0.006695,-0.021812,0.002259,0.002044,-0.000519,-0.002875,0.091464,0.327841,-0.940295,-0.09159200536572804
1763541760.004757,-0.171432,0.020428,0.14956,0.973563,0.00624,-0.024951,0.004483,0.00166,0.000915,-0.001367,0.091055,0.32769,-0.940387,-0.09118131953988769
1763541760.004999,-0.171366,0.020195,0.149661,0.973564,0.001899,-0.028479,0.005326,0.002095,0.002127,0.000361,0.090616,0.327628,-0.940451,-0.09074049745593851
1763541760.033556,-0.171305,0.019955,0.149782,0.973561,-0.002986,-0.03012,0.00861,0.001206,0.00227,0.001256,0.090173,0.327575,-0.940512,-0.09029567971276846
1763541760.064879,-0.171279,0.019702,0.149955,0.973544,-0.002393,-0.029931,0.012785,0.001124,0.000304,0.002906,0.089729,0.327586,-0.940551,-0.08984984119093338
1763541760.065172,-0.171253,0.019447,0.150162,0.973522,-0.002325,-0.032449,0.015493,0.001335,0.001682,0.002227,0.089294,0.327596,-0.940589,-0.08941308080364951
1763541760.091951,-0.171227,0.019191,0.150382,0.973498,0.003948,-0.025523,0.019316,0.002382,0.002155,0.003825,0.088863,0.327606,-0.940626,-0.08898038866153916
1763541760.126018,-0.171109,0.018847,0.150742,0.97347,0.005029,-0.016522,0.008441,0.003474,0.004147,0.002327,0.088281,0.327458,-0.940733,-0.08839603636659277
1763541760.125776,-0.171187,0.019,0.150586,0.973477,0.005353,-0.021339,0.016203,0.002603,0.003962,0.002835,0.088549,0.327571,-0.940668,-0.08866512915934051
1763541760.154311,-0.171045,0.018693,0.150797,0.973476,0.007031,-0.017099,-0.001462,0.002377,0.001231,0.001684,0.087981,0.327378,-0.940789,-0.08809486019778141
1763541760.183158,-0.170783,0.018338,0.150784,0.97353,0.018219,-0.021972,-0.001709,0.000938,-0.003406,0.000642,0.087207,0.326995,-0.940994,-0.08731789392485792
1763541760.18291,-0.170935,0.018545,0.150801,0.973497,0.013258,-0.022211,-0.004655,1.4e-05,-0.001888,0.000596,0.087661,0.327216,-0.940875,-0.0877736379308529
1763541760.210363,-0.170577,0.018134,0.150825,0.973564,0.019545,-0.022139,0.00128,0.001628,-0.001477,0.000487,0.086764,0.326665,-0.941149,-0.08687325398346167
1763541760.244739,-0.17019,0.017775,0.151047,0.973604,0.012546,-0.026966,0.009343,0.002792,0.001015,-0.001144,0.086026,0.326025,-0.941439,-0.08613245334741601
1763541760.244485,-0.170373,0.017973,0.150924,0.973587,0.018626,-0.021891,0.008327,0.002507,-0.000863,-5.4e-05,0.086424,0.326321,-0.9413,-0.08653193988485519
1763541760.273391,-0.170032,0.017528,0.151145,0.97362,0.007827,-0.030671,0.001514,0.002969,0.002257,-0.000465,0.08553,0.325795,-0.941564,-0.0856346028342732
1763541760.303886,-0.16993,0.017256,0.151177,0.973638,0.006501,-0.029584,-0.00607,0.001987,0.001625,0.001623,0.084982,0.325683,-0.941652,-0.08508462958921564
1763541760.304041,-0.169815,0.016976,0.151161,0.973666,0.006773,-0.03127,-0.008626,0.000906,-0.000498,0.001945,0.084397,0.325555,-0.941749,-0.08449750991726983
1763541760.331892,-0.16974,0.016678,0.151153,0.973685,0.003149,-0.032453,-0.005249,0.000675,-0.002161,0.002085,0.083792,0.325504,-0.941821,-0.08389033158292637
1763541760.362844,-0.169671,0.016394,0.151193,0.973696,0.005222,-0.027705,0.000862,0.001315,-0.002649,0.003578,0.08323,0.325458,-0.941886,-0.08332641895611007
1763541760.36315,-0.169589,0.016186,0.151287,0.973699,0.007052,-0.019652,0.007007,0.000997,-0.001448,0.003483,0.082834,0.32536,-0.941955,-0.08292902822345286
1763541760.390462,-0.169495,0.016063,0.151396,0.9737,0.005801,-0.015954,0.00463,7.8e-05,0.000839,0.002313,0.082603,0.325211,-0.942027,-0.08269721328953807
1763541760.421408,-0.169439,0.015936,0.151455,0.973703,0.004486,-0.016162,0.002237,3.5e-05,0.000377,0.001038,0.082359,0.325139,-0.942073,-0.08245239591989034
1763541760.421668,-0.169345,0.015806,0.151505,0.973714,0.00622,-0.019484,0.001741,-0.000657,-0.002458,0.001471,0.082094,0.324997,-0.942145,-0.08218650518599221
1763541760.446767,-0.169183,0.015651,0.151595,0.973731,0.015643,-0.019695,0.007796,0.000589,-0.002813,0.002531,0.081775,0.324731,-0.942265,-0.08186638679890407
1763541760.481551,-0.168986,0.015515,0.151726,0.973747,0.016809,-0.01684,0.011613,0.000642,-0.000355,0.001809,0.081494,0.32439,-0.942406,-0.08158450679825206
1763541760.481994,-0.168827,0.015427,0.151862,0.973754,0.011587,-0.013496,0.010307,0.000376,0.001057,0.000368,0.08132,0.324107,-0.942519,-0.08140988069185974
1763541760.508492,-0.168703,0.015327,0.151967,0.973761,0.010256,-0.008468,0.00938,0.001196,-0.000364,0.001193,0.081124,0.323895,-0.942608,-0.08121328957061186
1763541760.541834,-0.168557,0.015234,0.152092,0.973768,0.009746,-0.015611,0.01093,-0.000297,0.000341,-0.000106,0.080941,0.323638,-0.942713,-0.08102960915063563
1763541760.542151,-0.168441,0.015112,0.152225,0.973769,0.008815,-0.017536,0.010167,0.000561,-0.001185,0.001422,0.080713,0.323444,-0.942799,-0.08080087040605244
1763541760.566502,-0.168325,0.014981,0.152371,0.973769,0.009519,-0.014124,0.011689,0.000115,-0.00138,0.001473,0.080472,0.323254,-0.942884,-0.08055914190755604
1763541760.601593,-0.168258,0.014877,0.152532,0.973757,0.000635,-0.019531,0.010397,-0.000814,0.001028,-0.001145,0.080303,0.323147,-0.942936,-0.0803895235639298
1763541760.602271,-0.168266,0.014705,0.152635,0.973742,-0.005603,-0.015717,0.003073,0.002171,0.002105,0.001242,0.080005,0.323207,-0.94294,-0.08009061985050502
1763541760.630858,-0.168345,0.014548,0.152648,0.973728,-0.010277,-0.00832,-0.006302,0.004165,0.002032,0.001536,0.079726,0.323403,-0.942897,-0.07981068251200309
1763541760.663011,-0.168435,0.014431,0.152589,0.973724,-0.011805,-0.009318,-0.009048,0.004149,0.00246,0.000305,0.079507,0.323613,-0.942843,-0.0795910181964298
1763541760.663326,-0.168523,0.01429,0.152517,0.973722,-0.009426,-0.011844,-0.009216,0.002432,0.001316,6.1e-05,0.079235,0.323831,-0.942791,-0.07931816080994893
1763541760.690827,-0.168606,0.014129,0.152461,0.973719,-0.008134,-0.016051,-0.007691,0.001316,0.000291,0.000389,0.078928,0.324042,-0.942744,-0.07901021504832069
1763541760.722926,-0.168675,0.013963,0.152422,0.973715,-0.005376,-0.017309,-0.005864,0.001104,0.000299,0.000102,0.078612,0.324226,-0.942708,-0.07869316600442489
1763541760.723057,-0.168719,0.01379,0.152423,0.97371,-0.00504,-0.018223,-0.00484,0.001114,0.000338,0.000684,0.078288,0.324363,-0.942687,-0.07836822621330942
1763541760.75044,-0.16872,0.013597,0.152454,0.973708,-0.000545,-0.019506,0.000159,0.001599,0.000517,0.000877,0.077922,0.324422,-0.942698,-0.07800103245806972
1763541760.782319,-0.168701,0.013429,0.152499,0.973706,0.000732,-0.015824,-0.000483,0.001422,0.002369,0.002041,0.077606,0.324434,-0.942719,-0.07768414156077699
1763541760.78274,-0.16867,0.013258,0.152521,0.97371,0.002033,-0.016879,-0.002214,8.4e-05,0.001692,0.00177,0.07727,0.324427,-0.942749,-0.0773471300703743
1763541760.806589,-0.168611,0.013083,0.152502,0.973726,0.004339,-0.016817,-0.004783,-0.000862,0.000888,0.002075,0.076906,0.324372,-0.942798,-0.07698202086308245
1763541760.841659,-0.168534,0.012899,0.152485,0.973744,0.006707,-0.015615,-0.002635,-0.000466,-0.001858,0.002572,0.076519,0.324285,-0.942859,-0.07659390712658606
1763541760.842023,-0.168429,0.01277,0.152519,0.973759,0.011982,-0.013668,0.006378,-0.002139,-0.003042,0.001642,0.076246,0.324123,-0.942937,-0.07632009391141718
1763541760.866764,-0.168295,0.012642,0.152639,0.973765,0.012038,-0.019574,0.014326,-0.003305,-0.001852,-0.000642,0.075998,0.3239,-0.943034,-0.0760713464989818
1763541760.901501,-0.16818,0.01248,0.152818,0.973759,0.009521,-0.01802,0.011854,-0.001349,0.000305,0.003548,0.075706,0.323719,-0.94312,-0.07577847655163972
1763541760.902133,-0.168065,0.01234,0.152907,0.973767,0.008638,-0.014162,0.006143,-0.00097,0.000415,0.003557,0.07543,0.323538,-0.943204,-0.07550170093616822
1763541760.927787,-0.167956,0.012254,0.152933,0.973782,0.006108,-0.00777,-0.000112,-0.000453,0.0017,0.001659,0.075238,0.323357,-0.943281,-0.07530918237036001
1763541760.964269,-0.167892,0.012173,0.152905,0.973799,0.003786,-0.007252,-0.002147,-0.000106,0.000129,0.000116,0.075051,0.323264,-0.943328,-0.0751216359024306
1763541760.964512,-0.167848,0.012067,0.152902,0.973808,0.001059,-0.009758,0.000802,6.4e-05,-0.000638,-0.000638,0.074831,0.323213,-0.943363,-0.07490101213866275
1763541760.992486,-0.167868,0.011941,0.152908,0.973805,-0.002632,-0.008074,0.000332,0.001637,0.00022,0.000833,0.074593,0.323291,-0.943355,-0.07466235368644826
1763541761.024193,-0.167899,0.011846,0.152939,0.973796,-0.003096,-0.0068,0.002705,0.000693,0.000806,0.001102,0.074428,0.323376,-0.943339,-0.07449688660007255
1763541761.024517,-0.167923,0.01177,0.152993,0.973785,-0.001307,-0.008442,0.005089,0.000506,8.6e-05,0.00089,0.074304,0.32344,-0.943327,-0.0743725306165161
1763541761.051692,-0.167904,0.011663,0.15306,0.973779,0.001648,-0.010025,0.004578,0.001633,0.000504,0.000207,0.074113,0.323433,-0.943344,-0.07418103237273946
1763541761.085302,-0.167853,0.011597,0.153114,0.97378,0.00338,-0.009255,0.002802,0.002421,0.002248,0.001161,0.073987,0.323352,-0.943382,-0.07405466152080724
1763541761.085612,-0.167795,0.011566,0.153123,0.973789,0.004453,-0.005152,-0.001801,0.001734,0.003119,0.00145,0.073913,0.323251,-0.943422,-0.07398048723670059
1763541761.117974,-0.16773,0.011537,0.15308,0.973807,0.006129,-0.00418,-0.005612,0.001039,0.000529,-0.000297,0.073823,0.323142,-0.943467,-0.07389019783803896
1763541761.118211,-0.167666,0.011509,0.153038,0.973825,0.007804,-0.003209,-0.009423,0.000343,-0.002061,-0.002043,0.073733,0.323032,-0.943511,-0.07380000116123418
1763541761.144283,-0.167594,0.011414,0.152944,0.973853,0.00818,-0.011747,-0.011839,0.000342,-0.002067,-0.002048,0.073496,0.322932,-0.943564,-0.07356233692865309
1763541761.144568,-0.167482,0.011213,0.152851,0.973889,0.008516,-0.017453,-0.008866,-0.000148,-0.002234,0.000797,0.07304,0.32279,-0.943648,-0.07310510749890042
1763541761.172664,-0.167418,0.011112,0.152871,0.973898,0.005607,-0.011361,-0.001821,0.001418,-0.000284,0.001869,0.072831,0.322699,-0.943695,-0.07289556838830469
1763541761.204259,-0.167352,0.011048,0.152836,0.973916,0.005712,0.000177,-0.002288,0.001335,0.000424,0.002555,0.072674,0.322596,-0.943743,-0.07273810427494794
1763541761.204539,-0.167263,0.010991,0.15282,0.973935,0.001676,-0.006557,-0.004047,-0.002053,2.2e-05,-0.000286,0.072531,0.322446,-0.943805,-0.07259474384485246
1763541761.241653,-0.16723,0.0109,0.152782,0.973947,0.003691,-0.014476,-0.006742,-0.002851,-0.004443,-0.001389,0.072332,0.322417,-0.94383,-0.0723952320293589
1763541761.246059,-0.16713,0.010697,0.152803,0.973963,0.003751,-0.021755,0.002934,-0.00154,-0.002746,-0.001723,0.071913,0.322287,-0.943906,-0.07197516614779624
1763541761.294418,-0.167082,0.010537,0.152897,0.973959,0.007477,-0.011054,0.011552,0.001061,-0.001836,0.003183,0.071619,0.322239,-0.943945,-0.07168038833687539
1763541761.294655,-0.166979,0.010413,0.153016,0.973959,0.002424,-0.005392,0.003147,0.00212,0.004061,0.002957,0.071385,0.322074,-0.944019,-0.07144579013220352
1763541761.322405,-0.166938,0.01037,0.153023,0.973965,0.002403,0.000483,-0.008167,0.001757,0.005586,0.002948,0.071291,0.322009,-0.944049,-0.07135150121263656
1763541761.350499,-0.166876,0.010292,0.152897,0.973996,0.002499,-0.014252,-0.014619,-0.001116,0.002664,-0.002394,0.071079,0.321926,-0.944093,-0.07113898172923162
1763541761.35066,-0.166837,0.010108,0.1528,0.97402,0.003716,-0.017431,-0.012439,0.000787,0.000453,-0.000296,0.070676,0.321916,-0.944127,-0.07073494321766645
1763541761.38331,-0.166842,0.009905,0.152665,0.974043,-0.004551,-0.012261,-0.016508,0.002399,0.00217,0.000818,0.070238,0.321998,-0.944131,-0.07029590027252923
1763541761.420686,-0.16687,0.009868,0.152501,0.974064,-0.002017,-0.006246,-0.018045,0.000699,0.001643,0.001155,0.07012,0.322074,-0.944114,-0.07017759849133008
1763541761.420955,-0.166898,0.009831,0.152336,0.974085,0.000517,-0.000231,-0.019583,-0.001001,0.001117,0.001493,0.070002,0.322151,-0.944097,-0.07005927371852155
1763541761.44231,-0.16686,0.009782,0.152129,0.974125,0.005191,0.000395,-0.026822,-0.000692,0.00256,0.001377,0.069826,0.322109,-0.944124,-0.0698828660879257
1763541761.472234,-0.166865,0.009767,0.151793,0.974176,-0.005713,0.000687,-0.037199,-0.001171,0.004505,0.001993,0.069687,0.322147,-0.944121,-0.06974354675892319
1763541761.472416,-0.166938,0.009798,0.151391,0.974226,-0.001605,0.016969,-0.043487,-0.000139,0.003038,0.005144,0.069636,0.322304,-0.944072,-0.06969236838287914
1763541761.500448,-0.167097,0.009841,0.150857,0.974281,-0.013099,0.017118,-0.049764,-0.005911,-0.001023,0.002091,0.069591,0.322629,-0.943964,-0.06964727884870626
1763541761.532872,-0.167323,0.009944,0.150343,0.974321,-0.021587,0.02647,-0.053465,-0.004483,-0.002066,0.006575,0.069688,0.323063,-0.943808,-0.0697445411640744
1763541761.533193,-0.167631,0.010169,0.149743,0.974358,-0.027054,0.046734,-0.054085,-0.010118,-0.006708,0.008131,0.07002,0.323619,-0.943593,-0.07007734904915451
1763541761.5622,-0.168081,0.010487,0.149129,0.974371,-0.045188,0.049457,-0.057724,-0.013549,-0.002289,0.006612,0.070568,0.324419,-0.943277,-0.0706267355791817
1763541761.591769,-0.168644,0.010929,0.148402,0.97438,-0.052023,0.078074,-0.075035,-0.008553,0.005824,0.01462,0.071351,0.325403,-0.94288,-0.07141165241447714
1763541761.591933,-0.16938,0.011508,0.147334,0.974408,-0.070892,0.097106,-0.108481,-0.007244,0.007595,0.010946,0.072337,0.326699,-0.942356,-0.07240024516622831
1763541761.622102,-0.170247,0.012168,0.14597,0.974454,-0.083268,0.118993,-0.133858,-0.006089,0.00684,0.009196,0.073415,0.328243,-0.941736,-0.07348111153294351
1763541761.650803,-0.172584,0.013741,0.14257,0.974525,-0.114783,0.150603,-0.163827,-0.008005,-0.000963,0.010599,0.075992,0.332456,-0.940052,-0.07606534786357426
1763541761.650562,-0.171323,0.012922,0.144379,0.974493,-0.099006,0.13084,-0.148582,-0.007203,0.001208,0.006998,0.074656,0.330175,-0.940963,-0.07472550835994626
1763541761.68103,-0.174057,0.014729,0.14063,0.974531,-0.132997,0.167943,-0.178594,-0.008754,-0.00399,0.012499,0.077664,0.335106,-0.938974,-0.07774229082627598
1763541761.712118,-0.175736,0.015922,0.138552,0.974508,-0.148289,0.193651,-0.189364,-0.008054,-0.004106,0.012603,0.07973,0.3381,-0.937727,-0.0798146984310504
1763541761.712441,-0.177574,0.017312,0.136322,0.974466,-0.165819,0.218277,-0.197915,-0.007915,-0.005998,0.014519,0.082154,0.34136,-0.936336,-0.08224665256975681
1763541761.742285,-0.179546,0.018905,0.133957,0.974403,-0.18197,0.239554,-0.20266,-0.009966,-0.008821,0.013415,0.084944,0.344835,-0.934812,-0.0850464793311563
1763541761.771505,-0.181724,0.020697,0.131472,0.974301,-0.201552,0.271675,-0.216503,-0.009021,-0.005054,0.012867,0.088113,0.348665,-0.933096,-0.08822744667441207
1763541761.771857,-0.184152,0.022657,0.128786,0.974161,-0.226853,0.28862,-0.232346,-0.013409,-0.006644,0.008216,0.091575,0.352952,-0.931149,-0.09170349690817013
1763541761.800072,-0.186821,0.024756,0.125957,0.973971,-0.250016,0.303174,-0.252479,-0.017192,-0.0104,0.008198,0.095286,0.35768,-0.92897,-0.09543079865402626
1763541761.829428,-0.189558,0.026806,0.123029,0.973762,-0.249517,0.301721,-0.239342,-0.027884,-0.021106,0.001379,0.098847,0.362573,-0.926698,-0.09900872482418498
1763541761.829748,-0.192376,0.0287,0.120362,0.973489,-0.271939,0.260844,-0.211812,-0.026326,-0.020443,-0.007343,0.102188,0.367643,-0.924336,-0.10236664745161903
1763541761.862127,-0.195263,0.030381,0.117993,0.973153,-0.273121,0.261293,-0.190594,-0.013351,-0.019159,0.001595,0.10521,0.372873,-0.921898,-0.1054051055615949
1763541761.891731,-0.198106,0.032119,0.115726,0.972795,-0.267767,0.276573,-0.175947,-0.00925,-0.020715,0.006313,0.108342,0.377999,-0.919445,-0.10855506172601842
1763541761.893979,-0.200731,0.03408,0.113617,0.972438,-0.251498,0.280556,-0.151553,-0.014798,-0.02243,-0.00177,0.111895,0.382653,-0.917091,-0.11212983841561722
1763541761.922178,-0.203202,0.035977,0.111763,0.972072,-0.235324,0.260365,-0.11953,-0.019232,-0.025692,-0.004178,0.115366,0.387013,-0.914829,-0.11562342437700512
1763541761.95258,-0.205504,0.037783,0.110352,0.97168,-0.22293,0.239669,-0.081218,-0.013538,-0.023503,-0.001683,0.118782,0.39103,-0.912681,-0.11906309369216124
1763541761.952832,-0.20771,0.039623,0.109304,0.971256,-0.21738,0.247898,-0.051515,-0.002858,-0.010936,0.004121,0.122376,0.394818,-0.910573,-0.12268350500781414
1763541761.98259,-0.209856,0.041655,0.108468,0.970804,-0.2137,0.266906,-0.036066,0.003551,-0.003622,0.0065,0.126403,0.398421,-0.908451,-0.12674203398916123
1763541762.012065,-0.211936,0.043827,0.107597,0.970353,-0.211631,0.274393,-0.037084,0.00286,-0.002311,0.000959,0.130662,0.401875,-0.906324,-0.13103672310703499
1763541762.012381,-0.213956,0.046003,0.106739,0.969904,-0.195239,0.264605,-0.034639,-0.002625,-0.003854,-0.000291,0.134911,0.405212,-0.904214,-0.13532359304743882
1763541762.043239,-0.215967,0.048157,0.105932,0.969442,-0.190114,0.259912,-0.037732,-0.002938,-0.002732,0.001549,0.139126,0.408532,-0.902079,-0.13957870895391417
1763541762.071933,-0.219952,0.05255,0.104301,0.968494,-0.186638,0.261454,-0.033551,0.002683,-0.003841,0.004301,0.147672,0.415083,-0.897719,-0.14821402677914866
1763541762.071655,-0.217966,0.050336,0.105123,0.968972,-0.184815,0.258104,-0.034449,0.000719,-0.003032,0.003043,0.143375,0.411822,-0.899914,-0.143870887868943
1763541762.102995,-0.221947,0.054764,0.103494,0.968003,-0.188149,0.269859,-0.034697,0.004122,-0.002498,0.008774,0.151963,0.418356,-0.895481,-0.15255398159684447
1763541762.130307,-0.223971,0.057,0.102647,0.967498,-0.191473,0.276327,-0.033594,0.005955,-0.002288,0.008891,0.156276,0.42168,-0.893176,-0.15691922781022202
1763541762.130642,-0.226032,0.059347,0.101796,0.966967,-0.195071,0.284742,-0.036589,0.004556,-0.002835,0.007007,0.160792,0.425048,-0.890775,-0.1614930441338826
1763541762.163137,-0.22816,0.061744,0.100947,0.966406,-0.201012,0.282467,-0.027412,0.002928,-0.00511,0.004175,0.165403,0.428525,-0.888261,-0.16616667335934243
1763541762.191983,-0.230325,0.064158,0.10025,0.965808,-0.208726,0.278673,-0.012249,0.003135,-0.005407,0.002384,0.170108,0.432035,-0.885669,-0.17093921791676914
1763541762.192311,-0.232614,0.066593,0.099705,0.96515,-0.224654,0.28217,0.001727,0.007968,-0.000472,0.006471,0.174929,0.435735,-0.882912,-0.17583376729829028
1763541762.222154,-0.235041,0.069118,0.099225,0.964434,-0.237073,0.292395,0.008946,0.009913,-0.000226,0.006184,0.179963,0.439646,-0.879957,-0.18094887281517155
1763541762.251475,-0.237555,0.071636,0.098761,0.963682,-0.246617,0.28564,0.009875,0.004253,-0.005018,0.003508,0.184991,0.443704,-0.876872,-0.1860627594034889
1763541762.251632,-0.240081,0.074035,0.098491,0.962902,-0.247259,0.262147,0.032517,0.00151,-0.008266,-0.000534,0.189868,0.447765,-0.87376,-0.1910277097789884
1763541762.283729,-0.242566,0.076235,0.098485,0.962107,-0.255903,0.238279,0.05495,0.002718,-0.002806,-0.002049,0.194471,0.451733,-0.8707,-0.19571810903668324
1763541762.311546,-0.24524,0.078347,0.098652,0.961242,-0.277297,0.236324,0.046893,0.009894,0.009661,-0.000807,0.199009,0.456012,-0.867438,-0.20034656853694635
1763541762.31171,-0.248022,0.080332,0.098641,0.960365,-0.283033,0.235656,0.021685,0.01298,0.009169,0.001037,0.203228,0.460535,-0.864064,-0.20465352612106086
1763541762.342708,-0.250777,0.082213,0.098446,0.95951,-0.278422,0.223143,0.007971,0.013205,0.006678,-0.001513,0.207144,0.465059,-0.860704,-0.20865474621210345
1763541762.373494,-0.253438,0.083971,0.098207,0.958683,-0.265819,0.196465,0.007261,0.009372,0.003133,-0.002968,0.210782,0.469441,-0.857436,-0.2123748208558441
1763541762.373801,-0.256043,0.085477,0.09807,0.957871,-0.257919,0.174042,0.013458,0.010302,0.001795,-0.002532,0.213973,0.473748,-0.854271,-0.21564029821429964
1763541762.40273,-0.258528,0.086979,0.098005,0.957075,-0.241893,0.172112,0.022082,0.013072,0.001221,-0.001754,0.217165,0.477813,-0.851196,-0.21890915683023385
1763541762.431702,-0.260901,0.088402,0.098001,0.956301,-0.236223,0.1635,0.018114,0.012628,0.003962,-0.002575,0.220214,0.481673,-0.848231,-0.22203397320990062
1763541762.43202,-0.263131,0.089755,0.097971,0.955567,-0.223921,0.15088,0.014925,0.010235,0.004434,-0.002942,0.223093,0.485291,-0.845412,-0.22498637349910092
1763541762.465628,-0.265233,0.090908,0.09789,0.954885,-0.212095,0.13762,0.009133,0.006716,0.002504,-0.00145,0.22554,0.488736,-0.842774,-0.2274973767323662
1763541762.491806,-0.267283,0.092025,0.097881,0.954207,-0.215293,0.123508,0.01326,0.007355,0.003598,-0.002415,0.227946,0.492071,-0.840182,-0.22996773625366485
1763541762.492136,-0.269415,0.093024,0.097874,0.953511,-0.218363,0.125505,0.012341,0.009215,0.002839,0.000725,0.230136,0.495571,-0.837524,-0.23221747364966952
1763541762.520992,-0.271539,0.094026,0.097941,0.952803,-0.219679,0.123716,0.022536,0.008923,0.000777,0.002279,0.232365,0.499029,-0.834851,-0.23450857873527625
1763541762.550788,-0.27361,0.095129,0.098031,0.952091,-0.207432,0.134879,0.02376,0.011653,0.002222,0.005224,0.234787,0.502352,-0.832176,-0.23699951407201936
1763541762.55095,-0.275588,0.096259,0.098061,0.951404,-0.20078,0.141122,0.023414,0.008748,0.002455,0.006584,0.237212,0.505513,-0.82957,-0.23949501158815661
1763541762.58181,-0.277584,0.097446,0.098133,0.950695,-0.206834,0.13703,0.027855,0.005615,0.004373,0.005703,0.239763,0.508671,-0.826903,-0.24212159290283616
1763541762.610917,-0.279635,0.098627,0.098231,0.949962,-0.215734,0.131381,0.02229,0.005494,0.004626,0.00485,0.242322,0.511908,-0.824154,-0.2447585235049378
1763541762.611154,-0.281752,0.099744,0.098279,0.949214,-0.21604,0.127389,0.019557,0.003417,-0.000202,0.005176,0.244739,0.515281,-0.821333,-0.2472505496676127
1763541762.642344,-0.283844,0.100815,0.098328,0.948473,-0.216288,0.127283,0.019789,0.004233,-0.000546,0.006516,0.24706,0.51861,-0.818538,-0.24964509314885078
1763541762.67187,-0.285945,0.101878,0.098366,0.947724,-0.218183,0.137104,0.019642,0.004708,0.002053,0.009228,0.249359,0.521951,-0.815713,-0.25201823104813653
1763541762.672179,-0.288129,0.103092,0.098366,0.946931,-0.227379,0.147391,0.018552,0.00457,0.004779,0.007929,0.251927,0.525395,-0.812707,-0.2546709928085144
1763541762.70297,-0.290419,0.104326,0.098397,0.946092,-0.241586,0.147465,0.02316,0.006079,0.004511,0.00588,0.254557,0.528996,-0.809545,-0.2573896980647773
1763541762.730146,-0.292759,0.105541,0.098465,0.945229,-0.243616,0.14919,0.031039,0.007739,0.001739,0.007228,0.257173,0.532664,-0.806307,-0.2600956822601303
1763541762.730388,-0.295087,0.106807,0.098656,0.944343,-0.238216,0.149611,0.042301,0.006156,0.002313,0.006874,0.259948,0.536253,-0.803032,-0.26296826568153786
1763541762.76263,-0.297373,0.108083,0.098937,0.94345,-0.23738,0.138179,0.053175,0.001933,0.002766,0.006841,0.262784,0.539728,-0.799774,-0.26590645596609447
1763541762.792265,-0.299574,0.109302,0.099325,0.942573,-0.230551,0.130874,0.061453,0.001139,0.005607,0.006136,0.265561,0.543027,-0.796617,-0.26878582257559624
1763541762.792509,-0.301722,0.110475,0.099744,0.941706,-0.221646,0.127954,0.059944,0.001984,0.006804,0.008684,0.26826,0.546228,-0.793518,-0.2715864738034175
1763541762.823395,-0.303828,0.111604,0.100172,0.94085,-0.222951,0.124747,0.05729,0.003818,0.006674,0.009225,0.270876,0.549353,-0.790466,-0.27430307439762946
1763541762.852591,-0.305905,0.112728,0.100618,0.939995,-0.218363,0.125435,0.063428,0.001997,0.00382,0.006974,0.273487,0.552414,-0.787429,-0.2770162682748386
1763541762.852897,-0.307971,0.113865,0.101138,0.939127,-0.217898,0.124313,0.074225,0.005036,0.005156,0.010478,0.276163,0.555416,-0.784377,-0.2797995198616963
1763541762.881714,-0.310018,0.115015,0.101695,0.938253,-0.21875,0.130679,0.076379,0.010453,0.007564,0.01221,0.278881,0.558358,-0.781321,-0.2826285697246625
1763541762.913036,-0.312072,0.116294,0.102179,0.937361,-0.213548,0.1455,0.066896,0.009867,0.008056,0.011659,0.281793,0.561284,-0.778173,-0.28566229216764405
1763541762.913281,-0.314125,0.117597,0.102601,0.936466,-0.210113,0.137726,0.067167,0.006469,0.003644,0.008851,0.284711,0.564204,-0.774993,-0.28870483996426094
1763541762.941069,-0.316115,0.118831,0.103094,0.935587,-0.20858,0.122494,0.078339,0.005887,0.002425,0.006933,0.287532,0.567004,-0.771901,-0.29164912007668103
1763541762.971393,-0.318087,0.119995,0.103751,0.934697,-0.209758,0.119106,0.091575,0.009791,0.003897,0.008943,0.290322,0.56973,-0.768844,-0.2945632783377662
1763541762.971697,-0.320104,0.12123,0.104531,0.933761,-0.217132,0.127549,0.09828,0.015287,0.007264,0.011158,0.293321,0.572456,-0.765674,-0.29769883147267034
1763541763.003513,-0.322114,0.122558,0.10529,0.932811,-0.22006,0.130068,0.096738,0.014691,0.010517,0.006442,0.296478,0.575135,-0.762444,-0.30100267681528575
1763541763.033258,-0.324082,0.1238,0.106089,0.931874,-0.209149,0.120103,0.103446,0.01465,0.008178,0.007425,0.299496,0.57774,-0.759289,-0.30416418227245606
1763541763.033577,-0.32596,0.124961,0.1069,0.930971,-0.201465,0.107503,0.095117,0.018671,0.0117,0.006911,0.30236,0.580201,-0.75627,-0.3071677173575324
1763541763.062295,-0.327804,0.126078,0.107677,0.930083,-0.196759,0.102172,0.086497,0.020815,0.012641,0.007094,0.30512,0.582619,-0.753298,-0.310064276949528
1763541763.091711,-0.329673,0.127094,0.108389,0.929201,-0.199787,0.096948,0.082667,0.020592,0.011669,0.007361,0.307657,0.585114,-0.750326,-0.3127295610369318
1763541763.123105,-0.331517,0.128028,0.109104,0.928333,-0.20528,0.088874,0.083333,0.021192,0.01448,0.005329,0.310045,0.587579,-0.747411,-0.3152403341704635
1763541763.123244,-0.333436,0.128934,0.109835,0.927433,-0.205093,0.085894,0.078624,0.023476,0.017073,0.007957,0.312402,0.590157,-0.744392,-0.31772058096050926
1763541763.153377,-0.335338,0.129829,0.110546,0.926538,-0.204632,0.078297,0.074536,0.020734,0.017257,0.007103,0.314724,0.592702,-0.741386,-0.32016585410201615
1763541763.153691,-0.337193,0.130604,0.111297,0.925666,-0.195008,0.062583,0.078803,0.01865,0.014538,0.00667,0.316847,0.595184,-0.738487,-0.32240351166547293
1763541763.183925,-0.338938,0.131234,0.112131,0.924838,-0.188313,0.048815,0.083823,0.022002,0.012576,0.008245,0.318752,0.597495,-0.735797,-0.32441245800035384
1763541763.211938,-0.340596,0.131861,0.113058,0.924027,-0.179515,0.048163,0.091661,0.023174,0.011432,0.012006,0.320699,0.599623,-0.733215,-0.3264674036862918
1763541763.242505,-0.342206,0.13252,0.113994,0.923222,-0.173843,0.055464,0.092672,0.021111,0.01401,0.012622,0.322711,0.601651,-0.730667,-0.32859223916201125
1763541763.242737,-0.343766,0.133173,0.114921,0.922433,-0.170495,0.049,0.091442,0.016916,0.012328,0.011226,0.324698,0.603594,-0.728179,-0.33069255365064065
1763541763.257088,-0.345276,0.133804,0.11583,0.921664,-0.165036,0.043468,0.085988,0.014959,0.012992,0.010299,0.326631,0.605459,-0.725763,-0.3327368038987418
1763541763.304068,-0.346738,0.134368,0.116695,0.920924,-0.159335,0.037151,0.081903,0.014492,0.01189,0.008651,0.32841,0.607279,-0.723436,-0.33461961689076375
1763541763.304317,-0.348193,0.134898,0.117556,0.920187,-0.159768,0.038784,0.081543,0.016838,0.011866,0.011715,0.330128,0.60909,-0.721127,-0.336439301174443
1763541763.332048,-0.349642,0.13548,0.118346,0.919451,-0.15476,0.048564,0.07478,0.017076,0.014928,0.011397,0.331892,0.61089,-0.718792,-0.3383084107317414
1763541763.362688,-0.351072,0.13605,0.119023,0.918734,-0.15173,0.046905,0.0617,0.014556,0.015156,0.009938,0.333559,0.612697,-0.716478,-0.34007628500053905
1763541763.363016,-0.352429,0.136508,0.119569,0.918075,-0.142268,0.042626,0.044307,0.012145,0.015201,0.008309,0.334929,0.614469,-0.714318,-0.34152991395545135
1763541763.391778,-0.353723,0.13691,0.11998,0.917464,-0.134227,0.037076,0.033952,0.009798,0.017039,0.006523,0.336099,0.616203,-0.712272,-0.34277185516255626
1763541763.406785,-0.355023,0.137211,0.120352,0.916868,-0.137025,0.023015,0.027237,0.009607,0.01655,0.003615,0.337065,0.61799,-0.710264,-0.3437978299803292
1763541763.42136,-0.356307,0.137373,0.120717,0.916297,-0.13322,0.015806,0.025908,0.011966,0.018097,0.004741,0.337775,0.6198,-0.708347,-0.3445520522365753
1763541763.451645,-0.357522,0.13749,0.121055,0.915762,-0.124438,0.016537,0.021477,0.014645,0.021558,0.006052,0.338377,0.621523,-0.706548,-0.34519163627767985
1763541763.483073,-0.358669,0.137611,0.121322,0.91526,-0.114954,0.017985,0.012682,0.014753,0.024828,0.005257,0.338928,0.62316,-0.70484,-0.3457772223861119
1763541763.48331,-0.359724,0.137685,0.121535,0.914806,-0.104937,0.008855,0.013269,0.012125,0.02197,0.004263,0.339349,0.624689,-0.703283,-0.34622455143048453
1763541763.510214,-0.360672,0.13769,0.121784,0.914399,-0.0937,-0.004758,0.01459,0.013707,0.02357,0.005107,0.339655,0.626059,-0.701915,-0.34655005617894136
1763541763.540993,-0.361527,0.137629,0.122067,0.914033,-0.082403,-0.007515,0.015621,0.013093,0.021955,0.009196,0.339856,0.627295,-0.700713,-0.34676381099239967
1763541763.541596,-0.362289,0.137563,0.122315,0.913708,-0.069218,-0.004679,0.015313,0.012754,0.020855,0.012946,0.340011,0.628401,-0.699646,-0.3469286265207541
1763541763.572437,-0.362904,0.137562,0.12255,0.913432,-0.052457,-0.003277,0.016829,0.01025,0.01875,0.012229,0.340254,0.629261,-0.698755,-0.3471868672420885
1763541763.600739,-0.36339,0.137583,0.122836,0.913197,-0.041853,-0.005804,0.0212,0.011261,0.020389,0.013249,0.340557,0.629894,-0.698036,-0.34750928618175153
1763541763.601023,-0.363811,0.13759,0.123118,0.912991,-0.036508,-0.007247,0.02186,0.010302,0.022353,0.012072,0.340821,0.630433,-0.697421,-0.34778990451841507
1763541763.631714,-0.364183,0.137633,0.123364,0.912803,-0.025171,-0.004706,0.015421,0.00879,0.020958,0.011898,0.341118,0.630896,-0.696856,-0.348106060971138
1763541763.661648,-0.364449,0.137654,0.123569,0.912666,-0.013264,-0.010947,0.012976,0.007796,0.018514,0.009438,0.341333,0.631221,-0.696457,-0.3483346104423571
1763541763.661973,-0.364619,0.137604,0.123741,0.912582,-0.004682,-0.012074,0.007961,0.008112,0.019556,0.009115,0.341388,0.631435,-0.696235,-0.3483933830713296
1763541763.69119,-0.364763,0.137505,0.123854,0.912524,-0.004414,-0.012669,0.002251,0.006671,0.01856,0.011833,0.341308,0.631649,-0.696081,-0.34830804079316474
1763541763.722858,-0.364922,0.137414,0.123887,0.91247,-0.000797,-0.01085,-0.004856,0.00493,0.014712,0.010311,0.34119,0.631913,-0.695899,-0.34818255878377247
1763541763.723168,-0.365031,0.137343,0.123842,0.912443,0.006447,-0.006439,-0.010431,0.004788,0.013368,0.009614,0.341047,0.632123,-0.695778,-0.3480305260675175
1763541763.753065,-0.36507,0.137259,0.123694,0.91246,0.009493,-0.007235,-0.016735,0.003969,0.013454,0.006074,0.340802,0.632268,-0.695767,-0.3477697358181438
1763541763.792256,-0.365144,0.137161,0.123497,0.912472,0.008295,-0.008631,-0.018475,0.003172,0.010834,0.005671,0.340499,0.632489,-0.695714,-0.3474475822006801
1763541763.79249,-0.365217,0.137063,0.123299,0.912484,0.007097,-0.010028,-0.020214,0.002376,0.008215,0.005268,0.340197,0.63271,-0.695661,-0.3471263544010631
1763541763.812411,-0.36528,0.136929,0.123113,0.912504,0.007314,-0.009494,-0.021909,0.001636,0.007015,0.006006,0.339838,0.632923,-0.695642,-0.3467447881579097
1763541763.84143,-0.365295,0.136807,0.122931,0.912541,0.011903,-0.009502,-0.018317,0.001661,0.005347,0.005901,0.339496,0.633057,-0.695687,-0.346381183952182
1763541763.841602,-0.365277,0.136689,0.122762,0.912589,0.011174,-0.006938,-0.019878,0.003534,0.005286,0.00719,0.339166,0.633135,-0.695778,-0.34603011149193824
1763541763.866222,-0.36525,0.136613,0.122544,0.91264,0.012225,0.003971,-0.022038,0.004871,0.004167,0.008917,0.338875,0.633201,-0.695859,-0.34572097519183353
1763541763.901618,-0.365239,0.136618,0.122275,0.91268,0.009759,0.009198,-0.024157,0.003982,0.00323,0.007415,0.338696,0.633283,-0.695872,-0.34553060579588596
1763541763.90227,-0.365259,0.136616,0.122019,0.912707,0.006064,0.002812,-0.021745,0.003291,0.000613,0.004097,0.338518,0.633409,-0.695844,-0.3453414144725358
1763541763.930547,-0.365258,0.136598,0.12181,0.912737,0.008409,-0.00194,-0.016349,0.004445,-0.00084,0.003331,0.33834,0.633492,-0.695855,-0.34515225587207454
1763541763.961811,-0.365218,0.136606,0.121667,0.912771,0.012284,0.000421,-0.009891,0.007767,-0.000921,0.002956,0.338251,0.63348,-0.695909,-0.3450577272918314
1763541763.962052,-0.365167,0.13664,0.12153,0.912805,0.010489,0.00027,-0.008226,0.006635,0.000312,0.001099,0.338208,0.633441,-0.695965,-0.34501213363302036
1763541763.986463,-0.365108,0.136644,0.121448,0.912839,0.006633,-0.003351,-0.004452,0.0056,0.001905,-0.000859,0.338151,0.633379,-0.69605,-0.34495134475321454
1763541764.021649,-0.365054,0.136596,0.121433,0.91287,0.005091,-0.009037,-0.00347,0.006827,0.002292,0.000487,0.338048,0.633319,-0.696154,-0.34484205426923353
1763541764.021886,-0.36503,0.136528,0.121424,0.912891,0.001119,-0.010877,-0.007386,0.006322,0.003784,0.001149,0.337917,0.63331,-0.696226,-0.3447028092860247
1763541764.046367,-0.365023,0.136416,0.121394,0.912914,0.003306,-0.012033,-0.008028,0.004916,0.000272,0.003819,0.337696,0.63335,-0.696297,-0.3444679661826794
1763541764.082722,-0.364962,0.136297,0.121387,0.912957,0.006819,-0.017482,-0.002869,0.002298,-0.000237,0.00203,0.337471,0.633301,-0.696451,-0.3442288435062936
1763541764.083187,-0.364877,0.136184,0.121445,0.913001,0.00941,-0.016146,-0.001007,0.003037,-0.000249,0.00216,0.337296,0.633188,-0.696638,-0.344043067364998
1763541764.108887,-0.364793,0.136073,0.12152,0.913041,0.007911,-0.018094,0.000322,0.001759,0.001275,0.002781,0.337139,0.633071,-0.696821,-0.3438761265505064
1763541764.146302,-0.364722,0.135916,0.121589,0.913083,0.005803,-0.016128,-0.002182,0.002058,0.002629,0.002488,0.336898,0.632992,-0.697009,-0.34362022713576595
1763541764.146487,-0.364676,0.135753,0.121625,0.913121,0.003039,-0.020813,-0.004284,0.001403,0.002135,0.002536,0.336626,0.632964,-0.697165,-0.3433315604067972
1763541764.17178,-0.364643,0.13561,0.12168,0.913148,0.003143,-0.019146,-0.004013,0.001021,0.001475,0.004559,0.336403,0.632945,-0.697291,-0.3430944698075638
1763541764.202822,-0.36463,0.135474,0.121733,0.913167,0.003938,-0.014912,0.000517,-0.000256,-0.000407,0.006084,0.336196,0.632952,-0.697384,-0.3428747857200419
1763541764.203118,-0.364579,0.135401,0.121808,0.913188,0.006309,-0.010757,0.005204,-0.001092,0.00071,0.005527,0.33611,0.632872,-0.697497,-0.34278373294974446
1763541764.230323,-0.364479,0.135366,0.121903,0.91322,0.013165,-0.008611,0.007918,5e-06,0.002095,0.005401,0.336099,0.632696,-0.697662,-0.34277204153800894
1763541764.26172,-0.364354,0.135326,0.121973,0.913266,0.014546,-0.006586,0.001547,0.000355,0.006301,0.004799,0.336061,0.632492,-0.697866,-0.34273150783763445
1763541764.262177,-0.364283,0.135287,0.121982,0.913299,0.004715,-0.011585,-0.006352,-0.001473,0.007509,0.00177,0.335987,0.632393,-0.697991,-0.342653023725387
1763541764.286976,-0.36432,0.135168,0.12194,0.913308,-0.003084,-0.006912,-0.009685,0.000476,0.004137,0.005601,0.335749,0.632508,-0.698002,-0.34240017668662925
1763541764.32278,-0.364421,0.135104,0.12187,0.913286,-0.004528,0.00066,-0.00868,0.002363,0.002172,0.005638,0.335602,0.632711,-0.697889,-0.34224404812662257
1763541764.323024,-0.36449,0.135102,0.121788,0.91327,0.000764,0.006029,-0.003095,0.002949,0.002406,0.00295,0.33555,0.632847,-0.69779,-0.3421890175344773
1763541764.350447,-0.364527,0.135159,0.121733,0.913254,-8e-06,0.003408,-0.002146,0.001879,0.004459,0.001083,0.335619,0.632905,-0.697704,-0.3422623164975032
1763541764.381595,-0.364591,0.13515,0.121718,0.913232,-0.006038,-0.003646,0.000211,0.000252,0.004208,0.001239,0.3356,0.633013,-0.697615,-0.34224218539578577
1763541764.381747,-0.364654,0.135163,0.121786,0.913196,-0.001134,-0.002717,0.007519,0.002563,0.00273,0.003195,0.33568,0.633079,-0.697517,-0.3423270154906852
1763541764.406454,-0.364655,0.135176,0.12189,0.91318,0.002333,-0.00346,0.009186,0.004047,0.002598,0.00437,0.335775,0.633038,-0.697508,-0.3424279899256565
1763541764.442944,-0.364614,0.135213,0.12199,0.913177,0.008225,-0.003149,0.010009,0.004136,0.00392,0.004168,0.335906,0.632924,-0.697549,-0.3425669130155739
1763541764.443207,-0.364544,0.135229,0.122076,0.913191,0.010344,-0.002409,0.008177,0.00319,0.004195,0.004245,0.335983,0.632781,-0.697641,-0.342648825278733
1763541764.472887,-0.364448,0.135258,0.122135,0.913217,0.010517,-0.001548,0.003667,0.004982,0.005848,0.003861,0.336064,0.632601,-0.697766,-0.34273463095118933
1763541764.503297,-0.364356,0.135262,0.122151,0.913251,0.012683,-0.001236,0.000524,0.00633,0.007568,0.002054,0.336069,0.632453,-0.697898,-0.3427398754317395
1763541764.505074,-0.364267,0.135299,0.122148,0.913282,0.013581,-0.001902,-0.003118,0.005922,0.007629,0.000291,0.336121,0.632304,-0.698007,-0.34279532652075423
1763541764.531779,-0.364161,0.135293,0.122164,0.913323,0.013989,-0.010003,0.006043,0.003014,0.004418,5.4e-05,0.336108,0.632137,-0.698165,-0.3427813995386436
1763541764.563186,-0.363992,0.135186,0.122276,0.913391,0.018412,-0.023209,0.010122,0.002942,0.004514,0.000785,0.33597,0.631874,-0.698469,-0.34263498699266404
1763541764.563422,-0.363747,0.135021,0.12242,0.913494,0.033081,-0.025919,0.001743,0.008364,0.009468,0.003758,0.335742,0.631503,-0.698914,-0.34239293139323185
1763541764.590473,-0.363428,0.134842,0.122416,0.913648,0.038369,-0.026159,-0.009394,0.007268,0.010963,0.001672,0.335374,0.631076,-0.699476,-0.3420023162332611
1763541764.620382,-0.363055,0.134615,0.122289,0.913847,0.043845,-0.03065,-0.018555,0.004952,0.009528,-0.00114,0.334829,0.630629,-0.70014,-0.3414238533469493
1763541764.620673,-0.362628,0.134285,0.12217,0.91408,0.049787,-0.038545,-0.020882,0.006601,0.009764,-0.000718,0.334099,0.630131,-0.700937,-0.34064915657127925
1763541764.646449,-0.362171,0.133939,0.122078,0.914324,0.056154,-0.042614,-0.021041,0.009602,0.011763,0.000148,0.333354,0.629582,-0.701784,-0.3398589771683804
1763541764.681663,-0.361668,0.133578,0.121977,0.91459,0.063166,-0.046249,-0.020182,0.009747,0.014568,-7.2e-05,0.332568,0.628969,-0.702707,-0.3390251604839223
1763541764.681987,-0.361076,0.133145,0.121887,0.914899,0.071364,-0.055471,-0.018686,0.012082,0.017417,0.00013,0.331648,0.628239,-0.703793,-0.33805004349616935
1763541764.710073,-0.360376,0.132637,0.121788,0.915262,0.084862,-0.066508,-0.025664,0.014951,0.021257,-0.00053,0.330574,0.62737,-0.705073,-0.3369116641347799
1763541764.743187,-0.359528,0.132015,0.121629,0.915706,0.101831,-0.078091,-0.036833,0.016659,0.022449,-0.000139,0.329233,0.626331,-0.706623,-0.3354910077014945
1763541764.74334,-0.358553,0.131281,0.121388,0.916226,0.11555,-0.088558,-0.050767,0.01894,0.026521,-0.00035,0.327614,0.625159,-0.708411,-0.3337769468273848
1763541764.770455,-0.357495,0.130437,0.121025,0.916808,0.125651,-0.096172,-0.067266,0.022644,0.030102,-0.000932,0.325703,0.623936,-0.710367,-0.33175520248145174
1763541764.801714,-0.356369,0.129454,0.120511,0.917453,0.133698,-0.10702,-0.083279,0.023157,0.032154,-0.001753,0.323429,0.622703,-0.712485,-0.32935098498742843
1763541764.80199,-0.355184,0.128323,0.119939,0.918146,0.140047,-0.124898,-0.095084,0.020569,0.030705,-0.001592,0.32084,0.62144,-0.714754,-0.32661636628672536
1763541764.826585,-0.353927,0.127002,0.119305,0.918897,0.153207,-0.139899,-0.104195,0.01567,0.02394,-0.000294,0.317853,0.620142,-0.717212,-0.32346424488260056
1763541764.861645,-0.352538,0.125508,0.118714,0.919713,0.16559,-0.161568,-0.101689,0.011706,0.016401,0.001508,0.314564,0.618668,-0.71993,-0.31999733405571745
1763541764.861976,-0.350958,0.123904,0.118229,0.920597,0.183675,-0.17704,-0.089248,0.007908,0.012098,0.002707,0.311118,0.616884,-0.722953,-0.3163689726269429
1763541764.889256,-0.349277,0.122271,0.117836,0.921504,0.192028,-0.181082,-0.085389,0.006658,0.011299,0.006332,0.307662,0.614904,-0.726111,-0.3127348658954531
1763541764.921423,-0.347483,0.120676,0.117482,0.922437,0.202887,-0.17344,-0.080762,0.004249,0.00994,0.008082,0.304278,0.612709,-0.729385,-0.30918041471051894
1763541764.921806,-0.345623,0.119168,0.117131,0.923376,0.208233,-0.169679,-0.078484,0.000879,0.007073,0.007268,0.30104,0.610364,-0.732687,-0.3057831309642021
1763541764.946523,-0.343713,0.117673,0.116732,0.924331,0.212081,-0.167413,-0.081795,-0.000728,0.00531,0.006523,0.297782,0.607937,-0.736029,-0.3023683737309981
1763541764.981913,-0.341821,0.116218,0.116294,0.925271,0.208936,-0.16139,-0.085012,-0.00382,0.003671,0.006545,0.294571,0.605524,-0.739303,-0.29900652042584447
1763541764.982241,-0.33999,0.114801,0.115782,0.926187,0.204806,-0.149039,-0.089485,-0.006846,-0.001655,0.007361,0.291384,0.603205,-0.742455,-0.29567325004081635
1763541765.006458,-0.338192,0.11344,0.115188,0.927086,0.201796,-0.146125,-0.091403,-0.011895,-0.007299,0.002515,0.288249,0.600933,-0.745515,-0.29239763245562395
1763541765.00681,-0.336392,0.112079,0.114593,0.92798,0.198787,-0.14321,-0.093321,-0.016939,-0.012926,-0.002347,0.28511,0.598644,-0.748557,-0.2891211994393049
1763541765.04216,-0.334562,0.11074,0.114032,0.928871,0.208134,-0.151673,-0.091553,-0.013195,-0.016026,0.001403,0.282029,0.596274,-0.75161,-0.2859082114041541
1763541765.042484,-0.332629,0.109345,0.113431,0.929804,0.207671,-0.136056,-0.088094,-0.012062,-0.015675,0.002619,0.278799,0.593753,-0.754804,-0.2825432103413464
1763541765.081623,-0.330833,0.108126,0.112822,0.930661,0.191372,-0.118398,-0.089181,-0.015013,-0.018095,0.004585,0.275908,0.591388,-0.757717,-0.2795342364944175
1763541765.101319,-0.329099,0.106973,0.1122,0.931484,0.173553,-0.111157,-0.08274,-0.018533,-0.025699,-0.000637,0.273137,0.589096,-0.760501,-0.27665257210948385
1763541765.131084,-0.327459,0.105873,0.111657,0.932252,0.164281,-0.102646,-0.070755,-0.015566,-0.027683,0.001604,0.270527,0.586905,-0.763123,-0.2739405345663081
1763541765.131324,-0.326008,0.104856,0.111179,0.932933,0.136394,-0.100357,-0.074439,-0.01403,-0.02654,0.0007,0.268138,0.584971,-0.765448,-0.2714597747458674
1763541765.161926,-0.32478,0.103972,0.110563,0.933533,0.118736,-0.073588,-0.085446,-0.015892,-0.025733,-0.00312,0.265939,0.583395,-0.767415,-0.269177997932673
1763541765.162266,-0.323747,0.103081,0.109908,0.934068,0.098666,-0.072145,-0.081534,-0.013692,-0.025649,-0.001593,0.263734,0.582144,-0.769124,-0.2668913575548599
1763541765.186486,-0.322832,0.102352,0.109261,0.93454,0.084595,-0.054277,-0.077558,-0.011566,-0.024275,0.001426,0.26185,0.581033,-0.770607,-0.2649385997456884
1763541765.222318,-0.32208,0.101746,0.108639,0.934939,0.065659,-0.04161,-0.068516,-0.008973,-0.022689,0.001767,0.260234,0.580142,-0.771825,-0.26326450385110894
1763541765.26534,-0.321628,0.10131,0.108027,0.935212,0.045629,-0.013902,-0.093773,-0.00609,-0.022062,0.001654,0.258982,0.579693,-0.772583,-0.2619680758378219
1763541765.265751,-0.321177,0.100874,0.107415,0.935485,0.025599,0.013806,-0.11903,-0.003208,-0.021434,0.00154,0.25773,0.579241,-0.77334,-0.260672142762164
1763541765.26639,-0.320918,0.100684,0.106582,0.935689,0.010961,0.008172,-0.076193,-0.013948,-0.025018,-0.012324,0.256826,0.579096,-0.773749,-0.25973669909056396
1763541765.306942,-0.321078,0.10052,0.105777,0.935743,-0.03261,0.019369,-0.084435,-0.007236,-0.026179,-0.005826,0.256047,0.579628,-0.773609,-0.25893071117788263
1763541765.307328,-0.321448,0.100272,0.105131,0.935716,-0.042491,-0.009184,-0.069506,-0.004324,-0.026111,-0.007712,0.25524,0.580485,-0.773234,-0.25809577002340645
1763541765.342856,-0.321724,0.099835,0.10463,0.935724,-0.022814,-0.038031,-0.068925,-0.003821,-0.013248,-0.009181,0.254161,0.581199,-0.773053,-0.25697998196197214
1763541765.343101,-0.321528,0.09908,0.104247,0.935914,0.019562,-0.065415,-0.046927,0.004984,-0.004652,-0.010378,0.252497,0.581188,-0.773605,-0.25526014829070925
1763541765.370281,-0.321032,0.098287,0.104114,0.936183,0.048085,-0.099217,-0.026955,0.00043,-0.002384,-0.010383,0.250878,0.580623,-0.774556,-0.2535871771798261
1763541765.402501,-0.319849,0.097197,0.104664,0.93664,0.127982,-0.135974,0.062512,0.001826,-0.018159,0.002224,0.249031,0.57882,-0.776499,-0.2516796402690841
1763541765.427972,-0.318598,0.096398,0.105353,0.937072,0.076164,-0.108855,0.027483,0.018052,0.002269,-0.003366,0.247795,0.576787,-0.778405,-0.2504036145742674
1763541765.428213,-0.317637,0.09599,0.106002,0.937367,0.087596,-0.056322,0.074619,0.009069,0.007881,0.013289,0.247296,0.575134,-0.779785,-0.24988869639410508
1763541765.465367,-0.316692,0.0958,0.106998,0.937593,0.091142,-0.055585,0.106719,0.00592,-0.004054,0.004615,0.247414,0.573355,-0.781057,-0.2500104036876876
1763541765.465652,-0.315556,0.095841,0.108307,0.937821,0.094267,-0.044217,0.126514,-0.003545,0.000753,0.011067,0.248118,0.571109,-0.782478,-0.2507370390937486
1763541765.494557,-0.314786,0.095984,0.109502,0.937926,0.068549,-0.043914,0.115283,-0.003965,0.00212,0.006032,0.248991,0.569471,-0.783394,-0.25163831761250305
1763541765.525642,-0.314123,0.096059,0.110735,0.937996,0.064104,-0.043139,0.127846,-0.00181,-0.00279,0.008479,0.249774,0.568019,-0.784198,-0.2524469614705041
1763541765.525889,-0.313473,0.096277,0.112061,0.938034,0.045336,-0.020966,0.140845,-0.002916,0.001316,0.009967,0.250879,0.566519,-0.784931,-0.25358809506801505
1763541765.55229,-0.313091,0.09661,0.11332,0.937976,0.014208,-0.003707,0.13017,-0.003808,0.012394,0.010346,0.252196,0.565449,-0.78528,-0.254948931165079
1763541765.584013,-0.313025,0.096918,0.114472,0.937826,5e-06,-0.00375,0.117133,-0.00344,0.006943,0.005169,0.25345,0.564937,-0.785245,-0.25624499206036294
1763541765.584316,-0.312877,0.097258,0.115579,0.937705,0.017907,-0.002238,0.117229,-0.002239,0.001582,0.002137,0.254722,0.56429,-0.785298,-0.2575602819155497
1763541765.612033,-0.312645,0.097585,0.116579,0.937624,0.022795,0.001337,0.107011,-0.001421,0.002361,-0.002063,0.255892,0.563535,-0.78546,-0.25877033571102814
1763541765.643979,-0.312408,0.097968,0.117485,0.93755,0.027229,0.006836,0.106004,-0.00431,0.002096,-0.005161,0.257107,0.562777,-0.785607,-0.26002732552620056
1763541765.669947,-0.312064,0.09827,0.118408,0.937517,0.033935,-0.007818,0.100905,-0.006929,0.00319,-0.005907,0.258161,0.56186,-0.785918,-0.2611180760228462
1763541765.672325,-0.311617,0.098507,0.119298,0.937528,0.050645,-0.013336,0.091965,-0.005076,0.005948,-0.003503,0.259057,0.560796,-0.786382,-0.2620458344476432
1763541765.70376,-0.311032,0.098596,0.120015,0.937622,0.049012,-0.032772,0.061334,-0.008003,0.008997,-0.006354,0.259549,0.559595,-0.787076,-0.2625550514382215
1763541765.733451,-0.310519,0.098448,0.12054,0.93774,0.042836,-0.03024,0.043035,-0.006052,0.004056,-0.003311,0.259498,0.558639,-0.787771,-0.26250237430321094
1763541765.73367,-0.310153,0.098306,0.120954,0.937823,0.022095,-0.027843,0.042085,-0.001936,0.003365,-0.001078,0.259416,0.557955,-0.788283,-0.26241738086419647
1763541765.762467,-0.309843,0.098174,0.121401,0.937881,0.028853,-0.029096,0.045225,-0.000686,0.002851,0.002137,0.259381,0.557355,-0.788719,-0.2623811096273761
1763541765.786621,-0.30955,0.098061,0.121822,0.937935,0.025049,-0.012545,0.039743,0.000452,0.003085,0.003651,0.259369,0.556784,-0.789126,-0.2623687133309027
1763541765.788271,-0.309384,0.098063,0.122065,0.937958,0.00313,0.003722,0.012192,0.002327,0.007954,0.002805,0.259487,0.556438,-0.789331,-0.2624909457367684
1763541765.824032,-0.309565,0.098161,0.121966,0.937901,-0.029305,0.019812,-0.013004,-0.001339,0.00621,-9.5e-05,0.259643,0.556738,-0.789068,-0.26265250673126694
1763541765.824331,-0.310073,0.098298,0.121717,0.937751,-0.052948,0.033309,-0.021884,-0.000987,0.000802,0.000113,0.25984,0.557614,-0.788384,-0.2628565712271087
1763541765.850002,-0.310675,0.098479,0.12154,0.937556,-0.051361,0.022997,-0.005118,0.000961,-0.001887,-0.002365,0.260179,0.558612,-0.787566,-0.2632074908374432
1763541765.881767,-0.311143,0.098643,0.121549,0.937382,-0.036481,0.017689,0.006074,0.002428,0.00042,-0.000803,0.260571,0.55934,-0.786919,-0.26361358770421156
1763541765.906468,-0.311504,0.098816,0.121557,0.937243,-0.024581,0.021052,0.000675,-0.001028,0.001973,-1.4e-05,0.26096,0.559887,-0.786401,-0.26401651331880965
1763541765.908373,-0.311714,0.098884,0.121467,0.937178,-0.01483,0.015886,-0.006885,-0.002878,0.001247,0.000937,0.261069,0.560241,-0.786112,-0.2641295667477549
1763541765.943583,-0.311857,0.098971,0.121345,0.937137,-0.011594,0.00833,-0.012711,-0.002055,0.000324,-0.003576,0.261183,0.560486,-0.7859,-0.2642475494645842
1763541765.968953,-0.312026,0.099121,0.121103,0.937096,-0.006008,0.019551,-0.007309,0.000308,-0.006759,0.001604,0.261347,0.560789,-0.78563,-0.2644172979027208
1763541765.968707,-0.311937,0.099019,0.12123,0.93712,-0.003344,0.007108,-0.008185,-0.000766,-0.005369,0.001346,0.261217,0.560637,-0.785781,-0.2642827693752692
1763541766.005314,-0.312081,0.099299,0.121008,0.937071,0.000567,0.014955,0.001106,-0.003613,-0.007229,-0.003318,0.261628,0.560853,-0.78549,-0.26470859181576695
1763541766.005641,-0.312083,0.099414,0.120977,0.937062,-0.000368,0.010981,0.003253,-0.001913,-0.003589,-0.002053,0.261823,0.560829,-0.785442,-0.2649106687716302
1763541766.031885,-0.312161,0.099557,0.120914,0.937029,-0.012443,0.014356,-0.009186,-0.000904,0.000259,-0.001502,0.262064,0.560932,-0.785288,-0.2651604010274363
1763541766.062088,-0.312333,0.099655,0.120753,0.936982,-0.021806,0.018513,-0.016368,0.002986,-0.000618,-0.002429,0.26218,0.561234,-0.785033,-0.2652807025288311
1763541766.088161,-0.312528,0.099711,0.120615,0.936929,-0.021517,0.008591,-0.006596,0.001724,-0.003209,-0.004946,0.262235,0.56158,-0.784768,-0.2653375147439326
1763541766.090527,-0.312664,0.099744,0.120558,0.936887,-0.017891,0.005416,-0.005046,0.001986,-0.001288,-0.002373,0.262286,0.561813,-0.784584,-0.2653903999236051
1763541766.123416,-0.312781,0.099757,0.120546,0.936848,-0.010224,0.005896,-0.000351,0.00131,1.4e-05,0.000434,0.262323,0.562006,-0.784433,-0.2654288259368809
1763541766.14675,-0.312873,0.0998,0.120516,0.936817,-0.006549,0.007816,-0.003018,0.003054,0.001494,0.000142,0.2624,0.562154,-0.784301,-0.265508661135398
1763541766.148413,-0.3129,0.099825,0.12048,0.93681,-3.4e-05,0.002213,-0.000913,0.001656,-0.001038,-0.001682,0.262431,0.562203,-0.784256,-0.26554068118549223
1763541766.180713,-0.31285,0.099868,0.120473,0.936823,0.00616,0.001429,-0.000116,0.001377,0.000667,-0.002204,0.262497,0.562107,-0.784303,-0.26560902010506515
1763541766.208034,-0.312806,0.099869,0.120426,0.936844,0.002495,0.000692,-0.00237,0.001108,-0.000144,-0.00115,0.262463,0.562047,-0.784357,-0.2655738649350284
1763541766.208271,-0.312814,0.099868,0.120401,0.936844,8.1e-05,0.001115,-0.001595,0.000798,0.000149,-0.001434,0.262448,0.562067,-0.784348,-0.26555825331704636
1763541766.243167,-0.312831,0.0999,0.120338,0.936844,-0.001786,0.00301,-0.005589,-0.000833,-0.000303,-0.002304,0.262472,0.562103,-0.784314,-0.2655831614741416
1763541766.266532,-0.312813,0.099882,0.120292,0.936857,0.005732,-0.001677,0.002115,-0.002917,-0.004862,-0.002558,0.262409,0.562091,-0.784344,-0.2655178047420734
1763541766.268924,-0.312755,0.099881,0.120325,0.936872,0.001316,-0.004848,0.000739,-0.003073,0.000255,-0.002447,0.262416,0.561987,-0.784416,-0.2655250969797091
1763541766.30315,-0.312795,0.099786,0.12033,0.936868,-0.009251,-0.004363,-0.006661,-0.001006,0.001626,0.000954,0.26225,0.562082,-0.784404,-0.2653529545328964
1763541766.330814,-0.312881,0.099715,0.120243,0.936859,-0.008567,-0.004262,-0.007897,-0.001297,-0.001048,0.000468,0.262082,0.56227,-0.784325,-0.2651789522556046
1763541766.33095,-0.312931,0.099611,0.120146,0.936865,-0.003623,-0.004829,-0.008904,-0.001368,-0.001703,0.000349,0.26184,0.562412,-0.784304,-0.2649281989298094
1763541766.361751,-0.312911,0.099578,0.120079,0.936884,0.000373,0.002485,-0.005764,-0.000586,3.6e-05,-0.000422,0.261733,0.562409,-0.784342,-0.26481730385192626
1763541766.395249,-0.312983,0.099581,0.119977,0.936873,-0.005582,0.000916,-0.006867,-0.002465,-0.002391,-0.000153,0.26169,0.562556,-0.784251,-0.2647727346604103
1763541766.395589,-0.313053,0.099578,0.119908,0.936859,-0.00958,0.002933,-0.007924,-0.001554,-0.000381,-0.000429,0.261657,0.562692,-0.784164,-0.26473863669377473
1763541766.422027,-0.313169,0.099524,0.119875,0.93683,-0.009258,-0.001495,-0.000911,-0.001871,-0.002205,0.000736,0.261557,0.562912,-0.78404,-0.2646349127377932
1763541766.44688,-0.313246,0.09946,0.119894,0.936809,-0.011394,-0.004458,0.00237,0.000266,-0.000863,-0.000424,0.261462,0.563054,-0.78397,-0.2645364281206293
1763541766.44721,-0.313301,0.099476,0.119985,0.936777,-0.003697,0.002863,0.004639,0.001637,0.000825,0.002162,0.261556,0.563115,-0.783894,-0.26463399292473044
1763541766.482477,-0.313352,0.099536,0.119983,0.936754,-0.002519,0.008782,-0.000967,0.000942,0.001453,0.001465,0.261674,0.563181,-0.783807,-0.26475629336958306
1763541766.505454,-0.313377,0.099614,0.119887,0.936749,-0.003424,0.009969,-0.010416,-2e-05,0.002427,-0.001701,0.261766,0.563226,-0.783744,-0.2648516038914671
1763541766.511553,-0.313399,0.099599,0.119734,0.936763,0.001222,0.003468,-0.015411,0.000989,-0.001115,-0.002561,0.261651,0.563311,-0.783722,-0.2647323048493831
1763541766.542292,-0.313416,0.099601,0.119595,0.936775,-0.000847,-0.001527,-0.016101,0.000452,-0.002352,-0.00367,0.261572,0.563376,-0.783701,-0.2646505919417699
1763541766.566469,-0.313457,0.099589,0.11946,0.93678,0.001468,0.002244,-0.006907,-0.000247,-0.00393,-0.000804,0.261477,0.563486,-0.783654,-0.26455208520573664
1763541766.574419,-0.313501,0.099584,0.119395,0.936774,-0.00407,0.003324,-0.005411,-0.000726,-0.001327,-0.000115,0.261436,0.56358,-0.7836,-0.26450962483288976
1763541766.603339,-0.313573,0.099564,0.119349,0.936758,-0.008627,0.000538,-0.002374,-0.001925,-0.002512,-0.001164,0.261384,0.563718,-0.783518,-0.26445576822770483
1763541766.626574,-0.313624,0.099566,0.119377,0.936737,-0.007692,-0.001587,0.000206,-0.002265,-0.002848,-0.001461,0.261413,0.563794,-0.783454,-0.2644857362292981
1763541766.628365,-0.313694,0.099557,0.119426,0.936708,-0.012325,-0.003833,0.003766,-0.000752,-0.003441,-0.001768,0.261439,0.5639,-0.783369,-0.26451267979031584
1763541766.662428,-0.313814,0.099583,0.11947,0.936659,-0.011119,0.005643,0.004888,-0.000748,-0.003244,0.000666,0.261534,0.56408,-0.783208,-0.26461103649790024
1763541766.686844,-0.313886,0.099614,0.119497,0.936629,-0.008027,0.00829,0.003812,8e-06,-0.001394,0.000677,0.261619,0.564182,-0.783106,-0.26469913158062613
1763541766.688321,-0.31395,0.09966,0.119493,0.936603,-0.008219,0.005636,-0.00108,0.000139,0.003214,-0.000493,0.261713,0.564276,-0.783006,-0.26479670694652735
1763541766.723538,-0.314018,0.099671,0.119452,0.936584,-0.009022,0.005625,-0.005391,0.001243,0.001873,0.000112,0.26172,0.564397,-0.782916,-0.2648040545909599
1763541766.74659,-0.314131,0.099708,0.119388,0.93655,-0.013326,0.008332,-0.008143,0.001239,0.000346,0.0004,0.26177,0.56459,-0.782761,-0.2648556723622778
1763541766.78362,-0.314307,0.099785,0.119278,0.936497,-0.015854,0.008821,-0.008934,0.000224,0.000333,2.1e-05,0.261876,0.564891,-0.782508,-0.26496557600543463
1763541766.783854,-0.314483,0.099861,0.119168,0.936444,-0.018382,0.009309,-0.009725,-0.000791,0.000321,-0.000358,0.261982,0.565191,-0.782256,-0.265075379038643
1763541766.806464,-0.31466,0.099917,0.119057,0.936393,-0.014302,0.008053,-0.009672,-0.002208,-0.001059,-0.001203,0.262048,0.565499,-0.782011,-0.2651438235499856
1763541766.808416,-0.314855,0.099936,0.118971,0.936336,-0.015497,0.003834,-0.006194,-0.000528,-0.001279,-0.001315,0.262064,0.565842,-0.781758,-0.265160294040296
1763541766.842822,-0.315009,0.099946,0.118932,0.936288,-0.010919,0.002175,-0.002015,0.000213,-0.001774,-0.000881,0.262085,0.566104,-0.781561,-0.2651821085101829
1763541766.866825,-0.315108,0.09997,0.118921,0.936254,-0.004562,0.001304,0.002381,-0.002204,-0.002811,-0.001254,0.26214,0.566265,-0.781426,-0.2652390820401121
1763541766.87008,-0.31514,0.099894,0.118954,0.936247,-0.008893,-0.011015,0.001514,-0.002023,0.001651,-0.003186,0.262026,0.566332,-0.781416,-0.265120884909264
1763541766.903298,-0.315138,0.099759,0.119051,0.936249,0.004737,-0.017841,0.0086,0.001439,0.000729,-0.000873,0.261834,0.566342,-0.781473,-0.26492196216504116
1763541766.931341,-0.314862,0.099581,0.119362,0.936322,0.037286,-0.040263,0.045475,0.000329,-0.007209,-0.003209,0.261644,0.565852,-0.781891,-0.2647252009250168
1763541766.931746,-0.314427,0.09947,0.119847,0.936418,0.028734,-0.024253,0.032603,0.002814,0.003485,-0.002692,0.261656,0.565028,-0.782483,-0.26473756033871754
1763541766.962322,-0.314146,0.09936,0.120155,0.936484,0.020425,-0.024846,0.025813,0.003281,0.002911,-0.004156,0.26159,0.564509,-0.782879,-0.2646692979501198
1763541766.986387,-0.313908,0.099184,0.12043,0.936547,0.015443,-0.028725,0.019442,0.006131,0.00509,-0.004696,0.261389,0.564089,-0.783249,-0.26446100654858884
1763541766.990647,-0.313701,0.098977,0.120616,0.936615,0.011319,-0.024967,0.004385,0.005462,0.0077,-0.002382,0.261082,0.563757,-0.783591,-0.2641428250615551
1763541767.022278,-0.313579,0.098784,0.120673,0.936668,0.009552,-0.024827,-0.00513,0.003157,0.007379,0.000159,0.260738,0.563599,-0.783819,-0.2637865175406236
1763541767.047544,-0.313456,0.098537,0.120646,0.936739,0.014884,-0.029568,-0.015468,0.001516,0.003595,0.000857,0.260242,0.563477,-0.784071,-0.2632728896503162
1763541767.051788,-0.31324,0.098246,0.120565,0.936853,0.024285,-0.031509,-0.015445,0.001118,0.001416,0.000187,0.259615,0.563229,-0.784457,-0.2626235604865283
1763541767.080461,-0.312985,0.097926,0.12049,0.936981,0.026994,-0.037113,-0.019737,0.001764,0.001906,-0.001143,0.258933,0.562925,-0.784901,-0.26191730629414667
1763541767.106794,-0.312725,0.09761,0.120392,0.937113,0.028719,-0.032042,-0.018902,0.001381,0.001871,-0.001492,0.258243,0.562614,-0.785351,-0.26120304914896536
1763541767.110886,-0.312459,0.097274,0.120249,0.937255,0.036325,-0.03274,-0.022326,0.00035,-0.000349,-0.003196,0.257487,0.562313,-0.785815,-0.26042051697125285
1763541767.142457,-0.312056,0.09693,0.120139,0.937439,0.041239,-0.046487,-0.020438,0.000486,0.00334,-0.008193,0.256712,0.561778,-0.786451,-0.2596185503068718
1763541767.167257,-0.311612,0.096418,0.120047,0.937651,0.043846,-0.063256,-0.022059,0.001538,0.004946,-0.007355,0.255629,0.561218,-0.787203,-0.2584982121956842
1763541767.202173,-0.311162,0.095833,0.119974,0.93787,0.044312,-0.061662,-0.026559,0.005563,0.005777,-0.004915,0.254422,0.560665,-0.787988,-0.2572498725781857
1763541767.202649,-0.310707,0.095203,0.11987,0.938098,0.046467,-0.067976,-0.029905,0.007144,0.007069,-0.005043,0.253108,0.560124,-0.788795,-0.2558915065545312
1763541767.226722,-0.310144,0.094533,0.11974,0.938369,0.059118,-0.070921,-0.033774,0.008316,0.009607,-0.005287,0.251686,0.55942,-0.789749,-0.2544219328928244
1763541767.262014,-0.309537,0.093778,0.119563,0.938668,0.057856,-0.082293,-0.041842,0.009101,0.014375,-0.007422,0.250071,0.558681,-0.790785,-0.2527534705465456
1763541767.262328,-0.308972,0.09295,0.11938,0.93896,0.054742,-0.09096,-0.045867,0.012127,0.016986,-0.00596,0.248322,0.558031,-0.791794,-0.2509475915259363
1763541767.286702,-0.308432,0.091997,0.119179,0.939256,0.054012,-0.100442,-0.049729,0.010676,0.014282,-0.003971,0.246335,0.557466,-0.792812,-0.2488968804088729
1763541767.322882,-0.307793,0.091014,0.118985,0.939586,0.072839,-0.106754,-0.053906,0.007364,0.013301,-0.000154,0.244277,0.556738,-0.793959,-0.24677411748000241
1763541767.323041,-0.307003,0.089916,0.118766,0.939978,0.094254,-0.117108,-0.055481,0.005148,0.011683,0.000559,0.241961,0.555794,-0.795329,-0.2443863578337545
1763541767.346553,-0.306046,0.08877,0.118512,0.940431,0.105662,-0.127953,-0.064223,0.005924,0.015769,-9.9e-05,0.239504,0.55459,-0.796911,-0.24185502714396298
1763541767.381617,-0.304984,0.087583,0.118185,0.940928,0.119141,-0.126975,-0.072628,0.006917,0.0175,0.000422,0.236907,0.553234,-0.798628,-0.239181043280533
1763541767.381861,-0.303912,0.086352,0.117711,0.941448,0.120753,-0.123138,-0.088576,0.005892,0.017212,0.002192,0.23414,0.551905,-0.800362,-0.23633388475482636
1763541767.406478,-0.302801,0.085118,0.117135,0.94199,0.121373,-0.123531,-0.097897,0.002527,0.0152,0.000771,0.231297,0.55053,-0.802133,-0.23341074971410608
1763541767.443273,-0.301669,0.083843,0.11645,0.942553,0.127813,-0.127063,-0.10215,0.000498,0.008734,-0.000227,0.228311,0.549151,-0.803932,-0.2303425803874063
1763541767.443594,-0.300494,0.082547,0.115772,0.943126,0.136128,-0.130042,-0.102821,0.002253,0.005339,0.000805,0.225282,0.547694,-0.805779,-0.22723240985706536
1763541767.473392,-0.299255,0.081256,0.115062,0.943719,0.143136,-0.128959,-0.106386,0.001376,0.004454,0.000541,0.222231,0.546125,-0.807688,-0.22410220479324983
1763541767.473674,-0.29796,0.079999,0.11433,0.944324,0.148498,-0.12494,-0.107464,0.001244,0.003735,0.000863,0.219222,0.544449,-0.80964,-0.2210170103306107
1763541767.505848,-0.296603,0.078709,0.113566,0.944952,0.148418,-0.125018,-0.108331,0.000807,0.003336,-0.001538,0.216121,0.542674,-0.811663,-0.21783979837172562
1763541767.526688,-0.295255,0.077429,0.112803,0.945571,0.144731,-0.124479,-0.106408,0.000873,0.001468,-0.000684,0.21304,0.540901,-0.813659,-0.2146852392891362
1763541767.561382,-0.293926,0.0762,0.112031,0.946177,0.145678,-0.122595,-0.103542,0.000547,-0.000704,-0.001517,0.210056,0.539137,-0.815603,-0.2116321855862028
1763541767.561674,-0.292579,0.074946,0.111349,0.946774,0.145921,-0.127255,-0.098729,0.000282,-0.000698,-0.001003,0.207071,0.537323,-0.817561,-0.20858007456913344
1763541767.586286,-0.291199,0.073688,0.110726,0.947372,0.14555,-0.130106,-0.094182,-0.000867,-0.001488,-0.00103,0.204107,0.535428,-0.819547,-0.20555140721302628
1763541767.631999,-0.28976,0.07248,0.110113,0.947977,0.148916,-0.122501,-0.0935,-0.000324,-4.1e-05,8.3e-05,0.20123,0.533409,-0.821572,-0.20261352506568284
1763541767.63229,-0.288319,0.071271,0.109499,0.948579,0.152282,-0.114896,-0.092818,0.000219,0.001418,0.001183,0.198353,0.531379,-0.823585,-0.19967726553673512
1763541767.652302,-0.286868,0.070122,0.108826,0.949182,0.152154,-0.11502,-0.099777,-0.000821,0.002017,-0.001996,0.195554,0.529317,-0.82558,-0.19682230614659552
1763541767.681482,-0.285431,0.068967,0.108096,0.949783,0.151851,-0.115152,-0.104167,-0.000798,-0.000671,-0.002751,0.192714,0.527285,-0.827546,-0.19392719218237184
1763541767.681698,-0.284015,0.067786,0.107366,0.950375,0.147568,-0.114852,-0.100246,-0.001624,-0.00289,-0.002864,0.189832,0.525286,-0.829481,-0.19099100336835234
1763541767.710541,-0.282626,0.066617,0.10666,0.950951,0.145017,-0.115016,-0.096866,-0.002147,-0.003403,-0.003317,0.186989,0.523316,-0.83137,-0.1880961285603672
1763541767.745101,-0.281255,0.065442,0.105976,0.951516,0.149318,-0.112438,-0.095627,-0.001232,-0.004537,-0.002372,0.184152,0.521366,-0.833226,-0.18520903444468317
1763541767.745348,-0.279833,0.064256,0.105313,0.952089,0.148888,-0.11819,-0.091961,-0.001657,-0.005256,-0.003521,0.181295,0.519318,-0.83513,-0.1823030045188266
1763541767.771591,-0.278344,0.063104,0.104717,0.952668,0.154118,-0.116985,-0.088167,-0.000787,-0.00304,-0.003856,0.178529,0.517124,-0.837085,-0.17949112713951526
1763541767.799178,-0.276853,0.061929,0.104099,0.953247,0.153144,-0.120123,-0.090122,-0.00075,-0.001807,-0.005207,0.175708,0.514926,-0.839034,-0.17662489849238475
1763541767.799475,-0.275352,0.060626,0.103486,0.953832,0.144558,-0.142253,-0.092761,-0.001183,0.001999,-0.009168,0.172645,0.512732,-0.841011,-0.17351437178190318
1763541767.827145,-0.273897,0.059191,0.102884,0.954407,0.143805,-0.144287,-0.100389,0.00559,0.004996,-0.006951,0.169343,0.510638,-0.842954,-0.1701630317032281
1763541767.861648,-0.272489,0.057697,0.102208,0.954973,0.136738,-0.146505,-0.109814,0.008957,0.00599,-0.006542,0.165899,0.508646,-0.844841,-0.1666696123850003
1763541767.861943,-0.27112,0.056152,0.101469,0.955534,0.131242,-0.15598,-0.116955,0.010246,0.007227,-0.008869,0.16233,0.506734,-0.846681,-0.1630515907114254
1763541767.886733,-0.269765,0.054505,0.100704,0.956094,0.137446,-0.162175,-0.117794,0.01272,0.009663,-0.00899,0.158556,0.504863,-0.848513,-0.15922790250598345
1763541767.92153,-0.268381,0.052812,0.099974,0.956654,0.143252,-0.171306,-0.119127,0.016402,0.012405,-0.007899,0.154709,0.502937,-0.850365,-0.15533281145438382
1763541767.921816,-0.266895,0.05102,0.099225,0.957245,0.156644,-0.182447,-0.126708,0.019238,0.013976,-0.006038,0.150644,0.500843,-0.852328,-0.15121964832536597
1763541767.946541,-0.265255,0.049165,0.098438,0.957879,0.172641,-0.191214,-0.133695,0.018936,0.017097,-0.005565,0.14641,0.498485,-0.854445,-0.14693822369626738
1763541767.98316,-0.263459,0.047205,0.097603,0.958559,0.190948,-0.207023,-0.141846,0.018058,0.017724,-0.004001,0.141927,0.495868,-0.856722,-0.14240778377956437
1763541767.983391,-0.261486,0.045101,0.096715,0.95929,0.207334,-0.223361,-0.148542,0.016764,0.016836,-0.003953,0.137108,0.492958,-0.859182,-0.13754125501145112
1763541768.010363,-0.259386,0.042903,0.095798,0.960052,0.22077,-0.233086,-0.153834,0.01847,0.016789,-0.000664,0.132076,0.489829,-0.861756,-0.13246304158816413
1763541768.04268,-0.257186,0.040672,0.094805,0.96084,0.22805,-0.230792,-0.162264,0.019257,0.016372,0.000333,0.126924,0.486517,-0.864403,-0.12726721255138163
1763541768.047296,-0.254974,0.038404,0.093738,0.961627,0.231928,-0.223707,-0.170275,0.018879,0.014284,0.003367,0.121663,0.483179,-0.867027,-0.12196517871287628
1763541768.071681,-0.252763,0.036247,0.092589,0.962406,0.230249,-0.218473,-0.174883,0.013665,0.010882,0.00156,0.116574,0.479809,-0.869594,-0.11683966408652086
1763541768.101467,-0.250544,0.034118,0.091396,0.963177,0.234041,-0.224695,-0.173932,0.009525,0.005886,6.3e-05,0.11152,0.4764,-0.872127,-0.11175250664111759
1763541768.103598,-0.248273,0.031947,0.090209,0.963951,0.247171,-0.221863,-0.178746,0.008723,0.002409,0.00252,0.106384,0.472882,-0.87468,-0.10658569438047373
1763541768.129696,-0.245891,0.029795,0.088964,0.964746,0.257701,-0.220668,-0.179979,0.006939,-0.002867,0.001608,0.10124,0.469143,-0.8773,-0.10141374734610471
1763541768.161568,-0.243357,0.02763,0.08773,0.965566,0.272668,-0.224911,-0.177129,0.004134,-0.005,-6.1e-05,0.096056,0.465107,-0.880027,-0.09620438893447962
1763541768.161871,-0.240686,0.025451,0.086548,0.966402,0.283686,-0.226888,-0.170272,0.001403,-0.007664,0.00072,0.090854,0.460792,-0.882845,-0.09097950333069682
1763541768.186347,-0.237859,0.023235,0.085435,0.967256,0.293721,-0.235825,-0.166118,-0.00305,-0.007453,-0.001653,0.085592,0.45617,-0.885767,-0.0856968435279083
1763541768.221967,-0.234931,0.020931,0.084398,0.968115,0.299188,-0.241815,-0.162014,-0.0049,-0.008963,-0.001837,0.080182,0.451348,-0.888738,-0.0802681905997864
1763541768.222278,-0.231955,0.018589,0.083418,0.968965,0.298359,-0.253662,-0.156131,-0.006209,-0.008565,-0.006196,0.074722,0.446411,-0.891703,-0.07479169387987636
1763541768.252951,-0.22901,0.016075,0.082485,0.96979,0.291596,-0.264252,-0.153855,-0.005415,-0.007935,-0.006003,0.068958,0.441531,-0.894592,-0.06901278004903406
1763541768.284065,-0.226129,0.013453,0.081531,0.970586,0.276495,-0.268904,-0.162663,-0.002076,-0.006256,-0.006057,0.062987,0.436762,-0.897369,-0.06302873810264574
1763541768.284333,-0.223337,0.010795,0.080454,0.971355,0.268337,-0.267406,-0.175048,-0.002417,-0.007737,-0.004139,0.056909,0.432141,-0.900008,-0.05693979473206315
1763541768.31022,-0.220618,0.008078,0.079262,0.972101,0.259589,-0.272467,-0.18799,-0.003126,-0.008984,-0.004333,0.050678,0.427644,-0.902525,-0.05069974219683258
1763541768.342912,-0.217971,0.00528,0.078021,0.972817,0.251923,-0.283212,-0.191982,-0.005114,-0.011298,-0.007548,0.044285,0.423267,-0.904922,-0.04429948911019198
1763541768.34315,-0.215413,0.002382,0.07681,0.973495,0.24388,-0.292765,-0.189741,-0.004022,-0.012474,-0.007742,0.03773,0.41904,-0.907183,-0.037738975071684146
1763541768.370521,-0.212882,-0.000642,0.075659,0.974144,0.237987,-0.305009,-0.18415,-0.002569,-0.010683,-0.007708,0.030962,0.414853,-0.909361,-0.030966963231443028
1763541768.384855,-0.210423,-0.003713,0.074586,0.974754,0.226872,-0.306973,-0.177448,-0.001998,-0.007916,-0.004332,0.024151,0.410775,-0.911417,-0.024153344521608996
1763541768.401918,-0.208045,-0.006761,0.073561,0.975326,0.217099,-0.299118,-0.171838,-0.001169,-0.006481,0.000913,0.017419,0.406818,-0.913343,-0.017419883248142122
1763541768.425763,-0.205752,-0.009718,0.07262,0.975858,0.205886,-0.298635,-0.155153,-0.005668,-0.007849,0.000709,0.010917,0.40298,-0.915144,-0.010917213574910491
1763541768.461648,-0.203568,-0.012706,0.071872,0.976337,0.193999,-0.306231,-0.136264,-0.005737,-0.007021,0.00176,0.004451,0.399328,-0.916797,-0.0044510160273196955
1763541768.461929,-0.201476,-0.015733,0.071324,0.976766,0.187277,-0.314084,-0.117385,-0.007543,-0.006838,0.001384,-0.001995,0.395835,-0.91832,0.0019950003760835972
1763541768.486479,-0.199535,-0.018856,0.070989,0.977134,0.171067,-0.327575,-0.099442,-0.00774,-0.004972,0.001783,-0.008521,0.392622,-0.91966,0.008521106705829763
1763541768.521957,-0.197742,-0.022054,0.070832,0.977443,0.151234,-0.334775,-0.080214,-0.008354,-0.003111,0.000866,-0.0151,0.389687,-0.920823,0.015100581696948627
1763541768.522467,-0.19619,-0.02527,0.070824,0.977678,0.123895,-0.334002,-0.065017,-0.007406,-0.00028,0.001659,-0.021621,0.3872,-0.921742,0.021622688959208214
1763541768.53928,-0.194896,-0.028474,0.070972,0.977838,0.096513,-0.34014,-0.052414,-0.007735,0.000386,-0.000451,-0.028022,0.385195,-0.92241,0.028025659783010408
1763541768.582812,-0.193812,-0.031779,0.071212,0.977934,0.08223,-0.344298,-0.04552,-0.005281,1e-06,0.002695,-0.034552,0.383598,-0.922854,0.034558865288168684
1763541768.583048,-0.192812,-0.035099,0.071476,0.977999,0.076085,-0.349167,-0.045232,-0.005879,-0.001141,0.001859,-0.04109,0.382158,-0.923183,0.041101571920473784
1763541768.610226,-0.191889,-0.038478,0.071753,0.978034,0.068825,-0.354451,-0.044271,-0.010778,-0.004763,0.000846,-0.047728,0.380869,-0.923396,0.04774615503649052
1763541768.640773,-0.191064,-0.041926,0.072096,0.978028,0.053833,-0.361571,-0.036615,-0.014137,-0.007581,-0.001631,-0.05446,0.379777,-0.923474,0.054486937585587
1763541768.641206,-0.190361,-0.045415,0.07252,0.977978,0.045641,-0.364535,-0.026206,-0.013174,-0.012681,0.001449,-0.06122,0.378925,-0.9234,0.061258317737740674
1763541768.666375,-0.189699,-0.04882,0.073062,0.977902,0.045425,-0.347053,-0.014696,-0.006841,-0.013505,0.008189,-0.067762,0.378148,-0.923262,0.06781395360534287
1763541768.705634,-0.189013,-0.051954,0.073621,0.977832,0.049792,-0.315105,-0.007461,-0.009474,-0.015387,0.014138,-0.073774,0.377295,-0.92315,0.0738410832900658
1763541768.705877,-0.188262,-0.054802,0.074268,0.977772,0.055561,-0.2881,0.015359,-0.015859,-0.017226,0.017049,-0.079205,0.376294,-0.923109,0.07928801612975682
1763541768.73191,-0.187479,-0.057374,0.075054,0.977715,0.052354,-0.266624,0.033975,-0.021026,-0.01614,0.016092,-0.084049,0.375215,-0.92312,0.08414822796079446
1763541768.76269,-0.186802,-0.05968,0.075981,0.977635,0.044933,-0.239382,0.04799,-0.020757,-0.01738,0.018593,-0.088304,0.374318,-0.923086,0.08841919430984424
1763541768.762878,-0.186231,-0.061691,0.076959,0.977542,0.037364,-0.206512,0.057209,-0.017177,-0.019476,0.02115,-0.091947,0.373594,-0.923024,0.0920770510625813
1763541768.786575,-0.1857,-0.063356,0.077911,0.977462,0.041569,-0.163226,0.059763,-0.016169,-0.019955,0.022451,-0.094921,0.372901,-0.923003,0.09506413546460324
1763541768.824271,-0.185153,-0.064685,0.07877,0.97741,0.045015,-0.131435,0.052963,-0.020195,-0.016774,0.015979,-0.097278,0.372131,-0.923069,0.09743203832744446
1763541768.824513,-0.18458,-0.065837,0.079429,0.977388,0.048801,-0.115429,0.03197,-0.0234,-0.015668,0.010915,-0.099374,0.371271,-0.923192,0.09953824658258029
1763541768.851665,-0.183905,-0.066912,0.07985,0.977408,0.059411,-0.10702,0.00532,-0.02755,-0.019757,0.006221,-0.101432,0.370186,-0.923404,0.1016066852421107
1763541768.881734,-0.183119,-0.067919,0.080021,0.977472,0.070407,-0.097244,-0.012345,-0.029216,-0.027991,0.003132,-0.103472,0.368857,-0.923709,0.10365751823731088
1763541768.882067,-0.182242,-0.068898,0.080074,0.977563,0.076057,-0.096897,-0.014978,-0.03099,-0.03229,-0.004664,-0.105518,0.367339,-0.924082,0.1057148195246904
1763541768.92143,-0.181361,-0.069942,0.080205,0.977642,0.074942,-0.109968,-0.002103,-0.031725,-0.035824,-0.010544,-0.107664,0.365832,-0.924432,0.10787313913997468
1763541768.921691,-0.180448,-0.071131,0.080496,0.977701,0.078149,-0.124013,0.011117,-0.031938,-0.038245,-0.007672,-0.110039,0.364299,-0.924758,0.11026230471046516
1763541768.943094,-0.179432,-0.072418,0.080906,0.97776,0.085132,-0.129802,0.020247,-0.035354,-0.039796,-0.001464,-0.11258,0.362601,-0.92512,0.11281913512822386
1763541768.968111,-0.178333,-0.073762,0.081434,0.977816,0.084898,-0.14126,0.02997,-0.038351,-0.039147,0.002772,-0.115206,0.360767,-0.925513,0.11546240328454045
1763541769.001845,-0.177133,-0.075102,0.082042,0.977882,0.096042,-0.128355,0.037762,-0.034489,-0.039273,0.01044,-0.117818,0.358753,-0.925967,0.11809230927580734
1763541769.002148,-0.175887,-0.076315,0.082686,0.977958,0.098513,-0.121545,0.043446,-0.034382,-0.039554,0.006354,-0.12018,0.356641,-0.926479,0.12047123251783279
1763541769.026517,-0.174607,-0.077462,0.083359,0.97804,0.10085,-0.112669,0.045093,-0.032187,-0.040449,0.006168,-0.122411,0.35446,-0.927024,0.12271880009223929
1763541769.062875,-0.173306,-0.078471,0.084035,0.978134,0.104601,-0.098625,0.049253,-0.032234,-0.041268,0.004859,-0.124383,0.352222,-0.927614,0.12470602802351707
1763541769.063119,-0.172054,-0.079327,0.084708,0.978228,0.104938,-0.07828,0.050175,-0.03125,-0.038047,0.004928,-0.126051,0.350055,-0.928209,0.12638725462861314
1763541769.100543,-0.170839,-0.080017,0.085368,0.978327,0.096268,-0.068206,0.047785,-0.0326,-0.03268,0.001551,-0.127398,0.347936,-0.928822,0.12774515727514968
1763541769.103191,-0.169701,-0.080666,0.085974,0.978419,0.090848,-0.065011,0.04266,-0.034616,-0.03155,0.001203,-0.12867,0.345947,-0.929389,0.12902776556569653
1763541769.103488,-0.168562,-0.081314,0.086579,0.978509,0.085428,-0.061817,0.037535,-0.036629,-0.03042,0.000847,-0.129945,0.343958,-0.92995,0.13031352154579462
1763541769.126216,-0.167463,-0.082021,0.087039,0.978597,0.086105,-0.065929,0.033459,-0.03572,-0.030116,0.000692,-0.131379,0.342035,-0.930458,0.13175987802153638
1763541769.152717,-0.166381,-0.082626,0.087516,0.978688,0.091774,-0.053981,0.041666,-0.034264,-0.031792,-0.00014,-0.132609,0.340132,-0.930981,0.13300072971245974
1763541769.181449,-0.16537,-0.083153,0.088082,0.978764,0.076066,-0.050528,0.052272,-0.027975,-0.023259,-0.000849,-0.133643,0.338365,-0.931477,0.13404400353016818
1763541769.181689,-0.164497,-0.083675,0.088681,0.978813,0.064967,-0.049817,0.049947,-0.02734,-0.019389,0.003672,-0.134629,0.336864,-0.931879,0.13503899049110932
1763541769.206332,-0.163693,-0.084208,0.089222,0.978853,0.068109,-0.040146,0.040712,-0.023298,-0.023667,0.012915,-0.135645,0.33549,-0.932227,0.1360644309692036
1763541769.241707,-0.162735,-0.08468,0.089749,0.978924,0.083618,-0.034774,0.04602,-0.022314,-0.023472,0.012984,-0.13658,0.33381,-0.932693,0.13700827226447637
1763541769.242063,-0.161713,-0.085025,0.09024,0.979018,0.092574,-0.026144,0.041735,-0.024477,-0.02279,0.013289,-0.137297,0.331985,-0.933239,0.13773208475105497
1763541769.266523,-0.160664,-0.085144,0.090781,0.97913,0.101274,-0.011854,0.047683,-0.02751,-0.014639,0.005943,-0.137564,0.330082,-0.933875,0.13800157595013837
1763541769.30713,-0.158647,-0.085365,0.091974,0.979329,0.097027,-0.014222,0.053015,-0.027454,-0.009844,0.009346,-0.138019,0.326438,-0.935088,0.13846095194584798
1763541769.306852,-0.159642,-0.085236,0.091358,0.979236,0.093641,-0.013983,0.054621,-0.028623,-0.009087,0.00422,-0.137763,0.328229,-0.934498,0.1382025627636003
1763541769.331066,-0.157616,-0.085378,0.092536,0.979441,0.102042,0.0026,0.044716,-0.026532,-0.009589,0.009436,-0.138075,0.324553,-0.935736,0.1385174488593858
1763541769.36199,-0.155523,-0.085587,0.093533,0.979663,0.104858,-0.003714,0.034953,-0.017987,-0.006698,0.007717,-0.138599,0.320732,-0.936975,0.13904656133818277
1763541769.361734,-0.156577,-0.085463,0.093044,0.979552,0.104837,-0.016335,0.043572,-0.028248,-0.009471,0.005079,-0.138293,0.322654,-0.936359,0.13873773368226602
1763541769.386313,-0.154513,-0.085547,0.093785,0.979802,0.102101,0.023405,0.012592,-0.01294,-0.00778,0.008564,-0.138656,0.318829,-0.937615,0.13910422508494105
1763541769.447829,-0.153565,-0.08532,0.093896,0.97996,0.09761,0.022824,0.012609,-0.015847,-0.010585,0.002807,-0.138382,0.316998,-0.938276,0.13882756789226974
1763541769.449664,-0.151699,-0.085045,0.094161,0.980249,0.092667,-0.008768,0.007731,-0.023206,-0.019039,-0.005028,-0.138163,0.313422,-0.939509,0.1386064183653421
1763541769.448139,-0.152618,-0.085093,0.094007,0.980117,0.093118,0.022242,0.012626,-0.018754,-0.013389,-0.002954,-0.138107,0.315165,-0.938934,0.1385498727297887
1763541769.475694,-0.150646,-0.085314,0.094437,0.980362,0.119546,-0.042335,0.02537,-0.023129,-0.025357,-0.003026,-0.138824,0.311489,-0.940054,0.13927388558759535
1763541769.508763,-0.149359,-0.085682,0.094945,0.980477,0.142752,-0.052683,0.045705,-0.0166,-0.023026,0.001755,-0.139657,0.309157,-0.940701,0.14011497631383463
1763541769.509101,-0.147836,-0.085968,0.095689,0.980611,0.151384,-0.030114,0.065622,-0.010832,-0.008485,0.005103,-0.140309,0.306392,-0.941508,0.14077349596093802
1763541769.541019,-0.146489,-0.086181,0.096477,0.980717,0.109622,-0.029105,0.071414,-0.010784,0.000575,0.001272,-0.140773,0.303958,-0.942227,0.14124220174358557
1763541769.567976,-0.145405,-0.086291,0.097358,0.980782,0.092052,-0.016503,0.082279,-0.007647,0.003105,0.006041,-0.140953,0.302023,-0.942822,0.14142403304869083
1763541769.568216,-0.144513,-0.086346,0.098238,0.980821,0.077202,-0.019687,0.085562,-0.012302,-0.002232,0.005022,-0.140986,0.300448,-0.943321,0.1414572521801739
1763541769.59834,-0.143722,-0.086438,0.099184,0.980834,0.085272,-0.020731,0.085713,-0.007516,-0.006891,0.011211,-0.141052,0.299082,-0.943745,0.14152393456962395
1763541769.627025,-0.14289,-0.086449,0.100154,0.980856,0.104393,-0.012148,0.089974,-0.005457,-0.008795,0.007318,-0.140967,0.297625,-0.944218,0.14143810285690386
1763541769.627308,-0.141898,-0.086374,0.1011,0.980909,0.118532,-0.008472,0.079744,-0.006211,-0.00221,0.003604,-0.140758,0.295843,-0.944809,0.1412269997776734
1763541769.656826,-0.14087,-0.086396,0.101979,0.980965,0.10363,-0.018697,0.069294,-0.008984,0.005354,0.000788,-0.140772,0.293998,-0.945383,0.141241094012203
1763541769.686825,-0.139941,-0.086376,0.102627,0.981032,0.092541,0.000108,0.041432,-0.005297,0.005632,0.006653,-0.140751,0.292303,-0.945911,0.14121996023587613
1763541769.688178,-0.139118,-0.086173,0.103004,0.981127,0.078914,0.021234,0.024345,-0.003709,0.002219,0.007346,-0.140435,0.290738,-0.94644,0.1409008084470675
1763541769.716728,-0.138422,-0.085803,0.103224,0.981235,0.068046,0.043644,0.017786,-0.000637,0.000854,0.006426,-0.139808,0.289363,-0.946954,0.14026757113242894
1763541769.746961,-0.137966,-0.085196,0.103308,0.981343,0.049704,0.07373,0.013337,0.001012,0.003638,0.003536,-0.138707,0.288386,-0.947414,0.13915571582916975
1763541769.747284,-0.137838,-0.084408,0.103273,0.981433,0.014778,0.08823,0.001481,-0.000522,0.00216,-0.000113,-0.137213,0.287991,-0.947752,0.13764724477814622
1763541769.781793,-0.137985,-0.083588,0.103177,0.981493,-0.016557,0.091308,0.003934,-0.003998,-0.002265,-0.001697,-0.135609,0.288112,-0.947946,0.13602811858943342
1763541769.808999,-0.138393,-0.082768,0.103061,0.981517,-0.044344,0.088891,0.008018,-0.005197,-0.006238,-0.002236,-0.13395,0.288731,-0.947994,0.13435378262078557
1763541769.80926,-0.139125,-0.082051,0.103109,0.981468,-0.076637,0.076567,0.027902,0.001394,-0.003917,-0.004092,-0.132371,0.290013,-0.947824,0.13276065237928064
1763541769.840289,-0.140192,-0.081324,0.103214,0.981366,-0.121736,0.091047,0.033788,0.003094,-0.00086,0.000155,-0.130678,0.291946,-0.947465,0.1310528703172577
1763541769.868815,-0.14168,-0.080495,0.103209,0.981221,-0.16706,0.101312,0.01053,-0.004606,-0.006761,-0.001238,-0.128722,0.294655,-0.946894,0.12908020420276847
1763541769.869115,-0.143134,-0.079878,0.102731,0.981111,-0.105479,0.064322,-0.070103,-0.015213,-0.046473,0.006664,-0.12733,0.297272,-0.946264,0.12767665604113645
1763541769.89729,-0.14246,-0.079796,0.100922,0.981403,0.268191,-0.016809,-0.28652,-0.023429,-0.105018,0.005628,-0.12787,0.295727,-0.946676,0.12822100906887046
1763541769.914146,-0.136962,-0.080971,0.098153,0.98237,0.740251,-0.210103,-0.404462,-0.01484,-0.048745,-0.028611,-0.132201,0.28499,-0.94937,0.1325891554608317
1763541769.931617,-0.127748,-0.083574,0.094807,0.983721,0.953853,-0.364301,-0.481655,-0.009196,0.028579,-0.044015,-0.140204,0.267184,-0.953392,0.14066739318273652
1763541769.957265,-0.117695,-0.087306,0.091541,0.98496,0.886193,-0.437331,-0.440249,0.016188,0.084439,-0.031574,-0.150438,0.247834,-0.957051,0.15101130753050734
1763541769.986528,-0.109541,-0.091028,0.088633,0.985829,0.6075,-0.34668,-0.374221,0.043625,0.101043,-0.00623,-0.160059,0.232114,-0.959429,0.16075043959284513
1763541769.98676,-0.10462,-0.093638,0.08609,0.986344,0.291074,-0.18703,-0.27472,0.039497,0.071037,0.002311,-0.166706,0.222506,-0.960573,0.16748794537559655
1763541770.016731,-0.102904,-0.094904,0.084394,0.98655,0.004883,-0.049712,-0.13097,0.028413,0.037226,0.012552,-0.169886,0.219059,-0.960808,0.17071397679856204
1763541770.04661,-0.103952,-0.094886,0.083437,0.986524,-0.210552,0.082996,-0.036214,0.012331,0.003265,0.021944,-0.169868,0.220937,-0.960381,0.17069572431160618
1763541770.046866,-0.107,-0.09397,0.083119,0.986312,-0.368864,0.150459,0.045003,-0.002327,-0.012785,0.020277,-0.16758,0.226692,-0.959441,0.16837449603839738
1763541770.076774,-0.111393,-0.092508,0.083388,0.985941,-0.474657,0.191744,0.124784,-0.009034,-0.009445,0.014037,-0.163838,0.235081,-0.958068,0.16457995736536868
1763541770.109257,-0.116971,-0.090682,0.084276,0.985389,-0.587537,0.226075,0.19008,-0.007918,0.002551,0.009669,-0.158999,0.245808,-0.956189,0.15967669942200532
1763541770.109504,-0.123535,-0.08881,0.085066,0.984691,-0.673736,0.231236,0.09697,-0.009718,-0.030881,0.015418,-0.153883,0.258396,-0.953704,0.15449690503494168
1763541770.142133,-0.128759,-0.087203,0.084362,0.984225,-0.351537,0.16511,-0.069606,-0.035657,-0.125734,0.016482,-0.14993,0.268169,-0.951633,0.15049754913752916
1763541770.167898,-0.129379,-0.086681,0.083137,0.984294,0.170458,0.032106,-0.128128,-0.030041,-0.106815,-0.00191,-0.149128,0.269106,-0.951495,0.14968635788176257
1763541770.168259,-0.125727,-0.087132,0.082062,0.984818,0.451457,-0.10501,-0.172494,-0.017668,-0.005617,-0.035526,-0.150984,0.261937,-0.953201,0.15156366142377445
1763541770.201825,-0.120343,-0.088589,0.080826,0.985463,0.528228,-0.19822,-0.187923,-0.006599,0.037597,-0.040434,-0.15515,0.251508,-0.955339,0.1557792586329214
1763541770.227327,-0.114492,-0.090626,0.079761,0.986061,0.461225,-0.207613,-0.138139,0.014353,0.049944,-0.021899,-0.160462,0.240249,-0.957357,0.16115869539233862
1763541770.227632,-0.10968,-0.092233,0.079384,0.986489,0.331055,-0.13877,-0.04529,0.025836,0.052043,-0.006418,-0.164561,0.231041,-0.958926,0.1653129821875108
1763541770.255278,-0.107271,-0.093141,0.079848,0.986632,0.139268,-0.061577,0.063376,0.030809,0.045923,0.008318,-0.166662,0.226548,-0.959635,0.16744338423877345
1763541770.286521,-0.107439,-0.093126,0.080947,0.986525,-0.098624,0.02913,0.138509,0.021892,0.034458,0.009208,-0.166348,0.227058,-0.959569,0.16712492988232286
1763541770.28823,-0.110036,-0.092268,0.082332,0.986205,-0.296309,0.116971,0.185932,0.00709,0.012957,0.015581,-0.16387,0.232229,-0.958758,0.1646123684967631
1763541770.316073,-0.114379,-0.090864,0.083964,0.985703,-0.455584,0.145426,0.228896,-0.014252,-0.005169,0.008018,-0.159923,0.240747,-0.957322,0.1606126569635247
1763541770.346301,-0.119696,-0.089454,0.085453,0.985073,-0.47188,0.145093,0.190707,-0.023173,-0.059405,0.020745,-0.155781,0.251107,-0.955342,0.15641799503550755
1763541770.346513,-0.123781,-0.088334,0.086599,0.984569,-0.266344,0.092099,0.133145,-0.034588,-0.097297,0.022076,-0.152504,0.259041,-0.953751,0.15310136427351034
1763541770.382043,-0.124877,-0.087706,0.087689,0.98439,0.055029,0.027596,0.117769,-0.025841,-0.076706,0.015952,-0.150774,0.261236,-0.953427,0.15135116965538606
1763541770.409067,-0.12316,-0.087495,0.088838,0.984522,0.254553,-0.023758,0.090541,-0.018172,-0.0129,-0.004731,-0.150399,0.258054,-0.954352,0.1509718917065272
1763541770.409376,-0.120008,-0.087767,0.089901,0.984791,0.309567,-0.063268,0.074719,-0.002245,0.028527,-0.014715,-0.151286,0.252146,-0.95579,0.15186914971359355
1763541770.442005,-0.116541,-0.088252,0.090946,0.985068,0.275604,-0.055546,0.077298,0.013338,0.046819,-0.01511,-0.152671,0.245653,-0.95726,0.1532703538875519
1763541770.467055,-0.113763,-0.088597,0.091982,0.985265,0.19864,-0.039337,0.089863,0.017687,0.043787,-0.012813,-0.153654,0.240472,-0.958417,0.15426517279069188
1763541770.4673,-0.112171,-0.088595,0.09299,0.985353,0.121067,0.012799,0.091163,0.019336,0.032301,-0.002361,-0.153733,0.237533,-0.959137,0.15434511761597156
1763541770.497474,-0.111858,-0.088135,0.093964,0.985338,0.008941,0.050314,0.088831,0.01011,0.02568,0.000341,-0.152665,0.236999,-0.95944,0.15326430561529286
1763541770.526588,-0.112783,-0.087486,0.094801,0.98521,-0.098284,0.055077,0.098522,-0.005427,0.0066,-0.001288,-0.150999,0.238817,-0.959253,0.1515787384873126
1763541770.526822,-0.114581,-0.086925,0.09563,0.984972,-0.170774,0.043385,0.091968,-0.009194,-0.009543,0.004541,-0.149323,0.242343,-0.958631,0.1498834944467883
1763541770.556666,-0.116583,-0.086497,0.096293,0.98471,-0.151139,0.031641,0.080703,-0.0126,-0.033348,0.012049,-0.147896,0.24626,-0.957853,0.14844056863243751
1763541770.587864,-0.117891,-0.086235,0.096919,0.984516,-0.057282,0.016391,0.069908,-0.012069,-0.038529,0.015277,-0.146948,0.248846,-0.957331,0.14748201366524777
1763541770.5881,-0.11797,-0.086081,0.097517,0.984461,0.045011,0.006248,0.061617,-0.009246,-0.022956,0.006653,-0.146478,0.249063,-0.957346,0.14700695705576605
1763541770.616728,-0.117186,-0.086019,0.098183,0.984494,0.095846,0.001882,0.060977,0.003078,0.004197,0.005532,-0.146359,0.247629,-0.957736,0.1468866769801865
1763541770.646702,-0.116091,-0.085779,0.098785,0.984584,0.089055,0.025738,0.052498,0.008704,0.020736,0.001355,-0.145978,0.24555,-0.95833,0.14650143385367498
1763541770.649949,-0.115228,-0.085339,0.099291,0.984673,0.054578,0.057237,0.049903,0.012287,0.026424,0.001371,-0.145181,0.24387,-0.958879,0.1456959789643092
1763541770.67721,-0.114952,-0.084647,0.099708,0.984723,-0.010541,0.086229,0.045598,0.011886,0.025941,-0.001854,-0.143784,0.243271,-0.959242,0.14428410663335045
1763541770.707082,-0.115572,-0.083695,0.099914,0.984711,-0.075453,0.112161,0.024507,0.003132,0.015578,-0.002921,-0.141737,0.244334,-0.959276,0.1422159871894401
1763541770.70729,-0.116875,-0.082837,0.099986,0.984622,-0.132131,0.068827,0.027093,-0.01271,-0.005884,-0.012793,-0.139754,0.24672,-0.958957,0.14021293930384782
1763541770.742318,-0.118408,-0.082337,0.100094,0.98447,-0.111784,0.039585,0.023105,-0.011716,-0.026789,0.000367,-0.138413,0.249621,-0.9584,0.13885885514145546
1763541770.766344,-0.119372,-0.082127,0.100269,0.984353,-0.03865,0.010155,0.026658,-0.011463,-0.034795,0.0042,-0.137746,0.251478,-0.958011,0.13818534429799967
1763541770.767438,-0.119407,-0.082054,0.100617,0.98432,0.051602,-0.012388,0.041596,-0.010773,-0.026002,0.000172,-0.137505,0.251581,-0.958019,0.13794197294568006
1763541770.796893,-0.118615,-0.082179,0.101228,0.984342,0.097568,-0.026684,0.061063,-0.004518,-0.007526,0.000755,-0.137769,0.250153,-0.958354,0.13820863600361757
1763541770.826943,-0.117499,-0.082305,0.102013,0.984385,0.098568,-0.012357,0.073621,0.006584,0.007614,0.005431,-0.138067,0.248121,-0.95884,0.1385094094473048
1763541770.830881,-0.116471,-0.082168,0.102818,0.984435,0.072293,0.015751,0.080186,0.011341,0.015627,0.005407,-0.137828,0.246212,-0.959366,0.1382681473493954
1763541770.860911,-0.115915,-0.081707,0.103557,0.984461,0.023722,0.057411,0.071033,0.012548,0.020481,0.004816,-0.136868,0.24515,-0.959775,0.13729900407636067
1763541770.88683,-0.116087,-0.081028,0.104078,0.984442,-0.038785,0.07212,0.056018,0.003159,0.01156,-0.000189,-0.135371,0.245429,-0.959916,0.13578793871301417
1763541770.888205,-0.116875,-0.080384,0.10446,0.984361,-0.083805,0.049532,0.049095,-0.004772,8.5e-05,-0.006312,-0.133836,0.246888,-0.959757,0.13423885209477873
1763541770.916657,-0.1179,-0.080011,0.104816,0.984231,-0.077344,0.033234,0.044389,-0.004008,-0.01396,-0.001812,-0.132784,0.248855,-0.959395,0.13317738341560312
1763541770.946993,-0.118699,-0.079715,0.105196,0.984119,-0.037981,0.017542,0.046464,-0.004106,-0.019366,-0.000332,-0.131924,0.2504,-0.959112,0.13230969928099937
1763541770.950894,-0.118962,-0.079577,0.105719,0.984042,0.001809,0.000865,0.059847,-0.002917,-0.009058,-0.003077,-0.131461,0.250953,-0.959031,0.13184263593703427
1763541770.976457,-0.118857,-0.079569,0.106339,0.983989,0.022505,-0.009489,0.061026,0.000744,0.001732,-0.003367,-0.131311,0.250831,-0.959083,0.13169138329310312
1763541771.00623,-0.118595,-0.079594,0.106966,0.98395,0.016549,-0.005856,0.052405,0.006417,0.01059,0.000368,-0.131261,0.25041,-0.9592,0.13164092764495383
1763541771.011669,-0.11843,-0.079502,0.107465,0.983923,-0.002973,0.015262,0.04377,0.010212,0.014038,0.00215,-0.130993,0.250139,-0.959308,0.13137050972263303
1763541771.047163,-0.118585,-0.079222,0.107774,0.983893,-0.034101,0.039394,0.028763,0.009438,0.012981,0.0036,-0.130331,0.250426,-0.959323,0.13070282193711602
1763541771.072554,-0.119112,-0.078769,0.107888,0.983854,-0.056716,0.049746,0.021063,0.002995,0.005642,-0.000335,-0.129292,0.251374,-0.959216,0.12965491158074494
1763541771.072714,-0.119847,-0.078426,0.107964,0.983783,-0.06207,0.02809,0.013875,-0.000348,-0.002057,-0.003024,-0.128431,0.252742,-0.958972,0.12878669284086983
1763541771.098055,-0.120463,-0.078245,0.108068,0.983711,-0.032189,0.010046,0.018575,0.00015,-0.009908,-0.001036,-0.127904,0.253913,-0.958733,0.12825531855807046
1763541771.126771,-0.120704,-0.078162,0.108292,0.983663,0.001597,-0.000508,0.02886,0.003171,-0.004653,-0.001219,-0.127628,0.254394,-0.958642,0.12797707085377363
1763541771.130084,-0.120679,-0.078107,0.108601,0.983637,0.010884,0.001307,0.032229,0.005519,0.007273,-0.001997,-0.127446,0.254373,-0.958672,0.12779354588271766
1763541771.157371,-0.120678,-0.078033,0.10888,0.983612,-0.008001,0.010146,0.026954,0.006674,0.012781,-0.00099,-0.127229,0.254393,-0.958695,0.12757482837201398
1763541771.187305,-0.120914,-0.077882,0.10907,0.983574,-0.044742,0.028111,0.01424,0.008541,0.016065,0.002767,-0.126829,0.254845,-0.958628,0.1271715554606392
1763541771.19152,-0.121514,-0.07754,0.109122,0.983521,-0.074601,0.038845,0.013397,0.002232,0.006643,-0.000423,-0.126006,0.255945,-0.958444,0.12634183253640974
1763541771.21751,-0.122363,-0.07724,0.109136,0.983438,-0.080903,0.026359,0.011496,-0.003154,-0.00531,-0.001478,-0.125213,0.257533,-0.958122,0.1255425615396122
1763541771.24673,-0.123132,-0.077144,0.1092,0.983343,-0.051886,0.005657,0.016116,-0.004275,-0.016314,0.000712,-0.124826,0.25901,-0.957775,0.12515241600888063
1763541771.250743,-0.123503,-0.077136,0.109468,0.983267,-0.004822,-0.013859,0.034656,-0.004176,-0.014628,-0.001187,-0.124652,0.259761,-0.957594,0.1249770773854157
1763541771.276662,-0.12345,-0.077268,0.109898,0.983215,0.01413,-0.02911,0.040983,-0.002288,-0.003421,-0.002193,-0.124808,0.259738,-0.95758,0.12513429546904134
