timestamp,quat_x,quat_y,quat_z,quat_w,rot_x,rot_y,rot_z,acc_x,acc_y,acc_z,grav_x,grav_y,grav_z,pitch_rad
1762017217.662614,-0.709805,0.0,0.663174,-0.237436,-0.035585,0.039989,-0.000578,-0.827894,0.14436,-0.986899,0.94145,-0.337067,0.007648,-1.226904465976767
1762017217.662898,-0.235897,0.051489,0.894738,-0.375693,-0.029643,0.0308,-0.010108,-0.270874,0.079874,-0.094422,0.383444,-0.269389,-0.883403,-0.3935223311864371
1762017217.693053,-0.154092,0.058042,0.907119,-0.387326,-0.032779,0.029961,-0.020727,-0.120646,0.037626,-0.032152,0.234597,-0.224671,-0.945773,-0.2368040528653175
1762017217.732405,-0.087661,0.062505,0.912619,-0.39438,-0.03558,0.021467,-0.039331,0.001028,0.001073,0.002799,0.110701,-0.183231,-0.976817,-0.11092837074417292
1762017217.732801,-0.087657,0.062325,0.912714,-0.394188,-0.030771,0.012809,-0.044945,0.002065,0.000337,0.001864,0.110876,-0.182875,-0.976864,-0.1111044399415366
1762017217.764784,-0.089338,0.064878,0.91264,-0.393571,-0.029517,0.005713,-0.053624,0.002347,0.008358,-0.002155,0.111998,-0.188742,-0.975619,-0.1122335003282048
1762017217.765069,-0.089459,0.064065,0.912841,-0.393211,-0.023467,0.004632,-0.051738,0.002963,0.006273,-0.001956,0.112942,-0.187315,-0.975785,-0.11318354868937226
1762017217.794347,-0.089321,0.063475,0.913039,-0.392878,-0.019223,0.000255,-0.050684,0.003541,0.006875,0.000752,0.113232,-0.186095,-0.975985,-0.1134753992517697
1762017217.859727,-0.089077,0.062633,0.91345,-0.392111,-0.021214,-0.002231,-0.050363,0.003938,0.005951,0.000321,0.113616,-0.18428,-0.976285,-0.11386186149349083
1762017217.860051,-0.088948,0.062293,0.913593,-0.391863,-0.022933,-0.012213,-0.0444,0.002684,0.006141,0.00034,0.113704,-0.183533,-0.976415,-0.11395048704059495
1762017217.860592,-0.08882,0.061954,0.913735,-0.391614,-0.024653,-0.022195,-0.038438,0.00143,0.00633,0.000358,0.113791,-0.182785,-0.976546,-0.11403796241347407
1762017217.860715,-0.088691,0.061614,0.913877,-0.391365,-0.026372,-0.032177,-0.032475,0.000176,0.006518,0.000376,0.113878,-0.182037,-0.976675,-0.11412559545383473
1762017217.888365,-0.088334,0.060789,0.914157,-0.39092,-0.042061,-0.034878,-0.018013,0.00064,0.009377,-0.003749,0.113976,-0.180205,-0.977003,-0.11422426589519513
1762017217.925506,-0.0878,0.060021,0.914338,-0.390735,-0.053924,-0.026785,-0.007507,-0.000573,0.011714,-0.004661,0.113654,-0.178372,-0.977377,-0.11390013857248733
1762017217.925824,-0.087523,0.05963,0.914393,-0.390729,-0.057808,-0.021623,0.000956,-0.001967,0.010722,-0.002496,0.113462,-0.177445,-0.977568,-0.11370689156098661
1762017217.953461,-0.087198,0.059163,0.914424,-0.3908,-0.059936,-0.020847,0.009505,-0.002464,0.009379,-0.003123,0.113231,-0.176355,-0.977792,-0.1134743936004536
1762017217.960344,-0.086591,0.058251,0.91444,-0.391034,-0.057615,-0.011548,0.020689,-0.001313,0.004764,-0.003767,0.112808,-0.174255,-0.978218,-0.11304858828996678
1762017217.988675,-0.086257,0.057703,0.914442,-0.391184,-0.054723,-0.008709,0.017709,-0.00297,0.003499,-0.002735,0.112609,-0.173018,-0.97846,-0.11284836429401787
1762017218.021156,-0.085579,0.056647,0.914463,-0.391439,-0.051025,-0.011069,0.004921,-0.002467,0.000101,-0.001079,0.112169,-0.1706,-0.978935,-0.11240555925083201
1762017218.021554,-0.085295,0.056295,0.914497,-0.391472,-0.041627,-0.009017,-0.002693,-0.001083,-0.003981,-0.004145,0.111928,-0.169744,-0.979111,-0.11216307286263476
1762017218.067716,-0.085064,0.056145,0.914603,-0.391297,-0.02899,-0.013951,-0.01463,-0.003203,-0.001542,-0.002926,0.111661,-0.169272,-0.979224,-0.11189429981438628
1762017218.067966,-0.084834,0.055995,0.914708,-0.391123,-0.016354,-0.018886,-0.026566,-0.005324,0.000897,-0.001708,0.111394,-0.1688,-0.979335,-0.11162572046320197
1762017218.10429,-0.084445,0.055935,0.914941,-0.39067,-0.012119,-0.028963,-0.032172,-0.008586,0.005266,0.000727,0.110819,-0.168335,-0.979481,-0.1110470572356502
1762017218.104409,-0.084256,0.056002,0.915034,-0.390484,-0.009237,-0.027029,-0.029039,-0.005755,0.005781,-0.006758,0.110459,-0.168289,-0.979529,-0.11068489532997951
1762017218.157437,-0.084171,0.055943,0.915127,-0.390291,-0.014672,-0.012253,-0.027482,-0.004265,0.007156,-0.007767,0.110387,-0.168093,-0.979571,-0.11061242728446313
1762017218.15776,-0.084086,0.055884,0.915221,-0.390098,-0.020108,0.002522,-0.025925,-0.002775,0.008531,-0.008776,0.110314,-0.167897,-0.979613,-0.11053896092323277
1762017218.158153,-0.083923,0.05546,0.915402,-0.38977,-0.024892,0.024639,-0.022157,-0.005362,0.006328,0.001083,0.110414,-0.166957,-0.979762,-0.11063961681952175
1762017218.188563,-0.083898,0.055242,0.915466,-0.389654,-0.020903,0.018476,-0.021034,-0.003013,0.007293,0.00087,0.110561,-0.166527,-0.979819,-0.11078747895088471
1762017218.221436,-0.083785,0.054726,0.915631,-0.389363,-0.013866,0.013803,-0.022798,0.001683,0.004017,-0.003743,0.110817,-0.165463,-0.97997,-0.111045097225155
1762017218.221752,-0.083726,0.054478,0.915724,-0.389193,-0.010351,0.014699,-0.02429,0.000398,0.005477,-0.002027,0.110936,-0.164945,-0.980044,-0.1111648199993639
1762017218.252131,-0.083716,0.054331,0.915785,-0.389072,-0.003996,0.013654,-0.019496,0.001291,0.005303,-0.001643,0.111055,-0.164654,-0.980079,-0.1112846097327425
1762017218.288461,-0.083765,0.054173,0.91587,-0.388883,0.009635,0.014897,-0.009853,0.002639,0.002952,-0.003059,0.111302,-0.164381,-0.980097,-0.11153312948791079
1762017218.288752,-0.083874,0.05417,0.915874,-0.388852,0.01565,0.017142,-0.00495,0.003373,0.003982,-0.00177,0.111509,-0.164454,-0.980062,-0.11174134084404809
1762017218.321849,-0.084149,0.054179,0.915857,-0.388832,0.022791,0.017738,-0.001771,0.003275,0.001326,0.001741,0.112003,-0.16468,-0.979967,-0.11223853380426142
1762017218.322132,-0.084314,0.05425,0.915832,-0.388843,0.032867,0.017448,-0.001194,0.00258,-0.001002,0.001259,0.112246,-0.164937,-0.979896,-0.11248307286997497
1762017218.352042,-0.084432,0.054376,0.915804,-0.388868,0.029049,0.008269,0.004162,0.004015,0.001521,0.001288,0.112356,-0.165261,-0.979829,-0.11259375117811794
1762017218.384481,-0.08462,0.054629,0.915716,-0.388998,0.022762,-0.010232,0.014078,0.002933,-0.000986,0.005955,0.112475,-0.165883,-0.97971,-0.11271353626048326
1762017218.384812,-0.084584,0.054794,0.915671,-0.389089,0.028589,-0.019817,0.017285,0.00367,-0.001231,0.005164,0.112263,-0.166168,-0.979686,-0.11250018695494486
1762017218.414191,-0.084494,0.055038,0.91562,-0.389193,0.029495,-0.028693,0.018987,0.00392,-0.002094,0.002806,0.111887,-0.166557,-0.979663,-0.11212179817043906
1762017218.458264,-0.084203,0.055544,0.915498,-0.389471,0.02296,-0.033891,0.019206,0.004782,-0.001594,-0.000585,0.11091,-0.16729,-0.979649,-0.11113870072082413
1762017218.46042,-0.084069,0.055755,0.915435,-0.389619,0.014123,-0.028265,0.020143,0.003888,-0.00163,-0.001042,0.110472,-0.16759,-0.979648,-0.11069790676173896
1762017218.460739,-0.083934,0.055967,0.915371,-0.389766,0.005285,-0.022638,0.02108,0.002994,-0.001667,-0.0015,0.110033,-0.16789,-0.979646,-0.11025621840024455
1762017218.488916,-0.083851,0.056054,0.915326,-0.38988,0.004398,-0.019323,0.018438,0.001864,-0.001783,0.00048,0.109793,-0.168,-0.979654,-0.11001476300777073
1762017218.522849,-0.083669,0.056218,0.915249,-0.390075,0.000377,-0.023647,0.019858,-0.000444,-0.001811,0.000746,0.109297,-0.168182,-0.979678,-0.10951578530246595
1762017218.523123,-0.083537,0.056279,0.915217,-0.39017,-0.002873,-0.023526,0.014692,0.000535,-0.004559,-0.00223,0.108992,-0.168202,-0.979708,-0.10920901084763102
1762017218.552634,-0.083392,0.056301,0.915205,-0.390225,-0.005667,-0.021927,0.00947,-0.001172,-0.003161,-0.001919,0.108702,-0.168136,-0.979752,-0.10891722888110252
1762017218.582295,-0.083063,0.056372,0.915208,-0.390279,-0.007922,-0.023129,-0.002446,-0.001984,0.000262,-0.003712,0.108038,-0.16802,-0.979845,-0.10824933133771382
1762017218.582616,-0.082921,0.056379,0.915228,-0.39026,-0.010085,-0.020442,-0.001022,-0.004082,0.002437,-0.00367,0.107778,-0.167922,-0.979891,-0.1079877437875283
1762017218.622128,-0.082712,0.056347,0.91528,-0.390187,-0.010778,-0.016752,-0.007907,-0.003945,0.001594,-0.002623,0.107437,-0.167693,-0.979968,-0.10764471630565274
1762017218.62243,-0.082502,0.056314,0.915332,-0.390114,-0.01147,-0.013062,-0.014791,-0.003807,0.00075,-0.001576,0.107096,-0.167463,-0.980044,-0.10730180655857538
1762017218.651228,-0.082372,0.056302,0.915384,-0.390021,-0.00825,-0.01277,-0.01449,-0.004252,0.001202,-0.001112,0.106886,-0.16733,-0.98009,-0.10709055640100489
1762017218.683301,-0.082068,0.056297,0.915528,-0.389748,0.000639,-0.010886,-0.021924,-0.003399,0.001515,-0.00236,0.106388,-0.167055,-0.980191,-0.10658971013419365
1762017218.683622,-0.082,0.056331,0.915602,-0.389585,0.004631,-0.007416,-0.022407,-0.00315,0.003355,-0.004259,0.106267,-0.167045,-0.980206,-0.10646800247353795
1762017218.698899,-0.08197,0.056311,0.915706,-0.38935,0.003884,0.000798,-0.019402,-0.004077,0.005532,-0.001248,0.106271,-0.166959,-0.98022,-0.10647204813550555
1762017218.756517,-0.082019,0.056316,0.915752,-0.389229,0.005174,0.00457,-0.020208,-0.003411,0.004397,-0.001443,0.106378,-0.166991,-0.980203,-0.10657965209399364
1762017218.75685,-0.082067,0.056321,0.915799,-0.389109,0.006465,0.008343,-0.021014,-0.002745,0.003262,-0.001639,0.106484,-0.167023,-0.980186,-0.10668626159812958
1762017218.757362,-0.082213,0.056392,0.915908,-0.388811,0.010217,0.009652,-0.017184,-0.001168,0.004002,-0.003815,0.106748,-0.167231,-0.980122,-0.10695175569967369
1762017218.788549,-0.082242,0.056423,0.915951,-0.388699,0.016066,0.001265,-0.013149,-0.00281,0.002717,-0.000489,0.106797,-0.167295,-0.980105,-0.10700111530738074
1762017218.819992,-0.082133,0.056762,0.916031,-0.388483,0.020542,-0.019238,-0.009154,-0.000816,0.000474,-0.002078,0.106371,-0.167806,-0.980064,-0.10657267135268203
1762017218.820267,-0.082049,0.056954,0.916062,-0.388401,0.032335,-0.021239,-0.009103,0.000502,-0.001418,-0.001316,0.106081,-0.168083,-0.980048,-0.10628101741640945
1762017218.849033,-0.082041,0.057134,0.916096,-0.388295,0.02877,-0.009872,-0.013002,0.002259,-0.002586,-0.001384,0.105944,-0.168392,-0.98001,-0.10614321745886167
1762017218.880385,-0.082031,0.057511,0.916189,-0.388021,0.027668,-0.011303,-0.017859,0.00075,-0.000101,0.000264,0.105682,-0.169042,-0.979927,-0.1058796738769157
1762017218.880628,-0.082011,0.057712,0.916239,-0.387878,0.029472,-0.018879,-0.018161,0.000202,0.00058,0.000625,0.105513,-0.169376,-0.979887,-0.1057097796060558
1762017218.910914,-0.081972,0.057912,0.916284,-0.38775,0.025956,-0.021811,-0.01534,-0.000108,-0.00013,0.000658,0.105309,-0.169698,-0.979853,-0.10550466087480097
1762017218.942162,-0.081822,0.058429,0.916365,-0.387513,0.024102,-0.025952,-0.011354,-0.000153,-0.001631,-0.001341,0.104673,-0.170499,-0.979782,-0.1048651357662872
1762017218.942495,-0.081715,0.058648,0.916397,-0.387428,0.029366,-0.029665,-0.008484,0.000167,-0.002714,-0.001238,0.104322,-0.170807,-0.979766,-0.10451218173423843
1762017218.971157,-0.081622,0.058881,0.916423,-0.387349,0.025304,-0.021805,-0.00595,5.9e-05,-0.001974,-0.002108,0.103985,-0.171151,-0.979742,-0.10417331754534853
1762017219.003343,-0.081479,0.059234,0.916483,-0.387184,0.002888,-0.009478,-0.00768,0.00136,-0.001389,-0.002814,0.10348,-0.17167,-0.979705,-0.10366554432874085
1762017219.003613,-0.081424,0.059223,0.916505,-0.387145,-0.002615,-0.006696,-0.00957,0.001991,-0.002545,-0.000847,0.103396,-0.171602,-0.979725,-0.10358117094072258
1762017219.067768,-0.081379,0.059123,0.916546,-0.387074,-0.006213,-0.004587,-0.008725,0.001988,-0.00263,-0.000282,0.103405,-0.171377,-0.979764,-0.10359016169544658
1762017219.068103,-0.081333,0.059023,0.916586,-0.387003,-0.009811,-0.002477,-0.007879,0.001986,-0.002716,0.000282,0.103414,-0.171153,-0.979802,-0.10359923109495466
1762017219.068661,-0.081288,0.058924,0.916627,-0.386932,-0.013408,-0.000368,-0.007034,0.001984,-0.002802,0.000847,0.103423,-0.170928,-0.979841,-0.10360821101963756
1762017219.098983,-0.081216,0.058662,0.916713,-0.386781,-0.017539,0.002583,-0.011573,0.001651,-0.000535,-6.2e-05,0.103526,-0.170378,-0.979925,-0.10371185959070255
1762017219.099224,-0.08121,0.058526,0.916759,-0.386695,-0.021415,0.00289,-0.013132,0.001482,0.001496,0.00076,0.103637,-0.170115,-0.979959,-0.10382345568605544
1762017219.129047,-0.081184,0.058389,0.916796,-0.386634,-0.024436,0.002048,-0.013611,0.00064,0.001,0.000712,0.103709,-0.169839,-0.98,-0.10389576967300987
1762017219.159866,-0.08109,0.058037,0.916889,-0.386485,-0.022993,0.000325,-0.008348,-0.000103,0.003399,-1.6e-05,0.103839,-0.169107,-0.980112,-0.1040265585555216
1762017219.159933,-0.081057,0.057878,0.916909,-0.386467,-0.027027,0.006767,-0.006349,-0.000757,0.002599,-0.002036,0.103909,-0.168789,-0.98016,-0.10409687743489639
1762017219.191051,-0.081065,0.057671,0.916922,-0.386466,-0.029401,0.0106,-0.002511,-0.000627,0.002891,-0.002624,0.104085,-0.168417,-0.980205,-0.10427386923930823
1762017219.222232,-0.081137,0.057094,0.916917,-0.38655,-0.026356,0.02281,0.007406,-0.000808,-0.000191,-0.00078,0.104653,-0.167429,-0.980314,-0.10484496502972568
1762017219.222547,-0.081225,0.056882,0.916895,-0.386613,-0.022747,0.025493,0.007826,-0.000362,-0.00228,-0.003409,0.104967,-0.167116,-0.980334,-0.10516068705302709
1762017219.251391,-0.08135,0.056692,0.916879,-0.386655,-0.016074,0.028087,0.004658,-0.001014,-0.00278,-0.003502,0.105335,-0.166869,-0.980336,-0.10553080100482409
1762017219.294555,-0.081645,0.056282,0.91687,-0.386673,-0.015193,0.020216,-0.006937,-0.002731,0.000373,-0.001077,0.106191,-0.166346,-0.980333,-0.10639158062282172
1762017219.294889,-0.081696,0.056166,0.916871,-0.386675,-0.018083,0.016214,-0.003775,-0.002018,0.001197,-0.000668,0.106373,-0.166173,-0.980342,-0.10657468112613236
1762017219.357293,-0.081722,0.055873,0.916898,-0.386648,-0.023776,0.007937,-0.004047,-0.000477,0.001615,-0.000154,0.106655,-0.165656,-0.980399,-0.10685827962654006
1762017219.364133,-0.081694,0.055718,0.91691,-0.38665,-0.019634,0.006123,-0.002906,-0.001069,0.00095,0.000203,0.106726,-0.165351,-0.980443,-0.10692966199998505
1762017219.364483,-0.081667,0.055562,0.916921,-0.386652,-0.015491,0.004308,-0.001765,-0.001661,0.000284,0.00056,0.106797,-0.165046,-0.980487,-0.10700103414549489
1762017219.364752,-0.081639,0.055407,0.916932,-0.386654,-0.011349,0.002493,-0.000624,-0.002253,-0.000381,0.000916,0.106868,-0.16474,-0.98053,-0.10707251913953401
1762017219.402157,-0.08162,0.055336,0.916917,-0.386703,-0.007057,0.003541,0.002506,-0.001432,0.000163,-0.000451,0.10688,-0.164603,-0.980552,-0.10708455662377539
1762017219.402461,-0.0816,0.055266,0.916903,-0.386751,-0.002764,0.004588,0.005636,-0.000611,0.000706,-0.001818,0.106891,-0.164465,-0.980574,-0.10709561544178758
1762017219.431288,-0.081595,0.055231,0.916881,-0.386808,-0.002076,0.004756,0.006138,-0.001594,0.000748,-0.002607,0.106898,-0.164403,-0.980584,-0.10710261716810882
1762017219.462458,-0.081681,0.055141,0.916831,-0.386922,-0.006448,0.008204,0.003971,-0.003578,-0.000142,-0.00228,0.107105,-0.164319,-0.980575,-0.10731086434117912
1762017219.462801,-0.081704,0.055082,0.91682,-0.386951,-0.006827,0.010392,0.001825,-0.000886,-7e-06,-0.00484,0.107187,-0.164231,-0.980581,-0.10739331615394618
1762017219.493015,-0.081762,0.054983,0.91682,-0.386954,-0.00766,0.011011,-0.000187,-0.001776,0.00125,-0.001705,0.10737,-0.164095,-0.980584,-0.10757735164471253
1762017219.524108,-0.081846,0.054842,0.916808,-0.386984,-0.003118,0.008838,0.005974,-0.000306,0.00057,-0.002325,0.107628,-0.163905,-0.980587,-0.10783690770090264
1762017219.5244,-0.081881,0.054863,0.916782,-0.387036,0.008331,0.009912,0.006737,0.0004,-0.002112,-0.003494,0.107666,-0.163978,-0.980571,-0.10787508984574182
1762017219.560275,-0.082138,0.054904,0.916754,-0.387042,0.005777,0.018153,-0.000895,0.001031,-0.000493,-0.002177,0.1081,-0.164248,-0.980478,-0.1083116438689637
1762017219.560586,-0.08224,0.054893,0.91675,-0.38703,0.004683,0.017549,-0.003835,6.5e-05,-0.000658,-0.000916,0.108297,-0.164306,-0.980447,-0.10850975831774362
1762017219.590661,-0.08236,0.054905,0.916745,-0.387014,0.007174,0.014011,-0.004418,-0.000451,0.000326,-5.7e-05,0.108508,-0.164417,-0.980404,-0.1087221226382651
1762017219.623852,-0.082542,0.055014,0.916747,-0.386955,0.008953,0.001659,-0.002641,6.1e-05,0.000117,-0.000128,0.108765,-0.164749,-0.98032,-0.10898062982078126
1762017219.62415,-0.082577,0.055072,0.916748,-0.386939,0.007995,0.002849,-0.002011,0.000254,0.000489,-0.000536,0.108785,-0.164879,-0.980296,-0.10900074111745195
1762017219.680006,-0.082646,0.055099,0.916738,-0.386943,0.006194,0.002627,-0.000417,0.000174,0.000335,-0.000367,0.108889,-0.164981,-0.980268,-0.10910528661374679
1762017219.680325,-0.082715,0.055125,0.916728,-0.386948,0.004392,0.002405,0.001177,9.4e-05,0.00018,-0.000198,0.108993,-0.165083,-0.980239,-0.10920993822892953
1762017219.680608,-0.082784,0.055152,0.916719,-0.386953,0.002591,0.002183,0.002771,1.4e-05,2.6e-05,-2.9e-05,0.109097,-0.165185,-0.98021,-0.10931458867903676
1762017219.710707,-0.082805,0.055179,0.916704,-0.386979,0.002923,0.003694,0.002931,6e-06,1.1e-05,-1.2e-05,0.109109,-0.165253,-0.980197,-0.10932668253469022
1762017219.741597,-0.082889,0.055141,0.916675,-0.387034,-0.004462,0.008388,0.002731,0.000153,-0.000238,-0.001364,0.109281,-0.165255,-0.980178,-0.10949966356327209
1762017219.741755,-0.082933,0.055089,0.916673,-0.387038,-0.007341,0.007313,0.000384,-0.000153,-0.001155,-0.001365,0.109403,-0.165194,-0.980174,-0.1096224720420755
1762017219.772202,-0.082944,0.055011,0.916677,-0.387036,-0.009258,0.006034,-0.000115,-6.7e-05,-0.000505,-0.000596,0.109482,-0.165059,-0.980188,-0.10970194107055692
1762017219.802687,-0.082919,0.054805,0.916678,-0.387069,-0.011459,0.001736,-0.000144,-0.000803,0.000347,-6.5e-05,0.109594,-0.164668,-0.980242,-0.10981453774177816
1762017219.802996,-0.08288,0.054739,0.916677,-0.387088,-0.010437,-0.002596,0.002146,-9.9e-05,0.00061,0.000509,0.109571,-0.164519,-0.980269,-0.10979146210679745
1762017219.849881,-0.082764,0.054684,0.916661,-0.387159,-0.005635,-0.003722,0.005135,-0.000504,0.00174,-0.001673,0.109391,-0.16434,-0.980319,-0.10961038725818541
1762017219.850238,-0.082731,0.054675,0.91665,-0.387194,-0.003652,-0.003642,0.00615,-0.001272,0.002369,-0.002179,0.109331,-0.164302,-0.980332,-0.10955003197159703
1762017219.880308,-0.082667,0.054668,0.916579,-0.387377,-0.001532,-0.001169,0.016851,-0.002672,0.002954,-0.003017,0.109187,-0.164262,-0.980355,-0.10940513791372292
1762017219.880581,-0.082658,0.054662,0.916531,-0.387493,-0.001429,0.003896,0.017595,-0.002605,0.002423,-0.004451,0.109155,-0.164257,-0.98036,-0.10937288103368263
1762017219.913444,-0.082665,0.054651,0.916481,-0.387612,-0.000695,0.007321,0.019155,-0.00125,0.00073,-0.002401,0.109155,-0.164258,-0.980359,-0.10937297065076973
1762017219.957254,-0.08275,0.054672,0.916361,-0.387873,0.00834,0.00602,0.012172,-0.001318,-0.002455,0.002579,0.109247,-0.164392,-0.980327,-0.10946544779245436
1762017219.957656,-0.082787,0.054707,0.916331,-0.387931,0.009636,0.006983,0.012323,-0.001738,-0.001963,0.000144,0.109276,-0.164492,-0.980307,-0.10949462174185107
1762017219.958189,-0.082824,0.054743,0.916301,-0.387989,0.010931,0.007946,0.012473,-0.002159,-0.00147,-0.002292,0.109304,-0.164592,-0.980287,-0.1095228005403196
1762017219.987787,-0.082996,0.054863,0.916236,-0.388088,0.008073,0.009856,0.002675,-0.000367,-0.000424,-0.002491,0.109504,-0.164955,-0.980203,-0.10972407954465792
1762017220.020887,-0.083224,0.054903,0.916222,-0.388067,0.002327,0.009744,-0.006816,-0.001021,-0.000633,-0.00137,0.10989,-0.1652,-0.980119,-0.11011237319022972
1762017220.021241,-0.083286,0.054876,0.916231,-0.388037,0.002474,0.01063,-0.005939,-0.000667,0.000651,-0.000931,0.110031,-0.165194,-0.980104,-0.11025425428836558
1762017220.049987,-0.083349,0.054877,0.916236,-0.388011,0.002106,0.010001,-0.005013,-0.000236,0.001557,-0.001688,0.11015,-0.165242,-0.980083,-0.11037393227190802
1762017220.081379,-0.083569,0.054857,0.916256,-0.387918,0.003814,0.013293,-0.004811,0.000235,0.000987,-0.000389,0.110582,-0.165363,-0.980014,-0.11080858116908587
1762017220.081638,-0.083655,0.054853,0.916264,-0.387883,0.005741,0.012644,-0.000659,-0.000157,0.002608,0.000904,0.110747,-0.165417,-0.979986,-0.11097462860969938
1762017220.111555,-0.08375,0.054863,0.916242,-0.387912,0.005523,0.012712,0.003046,-0.000922,0.002648,0.001383,0.110908,-0.16551,-0.979952,-0.11113663633023078
1762017220.142671,-0.083917,0.054944,0.916175,-0.388024,0.010212,0.008224,0.012349,-0.000718,0.001494,0.001022,0.111126,-0.1658,-0.979878,-0.1113560226911171
1762017220.142961,-0.083989,0.054968,0.916132,-0.388106,0.006566,0.009441,0.011729,-0.000869,0.000578,0.000115,0.111224,-0.16591,-0.979849,-0.11145455308704466
1762017220.179709,-0.084099,0.055,0.916025,-0.388331,0.001628,0.007795,0.017651,-0.001033,-0.000755,-0.001539,0.111358,-0.16608,-0.979804,-0.11158949822923107
1762017220.180034,-0.08413,0.054994,0.915978,-0.388436,-0.002697,0.008306,0.01245,-0.001045,-0.001688,-0.003298,0.111399,-0.166105,-0.979795,-0.11163076608430025
1762017220.210896,-0.084184,0.054947,0.91595,-0.388496,-0.000946,0.007639,0.012351,-0.00239,-0.002601,-0.000761,0.111524,-0.166068,-0.979788,-0.11175644569729225
1762017220.25846,-0.084292,0.054956,0.915868,-0.388666,0.001972,0.010222,0.008464,-0.000409,-0.005392,-0.002536,0.111682,-0.166187,-0.979749,-0.11191552975783156
1762017220.258815,-0.08441,0.054983,0.915852,-0.388674,0.004047,0.013382,0.00247,-0.000377,-0.003802,-0.002302,0.111872,-0.166329,-0.979704,-0.11210664262555582
1762017220.259102,-0.084527,0.055011,0.915836,-0.388683,0.006122,0.016541,-0.003525,-0.000345,-0.002211,-0.002069,0.112062,-0.16647,-0.979658,-0.11229788199337372
1762017220.290628,-0.084658,0.055003,0.915829,-0.388671,0.007436,0.017157,-0.002861,-0.000276,-0.001724,-0.001657,0.112309,-0.166555,-0.979615,-0.11254648064539469
1762017220.32222,-0.084923,0.055035,0.915808,-0.388656,0.006386,0.013456,-0.000678,-0.000276,-0.00053,0.000581,0.112767,-0.166815,-0.979518,-0.1130074244639078
1762017220.322559,-0.085023,0.055043,0.915796,-0.388664,0.004304,0.012206,0.000931,-6e-05,-0.000115,0.000126,0.11294,-0.166908,-0.979483,-0.11318145052842331
1762017220.351438,-0.085106,0.055034,0.915772,-0.388702,0.002748,0.010737,0.005884,0.00016,0.000308,-0.000337,0.113092,-0.166958,-0.979457,-0.11333442389466131
1762017220.382803,-0.085328,0.054999,0.915674,-0.38889,0.003134,0.017171,0.016559,0.000107,-0.000684,-0.001974,0.113489,-0.16709,-0.979388,-0.11373405980774973
1762017220.383077,-0.085466,0.054982,0.91562,-0.388989,0.005744,0.021293,0.017714,0.000186,-0.000212,-0.001506,0.113734,-0.167177,-0.979345,-0.11398062643007181
1762017220.419055,-0.08578,0.054968,0.915502,-0.3892,0.006057,0.01763,0.011248,0.001033,-0.000707,0.000194,0.114276,-0.167418,-0.979241,-0.11452615307142715
1762017220.41938,-0.085895,0.054973,0.915465,-0.389261,0.004864,0.012195,0.007597,0.001352,-0.001787,0.000297,0.11447,-0.167524,-0.9792,-0.11472145839941936
1762017220.449309,-0.085958,0.054967,0.915449,-0.389285,0.003613,0.008627,0.000473,0.00076,-0.00122,0.001458,0.114584,-0.167564,-0.97918,-0.11483619337999458
1762017220.47757,-0.086029,0.054987,0.915485,-0.389182,0.003451,-0.002258,-0.012302,1e-05,-0.001455,0.003217,0.114717,-0.167641,-0.979151,-0.11497010410682793
1762017220.477898,-0.086013,0.05504,0.915525,-0.389085,0.00663,-0.010574,-0.012395,0.000781,0.000362,0.002249,0.114664,-0.167713,-0.979145,-0.11491673829036463
1762017220.513198,-0.085981,0.055117,0.91555,-0.389022,0.007236,-0.012559,-0.012229,-0.00029,0.001175,0.000111,0.114555,-0.167822,-0.979139,-0.11480702460466995
1762017220.558335,-0.085825,0.055305,0.91561,-0.388889,0.001834,-0.012509,0.001974,-0.000284,0.005037,-0.000965,0.11415,-0.168028,-0.979151,-0.11439934701507662
1762017220.558661,-0.085731,0.055361,0.915572,-0.38899,0.000143,-0.01463,0.013367,-0.001253,0.003691,-0.000726,0.113916,-0.168072,-0.979171,-0.1141637769627929
1762017220.558994,-0.085637,0.055418,0.915534,-0.389092,-0.001548,-0.016751,0.024761,-0.002221,0.002345,-0.000486,0.113681,-0.168115,-0.97919,-0.11392734464040118
1762017220.587456,-0.085519,0.055462,0.915473,-0.389255,-0.004744,-0.013023,0.027449,-0.001932,0.002625,-0.001792,0.113404,-0.168125,-0.979221,-0.11364847472349265
1762017220.623605,-0.085276,0.055485,0.915322,-0.389661,-0.007494,-0.013551,0.027164,-0.001876,0.000325,-0.000594,0.11287,-0.168031,-0.979299,-0.11311100496684086
1762017220.623938,-0.085175,0.055478,0.915268,-0.38981,-0.007832,-0.013431,0.022145,-0.002011,-0.00049,-0.001401,0.112665,-0.167959,-0.979335,-0.11290468420927599
1762017220.656904,-0.0848,0.055426,0.915146,-0.390186,-0.008474,-0.012058,0.013882,-0.00351,0.000446,-0.002364,0.111956,-0.167621,-0.979474,-0.11219119312253234
1762017220.68709,-0.084666,0.055364,0.915113,-0.390302,-0.004347,-0.006324,0.012364,-0.002809,-0.000469,-0.003143,0.11174,-0.167419,-0.979533,-0.11197385259590267
1762017220.687407,-0.084615,0.055431,0.91506,-0.390426,0.002927,-0.001463,0.014435,-0.002444,0.001416,-0.001268,0.111573,-0.167517,-0.979535,-0.11180583269195617
1762017220.715311,-0.084566,0.055532,0.914993,-0.390579,0.013711,-0.004623,0.016321,-0.001972,7e-06,-0.00101,0.111376,-0.167682,-0.979529,-0.11160761767081114
1762017220.746066,-0.084602,0.055692,0.914925,-0.39071,0.017894,-0.001858,0.012861,-0.000646,-0.003257,-0.003282,0.111291,-0.168017,-0.979482,-0.11152200419048233
1762017220.747301,-0.084643,0.055899,0.914868,-0.390804,0.020652,-0.002545,0.007795,0.001109,-0.006071,-0.001026,0.111184,-0.168438,-0.979422,-0.11141431875007818
1762017220.776464,-0.084689,0.056126,0.914838,-0.390832,0.023331,-0.00342,0.002641,0.001092,-0.006872,-0.001559,0.111082,-0.168891,-0.979355,-0.11131174444151443
1762017220.806969,-0.084763,0.056412,0.914812,-0.390835,0.026952,-0.004628,0.002983,0.001308,-0.005596,-0.000282,0.110989,-0.169469,-0.979266,-0.11121813214624393
1762017220.807618,-0.084811,0.056665,0.91479,-0.39084,0.020192,-0.007946,0.002098,0.001184,0.001479,-0.003272,0.110874,-0.169969,-0.979192,-0.11110245820191943
1762017220.859836,-0.08476,0.056674,0.914756,-0.39093,-0.005027,0.004626,0.005835,0.003216,0.004531,-0.006602,0.110758,-0.169956,-0.979208,-0.11098567208838775
1762017220.859933,-0.084709,0.056682,0.914722,-0.391019,-0.030247,0.017199,0.009572,0.005248,0.007584,-0.009932,0.110642,-0.169942,-0.979223,-0.1108690140217338
1762017220.866351,-0.084727,0.056498,0.914635,-0.391245,-0.008487,0.000217,0.031637,0.004354,0.001674,0.001587,0.110779,-0.169649,-0.979259,-0.1110067867638678
1762017220.897097,-0.084674,0.056484,0.914514,-0.39154,0.010383,-0.006408,0.032758,0.007075,-0.000148,0.000447,0.11064,-0.169618,-0.97928,-0.1108669362823867
1762017220.969686,-0.084778,0.05663,0.914306,-0.391984,0.009156,-0.003612,0.046758,0.004549,0.002372,0.000147,0.110629,-0.170018,-0.979212,-0.11085585481892062
1762017220.970041,-0.084881,0.056776,0.914096,-0.392428,0.00793,-0.000816,0.060759,0.002023,0.004891,-0.000152,0.110617,-0.170417,-0.979143,-0.1108438891193826
1762017220.970358,-0.084984,0.056922,0.913887,-0.392871,0.006704,0.00198,0.07476,-0.000503,0.007411,-0.000452,0.110605,-0.170817,-0.979075,-0.11083177718038602
1762017220.971712,-0.085003,0.057059,0.913555,-0.393619,0.018235,-0.000402,0.08657,-0.000939,-0.005983,-0.000532,0.110391,-0.171171,-0.979037,-0.1106164940304286
1762017221.00019,-0.085097,0.057406,0.913196,-0.394381,0.043387,0.005573,0.084807,-0.00259,-0.017153,-0.000241,0.11014,-0.171967,-0.978926,-0.11036392900198544
1762017221.006676,-0.085331,0.05794,0.912821,-0.395121,0.066201,0.003938,0.082782,-0.005528,-0.019955,0.005667,0.109998,-0.173209,-0.978723,-0.11022105833868019
1762017221.037117,-0.085572,0.058494,0.912471,-0.395793,0.046425,0.013506,0.073654,-0.00587,-0.015557,0.004084,0.10986,-0.174486,-0.978512,-0.11008217874947443
1762017221.070999,-0.085775,0.058744,0.912173,-0.3964,0.006782,0.012302,0.059232,-0.008261,-0.012551,0.005641,0.109911,-0.175171,-0.978384,-0.11013347615882835
1762017221.07217,-0.085765,0.058727,0.911975,-0.39686,-0.018555,-0.002526,0.030917,-0.00574,-0.022821,0.007251,0.109818,-0.175189,-0.978391,-0.11003993359177769
1762017221.10337,-0.085646,0.058561,0.911959,-0.396946,-0.027882,-0.005233,-0.018009,-0.002336,-0.031986,0.006134,0.10972,-0.174805,-0.978471,-0.10994130266334386
1762017221.157503,-0.085307,0.058387,0.912262,-0.396348,-0.039978,-0.017727,-0.037021,-0.00417,-0.018471,0.004477,0.109362,-0.174152,-0.978627,-0.10958119003873446
1762017221.158022,-0.084968,0.058213,0.912565,-0.395749,-0.052073,-0.03022,-0.056032,-0.006002,-0.004955,0.002819,0.109002,-0.173499,-0.978783,-0.10921903975894164
1762017221.186834,-0.084474,0.05785,0.912878,-0.395185,-0.074949,-0.035972,-0.051924,-0.008194,0.00697,0.001186,0.108506,-0.172386,-0.979035,-0.1087200519760549
1762017221.188308,-0.083862,0.057284,0.913134,-0.394805,-0.094129,-0.031859,-0.027449,-0.009066,0.015404,-0.002185,0.107923,-0.170834,-0.979371,-0.10813365323328676
1762017221.219037,-0.08325,0.056591,0.913265,-0.394733,-0.097793,-0.022972,0.000806,-0.007968,0.016142,-0.004158,0.107381,-0.169089,-0.979734,-0.10758841491368085
1762017221.24788,-0.082706,0.055813,0.913292,-0.394896,-0.096055,-0.006502,0.017592,-0.005918,0.0138,-0.006893,0.10699,-0.167268,-0.980089,-0.10719518105544061
1762017221.249667,-0.082323,0.054988,0.913267,-0.395148,-0.090085,0.00586,0.016555,-0.004148,0.009436,-0.006554,0.106908,-0.165497,-0.980399,-0.10711266045726493
1762017221.278944,-0.082029,0.05414,0.913274,-0.395311,-0.085398,0.012151,-2.5e-05,-0.002015,0.005749,-0.004342,0.107026,-0.163743,-0.98068,-0.1072314048198741
1762017221.309514,-0.081762,0.053327,0.913367,-0.395261,-0.075206,0.009692,-0.028048,-0.000526,0.002672,-0.002055,0.107202,-0.162049,-0.980942,-0.10740843636488188
1762017221.310728,-0.081551,0.052616,0.913571,-0.394929,-0.057969,0.006646,-0.05484,0.001117,0.002335,-0.000848,0.107445,-0.160551,-0.981162,-0.10765281747550684
1762017221.340927,-0.081412,0.052096,0.913848,-0.394385,-0.035564,0.001987,-0.068572,0.001039,0.005061,0.001249,0.107704,-0.15943,-0.981316,-0.10791337004419936
1762017221.343116,-0.081342,0.051808,0.914124,-0.393797,-0.015164,-0.002713,-0.060173,-0.000977,0.011892,0.002771,0.10791,-0.158783,-0.981399,-0.10812049972668572
1762017221.372771,-0.081275,0.051696,0.914333,-0.39334,-0.006099,-0.006216,-0.040396,-0.001469,0.016193,0.002472,0.107956,-0.158473,-0.981444,-0.10816677498857867
1762017221.403794,-0.081199,0.051656,0.91446,-0.393066,-0.004882,-0.009107,-0.020402,-0.00206,0.016178,0.000227,0.107898,-0.158308,-0.981477,-0.10810843487627585
1762017221.405827,-0.081097,0.051628,0.914513,-0.392968,-0.005811,-0.011515,-0.003641,-0.00124,0.011318,-0.001175,0.107753,-0.158165,-0.981516,-0.10796258286428906
1762017221.457419,-0.080929,0.051616,0.914536,-0.392951,-0.003289,-0.012232,-0.006368,-0.000598,0.005915,-0.003042,0.10746,-0.158013,-0.981572,-0.10766793568261512
1762017221.457721,-0.080761,0.051605,0.914558,-0.392935,-0.000767,-0.012949,-0.009095,4.5e-05,0.000512,-0.004908,0.107167,-0.15786,-0.981629,-0.10737319666160904
1762017221.486708,-0.080639,0.051636,0.914612,-0.392832,0.009223,-0.013965,-0.01265,-0.000723,-0.002881,-0.004139,0.106938,-0.157809,-0.981662,-0.10714289139552521
1762017221.488439,-0.080568,0.051776,0.91468,-0.392668,0.020796,-0.012185,-0.017791,-0.000406,-0.004755,-0.005094,0.106726,-0.15799,-0.981656,-0.1069296666699872
1762017221.517997,-0.080583,0.052031,0.914757,-0.392451,0.03217,-0.004204,-0.021197,-0.001032,-0.005024,-0.00607,0.106589,-0.158441,-0.981598,-0.10679190120103342
1762017221.523957,-0.080749,0.052324,0.91482,-0.392232,0.035983,0.006247,-0.019078,-0.001502,-0.005476,-0.006188,0.106696,-0.159078,-0.981484,-0.10689944570782652
1762017221.552603,-0.081002,0.052606,0.91486,-0.392048,0.034378,0.014704,-0.016576,-0.001897,-0.006017,-0.005892,0.106963,-0.159767,-0.981343,-0.10716798383213336
1762017221.582829,-0.081311,0.052866,0.914878,-0.391908,0.032497,0.017625,-0.011118,-0.002334,-0.007334,-0.003187,0.107342,-0.160464,-0.981188,-0.10754916596637766
1762017221.58373,-0.0816,0.053084,0.914885,-0.391802,0.029113,0.017582,-0.009532,-0.001422,-0.007962,-0.00208,0.107712,-0.161073,-0.981047,-0.10792139334306736
1762017221.613882,-0.081881,0.053255,0.914891,-0.391707,0.022639,0.015381,-0.010138,-0.001241,-0.010079,-0.000402,0.108104,-0.161592,-0.980919,-0.10831564516370049
1762017221.627551,-0.082082,0.053383,0.914913,-0.391595,0.015519,0.011104,-0.012347,-0.002161,-0.010377,0.001308,0.108388,-0.161967,-0.980826,-0.10860130319398885
1762017221.659199,-0.082216,0.053475,0.914953,-0.391461,0.009045,0.005512,-0.015162,-0.001614,-0.009704,0.001137,0.10858,-0.162222,-0.980762,-0.10879450936557127
1762017221.688606,-0.082286,0.053536,0.915012,-0.391301,0.004878,0.002441,-0.017385,-0.001854,-0.007688,0.000894,0.108689,-0.162369,-0.980726,-0.10890411547150461
1762017221.688915,-0.082331,0.053528,0.915087,-0.391116,-0.003552,0.001598,-0.017994,-0.001999,-0.005951,-0.000735,0.108809,-0.162367,-0.980713,-0.10902483402951574
1762017221.720067,-0.082331,0.05345,0.915162,-0.390951,-0.012794,0.002945,-0.016235,-0.002429,-0.004243,-0.000873,0.108899,-0.162207,-0.980729,-0.10911542432246889
1762017221.722049,-0.082311,0.053289,0.915234,-0.390809,-0.020635,0.003967,-0.01374,-0.002152,-0.003591,-0.000857,0.109016,-0.161879,-0.98077,-0.10923314608089672
1762017221.752525,-0.082266,0.053068,0.915307,-0.390679,-0.024818,0.003072,-0.012557,-0.002011,-0.002519,0.000589,0.109132,-0.161426,-0.980832,-0.10934981673391404
1762017221.781303,-0.08219,0.052841,0.915369,-0.39058,-0.026013,-0.000691,-0.010232,-0.002256,-0.001523,0.000833,0.109192,-0.160941,-0.980905,-0.10941017975801634
1762017221.783272,-0.082067,0.052586,0.915422,-0.390515,-0.029176,-0.00161,-0.005136,-0.001547,-0.000556,0.00031,0.10918,-0.160374,-0.980999,-0.10939812883810483
1762017221.813796,-0.081904,0.052314,0.915465,-0.390486,-0.033011,-0.000487,-0.005391,-0.000556,6.7e-05,-0.000215,0.109105,-0.159749,-0.98111,-0.10932260421039358
1762017221.856138,-0.081773,0.051973,0.915507,-0.390459,-0.035345,0.002266,-0.006737,-0.000774,0.000687,-0.00072,0.109142,-0.159021,-0.981224,-0.10935984204081296
1762017221.856405,-0.081643,0.051631,0.91555,-0.390433,-0.037679,0.005018,-0.008083,-0.000991,0.001306,-0.001226,0.109179,-0.158294,-0.981337,-0.10939711064468383
1762017221.915844,-0.081539,0.051256,0.915612,-0.390357,-0.036282,0.003876,-0.010534,-0.000411,0.001424,-0.00034,0.109301,-0.15752,-0.981448,-0.10951984060199724
1762017221.916217,-0.081436,0.050881,0.915674,-0.390282,-0.034884,0.002735,-0.012985,0.000169,0.001542,0.000546,0.109422,-0.156746,-0.981559,-0.10964150926682859
1762017221.916446,-0.081332,0.050505,0.915736,-0.390206,-0.033486,0.001593,-0.015436,0.00075,0.001659,0.001432,0.109543,-0.155972,-0.981668,-0.1097633268040481
1762017221.945819,-0.081217,0.050156,0.91581,-0.390103,-0.032426,0.000142,-0.014226,0.000388,0.002705,0.00095,0.109626,-0.155233,-0.981776,-0.10984681526930498
1762017221.946161,-0.081077,0.049842,0.915879,-0.390011,-0.030664,-0.00252,-0.01187,0.000331,0.003156,-5e-06,0.109634,-0.154541,-0.981885,-0.10985478494772503
1762017221.973836,-0.080938,0.049567,0.915933,-0.389948,-0.027862,-0.00286,-0.007511,-0.000103,0.002329,-8.5e-05,0.10961,-0.153923,-0.981984,-0.10983072046790673
1762017222.004471,-0.080812,0.04932,0.915964,-0.389932,-0.024697,-0.00286,-0.002953,-0.000365,0.001575,-0.000489,0.10958,-0.153373,-0.982074,-0.10980047378748427
1762017222.005874,-0.080693,0.049073,0.915981,-0.389948,-0.025942,-0.000389,0.000125,-0.000465,-0.00035,-0.000594,0.109555,-0.152832,-0.982161,-0.10977533596763209
1762017222.034935,-0.080579,0.048799,0.915995,-0.389973,-0.029826,0.001071,0.001779,-0.00087,-0.00269,-0.00138,0.109559,-0.152246,-0.982252,-0.10977931266698487
1762017222.079927,-0.080469,0.048472,0.916012,-0.389995,-0.033039,0.002707,-0.000557,-0.001056,-0.006184,-0.000257,0.109613,-0.151567,-0.98235,-0.10983374585226648
1762017222.08028,-0.080359,0.048145,0.91603,-0.390018,-0.036252,0.004343,-0.002893,-0.001242,-0.009679,0.000865,0.109668,-0.150888,-0.982449,-0.10988901279182366
1762017222.081691,-0.080255,0.047789,0.916067,-0.389997,-0.040847,0.003772,-0.008172,-0.000387,-0.011204,0.002659,0.109763,-0.150154,-0.982551,-0.10998457259443271
1762017222.110324,-0.080089,0.047404,0.916125,-0.389941,-0.04291,0.000332,-0.010427,-4e-06,-0.014671,0.004758,0.109773,-0.149316,-0.982677,-0.10999469643524348
1762017222.15359,-0.079917,0.046998,0.916188,-0.389876,-0.045201,-0.001668,-0.011798,0.000321,-0.019366,0.005597,0.109791,-0.148434,-0.982809,-0.11001276277600797
1762017222.153871,-0.079745,0.046593,0.916252,-0.389811,-0.047492,-0.003669,-0.013169,0.000646,-0.02406,0.006434,0.109809,-0.147553,-0.982939,-0.11003094211873617
1762017222.182828,-0.079501,0.046138,0.91633,-0.389732,-0.058186,-0.006131,-0.013671,0.000305,-0.025243,0.008221,0.109735,-0.146523,-0.983102,-0.109956419290874
1762017222.184695,-0.079189,0.045556,0.916398,-0.389702,-0.077923,-0.009468,-0.004593,-0.001809,-0.025131,0.011762,0.10963,-0.145214,-0.983308,-0.10985077295125809
1762017222.224737,-0.078742,0.044856,0.91644,-0.389775,-0.093303,-0.016029,0.007224,-0.001408,-0.02992,0.012669,0.109357,-0.143599,-0.983575,-0.10957617991370734
1762017222.226768,-0.078232,0.044064,0.916459,-0.389925,-0.104283,-0.01766,0.011891,0.001757,-0.037478,0.011888,0.109028,-0.141775,-0.983876,-0.10924520998234327
1762017222.255264,-0.07768,0.043155,0.916475,-0.390099,-0.116518,-0.01196,0.008716,0.001996,-0.0437,0.013031,0.108714,-0.139706,-0.984207,-0.1089292950475638
1762017222.293574,-0.077049,0.042178,0.916505,-0.39026,-0.121974,-0.013811,0.007676,0.00176,-0.044631,0.01253,0.108312,-0.137451,-0.984569,-0.10852488188401731
1762017222.29402,-0.076419,0.041201,0.916534,-0.390421,-0.127429,-0.015661,0.006637,0.001524,-0.045563,0.012024,0.10791,-0.135195,-0.984925,-0.10812055913488593
1762017222.322103,-0.075797,0.04013,0.916561,-0.390589,-0.138177,-0.012118,0.009317,0.00089,-0.044196,0.011627,0.107597,-0.132774,-0.985289,-0.10780567450985147
1762017222.323699,-0.07514,0.038981,0.916567,-0.390819,-0.140479,-0.013796,0.016489,-0.0011,-0.04624,0.01287,0.107273,-0.13019,-0.985669,-0.10747979663550758
1762017222.353251,-0.074496,0.037883,0.916548,-0.391095,-0.134579,-0.014435,0.019978,-0.001017,-0.047474,0.010486,0.106927,-0.127713,-0.986031,-0.10713175116833525
1762017222.384398,-0.073925,0.036819,0.916516,-0.391379,-0.134411,-0.00257,0.018995,-0.001438,-0.046249,0.005377,0.106686,-0.125355,-0.986359,-0.10688943300931478
1762017222.385811,-0.073493,0.035697,0.916486,-0.391635,-0.136765,0.015688,0.010529,0.000728,-0.044466,0.005349,0.10675,-0.122996,-0.986649,-0.10695380208770418
1762017222.415208,-0.073199,0.034444,0.916481,-0.391813,-0.14098,0.029731,0.002866,0.001063,-0.043466,0.00601,0.107179,-0.120496,-0.986911,-0.10738527119799511
1762017222.453652,-0.073017,0.032936,0.916537,-0.391846,-0.15815,0.040639,-0.010646,0.000651,-0.040923,0.007019,0.108033,-0.117598,-0.987168,-0.10824419730194232
1762017222.45387,-0.072835,0.031428,0.916591,-0.391877,-0.17532,0.051547,-0.024157,0.000239,-0.038381,0.008017,0.108887,-0.114699,-0.987415,-0.10910328970820068
1762017222.482278,-0.072636,0.029611,0.916701,-0.3918,-0.20156,0.057695,-0.034619,0.000281,-0.03693,0.011222,0.109968,-0.111206,-0.987694,-0.11019090041422255
1762017222.486601,-0.072382,0.027534,0.916854,-0.39164,-0.215549,0.058766,-0.041875,0.001423,-0.037077,0.014811,0.11116,-0.107184,-0.988006,-0.1113901625878077
1762017222.515268,-0.072102,0.025395,0.917039,-0.391401,-0.217236,0.056935,-0.048197,0.002769,-0.035782,0.014088,0.112361,-0.103018,-0.988313,-0.11259876322370944
1762017222.522699,-0.07181,0.023226,0.917248,-0.3911,-0.225446,0.056987,-0.053734,0.003504,-0.028697,0.011892,0.113568,-0.098778,-0.988608,-0.11381352327281977
1762017222.553327,-0.071461,0.020839,0.917473,-0.390771,-0.259165,0.059661,-0.053805,0.000189,-0.021516,0.016094,0.11484,-0.094089,-0.988918,-0.11509394549108212
1762017222.583485,-0.070883,0.018236,0.91767,-0.390545,-0.281461,0.039459,-0.03732,-0.001008,-0.019706,0.020803,0.11585,-0.088835,-0.989286,-0.11611073842687607
1762017222.583666,-0.070105,0.015554,0.917816,-0.390457,-0.290906,0.032228,-0.028598,0.006209,-0.021904,0.016661,0.11654,-0.083298,-0.989687,-0.11680539627731568
1762017222.612062,-0.069271,0.012781,0.917941,-0.390413,-0.301415,0.037847,-0.032584,0.010738,-0.02332,0.012718,0.117194,-0.077552,-0.990076,-0.11746398254038541
1762017222.642776,-0.068466,0.009852,0.918081,-0.390311,-0.310883,0.038612,-0.036573,0.009701,-0.023771,0.018497,0.118023,-0.071536,-0.990431,-0.11829870730215296
1762017222.644428,-0.067564,0.006927,0.918238,-0.390161,-0.31167,0.028724,-0.042858,0.010077,-0.023825,0.019919,0.118675,-0.065442,-0.990774,-0.1189553734348552
1762017222.672746,-0.066566,0.004048,0.918423,-0.389938,-0.306133,0.013372,-0.052893,0.008474,-0.019104,0.019226,0.119115,-0.059348,-0.991105,-0.1193985072787339
1762017222.703785,-0.065439,0.001232,0.918653,-0.389606,-0.31178,-0.003859,-0.065909,0.006843,-0.012179,0.01654,0.119271,-0.053255,-0.991432,-0.11955566417170699
1762017222.705289,-0.064149,-0.001691,0.918935,-0.389154,-0.336629,-0.013768,-0.078017,0.002431,-0.00339,0.020537,0.119213,-0.04682,-0.991764,-0.11949721094988182
1762017222.751824,-0.062334,-0.004849,0.919273,-0.388624,-0.361785,-0.041154,-0.079842,-0.000712,-8.8e-05,0.023617,0.118373,-0.039534,-0.992182,-0.11865118806187418
1762017222.75206,-0.060519,-0.008007,0.919598,-0.388088,-0.38694,-0.06854,-0.081667,-0.003843,0.003213,0.026645,0.117521,-0.032247,-0.992547,-0.11779317701442797
1762017222.784839,-0.058319,-0.011301,0.919935,-0.387545,-0.402584,-0.092731,-0.084987,-0.004944,0.003706,0.024802,0.116059,-0.024411,-0.992942,-0.11632117336747967
1762017222.785074,-0.055869,-0.014662,0.920282,-0.386968,-0.416925,-0.105503,-0.095505,-0.004068,0.00515,0.01853,0.114179,-0.016252,-0.993327,-0.1144285845038429
1762017222.8128,-0.053299,-0.018263,0.920653,-0.386295,-0.445449,-0.100098,-0.102352,-0.0054,0.009683,0.019438,0.11225,-0.007551,-0.993651,-0.11248710731395033
1762017222.850083,-0.050583,-0.022058,0.920993,-0.385651,-0.45706,-0.110595,-0.090814,-0.009339,0.009783,0.025457,0.110186,0.001616,-0.99391,-0.11041015128293018
1762017222.850764,-0.047728,-0.02583,0.921265,-0.385132,-0.455868,-0.121299,-0.077396,-0.008519,0.011947,0.024642,0.107837,0.010828,-0.99411,-0.10804706313892279
1762017222.881283,-0.044811,-0.029573,0.921445,-0.384782,-0.461735,-0.131313,-0.05217,-0.007588,0.015617,0.026276,0.105339,0.020014,-0.994235,-0.10553478620017598
1762017222.882865,-0.041777,-0.033423,0.921502,-0.384672,-0.48684,-0.139835,-0.023691,-0.009523,0.014975,0.032807,0.102709,0.029459,-0.994275,-0.10289045764100384
1762017222.912053,-0.038511,-0.037356,0.921409,-0.384872,-0.493811,-0.160726,0.011656,-0.010527,0.00588,0.037186,0.099722,0.039197,-0.994243,-0.09988802330818335
1762017222.942743,-0.035052,-0.041148,0.921191,-0.385338,-0.476912,-0.177809,0.036456,-0.006655,0.002767,0.029461,0.096291,0.048796,-0.994156,-0.09644046599662362
1762017222.943726,-0.031672,-0.044711,0.920893,-0.385946,-0.441403,-0.174051,0.044121,-0.00144,0.009194,0.02027,0.092845,0.057901,-0.993996,-0.09297887462263414
1762017222.973865,-0.028539,-0.047963,0.920593,-0.386515,-0.411082,-0.155509,0.032498,-0.002094,0.025179,0.001839,0.089622,0.066248,-0.99377,-0.08974242415028351
1762017223.007426,-0.025676,-0.051185,0.92035,-0.386879,-0.411998,-0.127906,0.009844,-0.009206,0.048184,-0.00893,0.086866,0.07435,-0.993442,-0.08697558923217331
1762017223.009369,-0.022905,-0.054528,0.920124,-0.387135,-0.435144,-0.121684,0.016081,-0.019725,0.073506,-0.020684,0.084371,0.082611,-0.993004,-0.08447142124104284
1762017223.052651,-0.020007,-0.05853,0.919719,-0.387674,-0.471975,-0.113599,0.043247,-0.019623,0.081606,-0.032916,0.082183,0.09215,-0.992348,-0.08227578447791195
1762017223.052952,-0.017108,-0.062531,0.919291,-0.388203,-0.508806,-0.105513,0.070413,-0.019529,0.089711,-0.045245,0.080003,0.101685,-0.991594,-0.08008863061030677
1762017223.081893,-0.014397,-0.066791,0.918708,-0.388983,-0.49597,-0.062578,0.081454,-0.012551,0.082587,-0.0574,0.078413,0.111522,-0.990663,-0.07849362005765864
1762017223.083112,-0.012204,-0.071071,0.91807,-0.389805,-0.4652,-0.006982,0.083051,-0.008151,0.078283,-0.059614,0.077816,0.120982,-0.9896,-0.07789474312536472
1762017223.113743,-0.010608,-0.075292,0.917408,-0.390617,-0.436732,0.03809,0.085028,-0.008738,0.076875,-0.053043,0.078284,0.129859,-0.988437,-0.0783642020864481
1762017223.143299,-0.009499,-0.079435,0.916713,-0.391454,-0.404452,0.064292,0.096084,-0.009006,0.070687,-0.043032,0.079607,0.138201,-0.9872,-0.07969129740216781
1762017223.144865,-0.008707,-0.083257,0.916015,-0.392312,-0.367057,0.079877,0.091601,-0.006611,0.063003,-0.038313,0.081277,0.145698,-0.985985,-0.08136674102982928
1762017223.183734,-0.008177,-0.086845,0.915377,-0.393034,-0.337442,0.096156,0.075673,-0.004264,0.057674,-0.026917,0.083236,0.152563,-0.984782,-0.08333244366990017
1762017223.184627,-0.00787,-0.090157,0.914799,-0.393639,-0.28947,0.093369,0.066029,-0.005095,0.042638,-0.011502,0.085378,0.158755,-0.98362,-0.08548203076966514
1762017223.215022,-0.007642,-0.09283,0.914332,-0.394109,-0.216578,0.072678,0.046245,-0.002559,0.027339,-0.007297,0.087145,0.163731,-0.982648,-0.08725571454361211
1762017223.21952,-0.007489,-0.094834,0.914021,-0.394356,-0.164811,0.056899,0.016953,0.001039,0.021182,-0.006047,0.088487,0.167454,-0.981901,-0.08860286734829746
1762017223.250603,-0.007251,-0.096485,0.913843,-0.394372,-0.152563,0.032472,-0.001954,0.001295,0.023901,-0.003052,0.089354,0.170625,-0.981276,-0.08947334889527662
1762017223.280636,-0.006767,-0.097957,0.913741,-0.394254,-0.150518,0.000906,-0.020658,-0.001316,0.027212,-0.003639,0.089606,0.173678,-0.980717,-0.08972638633606472
1762017223.280933,-0.005969,-0.099369,0.913697,-0.394014,-0.168717,-0.026398,-0.033695,-0.003879,0.034307,-0.009446,0.089213,0.176884,-0.98018,-0.08933177788853759
1762017223.309082,-0.004878,-0.100945,0.913656,-0.393725,-0.197929,-0.041382,-0.036158,-0.008013,0.036417,-0.009673,0.088403,0.180616,-0.979573,-0.08851853123739284
1762017223.352378,-0.003556,-0.102483,0.913647,-0.393362,-0.175583,-0.050021,-0.049384,-0.009004,0.034459,-0.01249,0.087124,0.184468,-0.978969,-0.08723462762040457
1762017223.352702,-0.002235,-0.104021,0.913635,-0.392996,-0.153237,-0.058659,-0.06261,-0.009992,0.032506,-0.015323,0.085843,0.188318,-0.978349,-0.08594880441349327
1762017223.381615,-0.001059,-0.10516,0.91377,-0.392384,-0.120902,-0.046941,-0.087042,-0.010354,0.03747,-0.023937,0.084461,0.191353,-0.97788,-0.08456178862476754
1762017223.383461,-0.000207,-0.106051,0.91403,-0.391539,-0.089306,-0.022952,-0.102401,-0.010928,0.043107,-0.025037,0.083424,0.193705,-0.977506,-0.08352110479460204
1762017223.41298,0.000351,-0.106655,0.914359,-0.390604,-0.038564,-0.009474,-0.101909,-0.010187,0.042335,-0.018363,0.082679,0.195316,-0.977249,-0.08277349711570874
1762017223.443331,0.000552,-0.106839,0.914729,-0.389687,0.004947,0.010115,-0.092835,-0.009048,0.040861,-0.015558,0.082258,0.195888,-0.97717,-0.08235106093972094
1762017223.444807,0.000419,-0.106707,0.915092,-0.38887,0.03941,0.023497,-0.075785,-0.006062,0.037208,-0.009217,0.082224,0.195619,-0.977227,-0.08231692503581013
1762017223.476966,8.5e-05,-0.106436,0.915391,-0.388241,0.046205,0.031802,-0.054045,-0.004649,0.030351,-0.003867,0.08249,0.194927,-0.977343,-0.08258381987695895
1762017223.480569,-0.000352,-0.106146,0.915608,-0.387807,0.054034,0.033286,-0.034418,-0.001755,0.017526,0.002082,0.082974,0.194103,-0.977466,-0.08306948614867643
1762017223.517056,-0.000813,-0.105808,0.915791,-0.387468,0.052575,0.035361,-0.027574,0.000165,0.008266,0.002576,0.083483,0.193165,-0.977608,-0.08358029629911418
1762017223.51921,-0.001283,-0.105597,0.915944,-0.387161,0.033257,0.037046,-0.026131,0.000744,0.003395,0.004959,0.084117,0.192448,-0.977695,-0.08421653921147171
1762017223.547673,-0.001603,-0.105538,0.916089,-0.386833,0.012526,0.028673,-0.033202,0.001227,-0.000815,0.007327,0.084587,0.192124,-0.977719,-0.08468815167695601
1762017223.578198,-0.001771,-0.105631,0.916231,-0.38647,0.003581,0.014991,-0.035547,-0.000198,-0.002801,0.013193,0.084892,0.192195,-0.977678,-0.08499430336533854
1762017223.579645,-0.001782,-0.105594,0.916385,-0.386115,0.006202,-0.004877,-0.039982,0.000243,-0.000277,0.0085,0.084809,0.192154,-0.977693,-0.08491102478094095
1762017223.609676,-0.001669,-0.105533,0.916553,-0.385734,6.9e-05,-0.012796,-0.038416,-0.000725,0.003327,0.003366,0.084476,0.192166,-0.97772,-0.08457678143429799
1762017223.653497,-0.001458,-0.105509,0.916681,-0.385437,0.004348,-0.022155,-0.034649,-0.001125,0.000318,0.005009,0.084007,0.192312,-0.977732,-0.08410608396899465
1762017223.653809,-0.001246,-0.105484,0.916809,-0.38514,0.008627,-0.031515,-0.030882,-0.001524,-0.002691,0.006652,0.083538,0.192458,-0.977743,-0.08363546718114435
1762017223.682964,-0.000952,-0.105317,0.916939,-0.384878,0.006824,-0.033913,-0.030039,-0.001087,0.00098,-0.002037,0.082814,0.192405,-0.977815,-0.08290895122183058
1762017223.684389,-0.000622,-0.105237,0.917029,-0.384686,-0.011282,-0.028105,-0.021368,-0.002434,0.003325,-0.00603,0.082108,0.192532,-0.97785,-0.08220050147848457
1762017223.715077,-0.000278,-0.105336,0.917075,-0.384549,-0.020902,-0.024987,-0.015085,-0.003175,0.000176,-0.002549,0.081524,0.192989,-0.977808,-0.08161459925231596
1762017223.719472,3.8e-05,-0.105401,0.917114,-0.384437,-0.013518,-0.021996,-0.019909,-0.002112,-0.005553,-0.006516,0.080971,0.193359,-0.977781,-0.08105975306861467
1762017223.747742,0.000314,-0.105436,0.917179,-0.384273,-0.00765,-0.020085,-0.023031,-0.002507,-0.005144,-0.006048,0.080456,0.193648,-0.977766,-0.08054309236070784
1762017223.77845,0.000558,-0.105483,0.91725,-0.38409,-0.011607,-0.016412,-0.02088,-0.003985,-0.003177,-0.002205,0.080005,0.193937,-0.977746,-0.0800906121438753
1762017223.780635,0.000785,-0.105505,0.917336,-0.383877,-0.01149,-0.015565,-0.030403,-0.003631,-0.005504,-0.000488,0.079562,0.194169,-0.977736,-0.07964620342380681
1762017223.808816,0.00098,-0.105533,0.917456,-0.383583,-0.008513,-0.011626,-0.036309,-0.003838,-0.004409,-0.001771,0.079164,0.194395,-0.977724,-0.07924689721485526
1762017223.852824,0.001113,-0.105639,0.91761,-0.383185,-0.01025,-0.008239,-0.037594,-0.005047,-0.00039,0.000285,0.078915,0.194723,-0.977679,-0.0789971049211609
1762017223.853102,0.001247,-0.105744,0.917764,-0.382787,-0.011988,-0.004853,-0.038879,-0.006256,0.003629,0.002341,0.078666,0.195051,-0.977633,-0.07874738123940327
1762017223.881711,0.001375,-0.105847,0.917889,-0.382457,-0.017436,-0.002015,-0.031291,-0.005008,0.004545,-0.000167,0.078441,0.195364,-0.977589,-0.07852165145447994
1762017223.88199,0.001492,-0.106036,0.917989,-0.382166,-0.022752,0.002904,-0.024769,-0.003753,0.006001,0.000316,0.078308,0.195819,-0.977508,-0.07838828910680641
1762017223.91233,0.00155,-0.106291,0.918056,-0.381934,-0.026708,0.009075,-0.017571,-0.005346,0.008145,9.6e-05,0.078346,0.196347,-0.9774,-0.07842633210499197
1762017223.962397,0.00158,-0.106613,0.918072,-0.381806,-0.03038,0.011374,-0.012081,-0.0044,0.007902,0.000556,0.078509,0.196964,-0.977262,-0.07858989482977127
1762017223.962733,0.001611,-0.106935,0.918087,-0.381678,-0.034053,0.013672,-0.00659,-0.003453,0.00766,0.001016,0.078672,0.197581,-0.977125,-0.07875334915357061
1762017223.963984,0.001611,-0.107293,0.918073,-0.381611,-0.03145,0.014124,-0.004882,-0.001902,0.006234,0.003227,0.07893,0.198235,-0.976971,-0.07901220949180841
1762017223.992588,0.001611,-0.107592,0.918058,-0.381564,-0.023935,0.014894,-0.002389,-0.001565,0.006735,-0.000552,0.079148,0.198781,-0.976843,-0.07923084830962261
1762017224.000483,0.001547,-0.107861,0.918039,-0.381534,-0.019156,0.014472,0.00066,-0.000256,0.007452,4.8e-05,0.079465,0.199223,-0.976727,-0.07954886642352323
1762017224.030806,0.001503,-0.10812,0.918018,-0.38151,-0.019336,0.012138,0.000667,-0.001064,0.007193,0.002796,0.079738,0.199659,-0.976616,-0.07982271330424179
1762017224.061385,0.0015,-0.10829,0.917992,-0.381526,-0.009701,0.001487,0.003552,-0.002151,0.006896,0.004115,0.079877,0.199963,-0.976542,-0.07996219258682025
1762017224.061688,0.001543,-0.108329,0.917963,-0.381584,-0.001496,-0.007659,0.005579,-0.000676,0.006176,0.000374,0.07984,0.200062,-0.976525,-0.0799250543787318
1762017224.089228,0.001625,-0.10833,0.917937,-0.381646,-0.006473,-0.007319,0.004001,0.000129,0.00677,-0.000948,0.079704,0.20012,-0.976524,-0.07978863721032435
1762017224.119919,0.001772,-0.108383,0.917911,-0.381692,-0.006567,-0.010589,0.00296,-0.001095,0.005117,-0.00019,0.079486,0.200325,-0.9765,-0.07956992279995785
1762017224.120947,0.00193,-0.108374,0.917893,-0.381739,0.001707,-0.016401,0.000461,-0.001673,0.00364,-0.000812,0.079197,0.200425,-0.976503,-0.0792800059346297
1762017224.150521,0.00204,-0.108279,0.91789,-0.381772,0.005416,-0.011115,0.001171,-0.0024,0.00615,-0.003998,0.078932,0.200334,-0.976543,-0.0790141837609492
1762017224.184403,0.002139,-0.108203,0.917886,-0.381803,0.001384,-0.007498,0.004168,-0.003212,0.006258,-0.003328,0.078698,0.200269,-0.976575,-0.0787794703686927
1762017224.184725,0.002196,-0.108164,0.917868,-0.381856,0.003997,-0.006628,0.004929,-0.004701,0.00336,-0.001761,0.078574,0.200238,-0.976592,-0.07865503448775496
1762017224.216194,0.002232,-0.108071,0.917846,-0.381935,0.007523,-0.003379,0.003612,-0.003954,0.001461,-0.002356,0.078454,0.20009,-0.976632,-0.07853466150832077
1762017224.217284,0.002222,-0.10803,0.917835,-0.381972,0.003878,0.003191,0.00214,-0.004585,0.000145,-0.002665,0.07845,0.200004,-0.976649,-0.07853072114460999
1762017224.252536,0.002197,-0.108025,0.917835,-0.381975,0.0019,0.002815,0.000733,-0.004751,-0.000328,0.000923,0.078492,0.199977,-0.976652,-0.07857278603773689
1762017224.257231,0.002163,-0.107999,0.917838,-0.381974,0.003966,-0.002069,-0.000936,-0.004834,0.00144,0.00205,0.078535,0.199904,-0.976663,-0.07861595669306436
1762017224.296081,0.002189,-0.107959,0.917853,-0.381951,-0.000317,-0.003031,-0.00323,-0.004057,0.001295,0.000283,0.078451,0.199853,-0.97668,-0.07853171118543682
1762017224.297909,0.002266,-0.107973,0.917867,-0.381912,-0.005503,-0.006933,-0.005331,-0.004145,0.00088,0.001037,0.078312,0.19994,-0.976674,-0.07839223224321942
1762017224.326514,0.002379,-0.107998,0.917892,-0.381845,-0.008978,-0.006708,-0.009168,-0.004616,-0.001045,0.000385,0.07811,0.200078,-0.976661,-0.07818968171903944
1762017224.339057,0.002502,-0.108012,0.917926,-0.381758,-0.004219,-0.009579,-0.010334,-0.004663,0.000207,-0.000843,0.077877,0.200205,-0.976654,-0.07795593775413637
1762017224.369152,0.002627,-0.108023,0.917964,-0.381663,-0.002244,-0.005816,-0.011836,-0.004248,0.001455,-0.002162,0.077633,0.200327,-0.976648,-0.07771122790969509
1762017224.408484,0.002656,-0.108103,0.917999,-0.381556,-0.004372,-0.000133,-0.012209,-0.004011,0.001361,-0.001545,0.077618,0.200504,-0.976613,-0.0776961726101627
1762017224.408808,0.002685,-0.108184,0.918034,-0.381449,-0.006499,0.005549,-0.012583,-0.003775,0.001267,-0.000928,0.077602,0.200681,-0.976578,-0.07768011779608404
1762017224.437916,0.002677,-0.108295,0.918075,-0.381319,-0.007051,0.008357,-0.011792,-0.00431,0.001441,-0.000828,0.077675,0.200887,-0.97653,-0.07775332678675415
1762017224.439795,0.002633,-0.108407,0.918114,-0.381192,-0.013964,0.009575,-0.012579,-0.003144,0.003008,-0.001603,0.077813,0.201068,-0.976482,-0.07789172753361155
1762017224.469432,0.00266,-0.108629,0.918143,-0.381059,-0.02444,0.006831,-0.012056,-0.004066,0.001015,0.000891,0.077904,0.201501,-0.976385,-0.07798304153920162
1762017224.499498,0.002708,-0.10889,0.918181,-0.380892,-0.023536,0.012359,-0.024751,0.002625,-0.006384,-0.003015,0.077978,0.202023,-0.976271,-0.07805728409799106
1762017224.500712,0.002667,-0.109234,0.918296,-0.380518,-0.025108,0.028575,-0.039352,-0.002356,-0.000503,-0.003911,0.078233,0.202647,-0.976122,-0.07831300907053104
1762017224.552194,0.002494,-0.109741,0.918397,-0.380129,-0.033715,0.036243,-0.034069,-0.004495,0.004263,-0.002466,0.07885,0.203468,-0.975901,-0.07893196266185457
1762017224.552467,0.002322,-0.110248,0.918497,-0.37974,-0.042322,0.043912,-0.028786,-0.006634,0.00903,-0.001022,0.079466,0.204289,-0.97568,-0.07954986239757378
1762017224.556929,0.002104,-0.110793,0.91855,-0.379454,-0.041413,0.044154,-0.019749,-0.006893,0.007945,0.000116,0.080216,0.205135,-0.975441,-0.08030227165239459
1762017224.585099,0.001885,-0.111252,0.918578,-0.379253,-0.028704,0.031158,-0.015246,-0.004769,0.006858,0.002763,0.080923,0.205816,-0.975239,-0.08101158791290965
1762017224.615819,0.00176,-0.111554,0.918616,-0.379074,-0.022044,0.023166,-0.019903,-0.004025,0.005994,0.00221,0.081341,0.206286,-0.975105,-0.08143096363223438
1762017224.61719,0.001732,-0.11182,0.918674,-0.378856,-0.018279,0.012109,-0.02262,-0.002497,0.00429,0.004219,0.081544,0.206764,-0.974987,-0.081634624169732
1762017224.646975,0.001743,-0.111961,0.918749,-0.378633,-0.005746,0.000831,-0.02135,-0.001321,0.003022,0.003558,0.081582,0.207048,-0.974923,-0.08167279510241554
1762017224.656715,0.001817,-0.111954,0.918853,-0.37838,0.006448,-0.006466,-0.026225,-0.00162,0.003848,0.001264,0.081384,0.207114,-0.974926,-0.08147409699999525
1762017224.687051,0.001909,-0.111881,0.918961,-0.378139,0.002797,-0.008269,-0.025073,-0.00304,0.007561,-0.001758,0.081104,0.207073,-0.974958,-0.08119317169206869
1762017224.717388,0.001998,-0.111861,0.919046,-0.37794,-0.00231,-0.00752,-0.015737,-0.002668,0.007441,-0.001547,0.080881,0.207122,-0.974966,-0.08096944591737844
1762017224.717671,0.002063,-0.111826,0.919099,-0.37782,0.00634,0.001376,-0.01363,-0.000981,0.001344,-0.001421,0.080707,0.207117,-0.974981,-0.08079491319850236
1762017224.74557,0.002085,-0.111712,0.919167,-0.377687,0.015331,-0.005045,-0.008644,-0.002482,0.004671,-0.000499,0.080552,0.206939,-0.975032,-0.08063937636631961
1762017224.756573,0.002077,-0.111593,0.91921,-0.377619,0.008573,0.000196,-0.005047,-0.001343,0.004149,0.000108,0.080461,0.206723,-0.975085,-0.08054810612846784
1762017224.786724,0.002028,-0.111557,0.919223,-0.377599,0.00054,0.003786,0.00088,-0.000845,0.001405,0.002878,0.080518,0.206623,-0.975102,-0.08060525153127214
1762017224.81708,0.002009,-0.11151,0.919227,-0.377602,0.008105,-0.001502,-0.000332,-0.001754,-0.002125,0.00467,0.080519,0.206524,-0.975123,-0.08060624613663549
1762017224.817415,0.002018,-0.111434,0.919232,-0.377612,0.005373,-0.003468,0.002455,-0.002099,-0.000119,0.003095,0.080447,0.206392,-0.975157,-0.08053400314094648
1762017224.879805,0.002136,-0.11146,0.919225,-0.377622,-0.000213,-0.009917,0.000742,-0.002787,-0.001354,0.003375,0.080252,0.206527,-0.975144,-0.0803384087546803
1762017224.880116,0.002254,-0.111486,0.919217,-0.377632,-0.005799,-0.016365,-0.000972,-0.003475,-0.00259,0.003655,0.080057,0.206662,-0.975132,-0.0801427344146774
1762017224.880853,0.00243,-0.111492,0.919215,-0.377635,-0.006938,-0.014372,-0.005532,-0.002974,-0.001142,-0.001161,0.079739,0.206806,-0.975127,-0.07982375571496471
1762017224.910246,0.0026,-0.111526,0.919237,-0.377568,-0.009776,-0.009863,-0.010425,-0.004491,0.001899,-0.004952,0.079437,0.207,-0.975111,-0.07952075464766337
1762017224.914181,0.002733,-0.111657,0.91926,-0.377473,-0.017265,-0.001173,-0.010299,-0.003218,0.002736,-0.003337,0.079271,0.207346,-0.975051,-0.07935422923219133
1762017224.94472,0.002822,-0.111754,0.919287,-0.377378,-0.006471,0.000134,-0.011168,-0.003529,0.001666,-0.00142,0.079158,0.207598,-0.975006,-0.07924091630458403
1762017224.974342,0.002839,-0.111776,0.919344,-0.377234,-0.002,8.6e-05,-0.011204,-0.00361,0.004956,-0.002519,0.079112,0.207664,-0.974996,-0.07919474670795125
1762017224.977318,0.002867,-0.111816,0.919384,-0.377124,-0.005718,0.002782,-0.011129,-0.003185,0.003188,-0.00214,0.079065,0.207766,-0.974978,-0.07914760537299924
1762017225.007525,0.0029,-0.11188,0.919426,-0.377001,-0.000923,-0.000465,-0.010004,-0.003589,0.002328,0.000393,0.079025,0.207918,-0.974949,-0.07910746743803815
1762017225.03632,0.002925,-0.111879,0.91947,-0.376894,0.003046,-0.004336,-0.013121,-0.003936,0.001637,0.001612,0.078954,0.207944,-0.974949,-0.07903626091624857
1762017225.038368,0.002993,-0.111842,0.919521,-0.376779,-0.000324,-0.003951,-0.010794,-0.003276,0.002227,-0.000955,0.078776,0.207937,-0.974965,-0.07885769641035224
1762017225.075754,0.003057,-0.111857,0.919571,-0.376654,-0.00429,-0.000753,-0.012742,-0.004203,0.001726,-0.000829,0.078641,0.208024,-0.974957,-0.0787223024204271
1762017225.077851,0.003123,-0.111905,0.919612,-0.376538,-0.004574,-0.001169,-0.012099,-0.004344,0.001016,0.001762,0.078529,0.20817,-0.974935,-0.07860994456618947
1762017225.106273,0.00321,-0.111935,0.919655,-0.376423,-0.008839,-0.004076,-0.01041,-0.004344,0.002373,0.000918,0.078365,0.208299,-0.974921,-0.07844541023530158
1762017225.15216,0.003303,-0.11206,0.919696,-0.376286,-0.010817,-0.004734,-0.013251,-0.00412,0.001299,0.002051,0.078257,0.208608,-0.974863,-0.07833712382086203
1762017225.152531,0.003397,-0.112185,0.919736,-0.376149,-0.012795,-0.005391,-0.016091,-0.003895,0.000225,0.003184,0.078149,0.208917,-0.974806,-0.07822875312276971
1762017225.153349,0.003546,-0.112293,0.919785,-0.375996,-0.013512,-0.006571,-0.017872,-0.003724,0.000945,0.000432,0.077921,0.209237,-0.974755,-0.07800010275820907
1762017225.18596,0.003685,-0.11241,0.919854,-0.375791,-0.013796,-0.004755,-0.02254,-0.003484,0.002667,-0.002912,0.077707,0.209571,-0.974701,-0.07778540088807875
1762017225.215619,0.003818,-0.112513,0.919936,-0.375558,-0.011608,-0.002893,-0.02558,-0.003834,0.004865,-0.002462,0.077486,0.209877,-0.974652,-0.077563789494663
1762017225.217249,0.003901,-0.112612,0.920021,-0.375319,-0.008651,-0.003172,-0.023978,-0.0026,0.005024,-0.002112,0.077354,0.210139,-0.974607,-0.07743131877613174
1762017225.249437,0.003968,-0.11269,0.9201,-0.3751,-0.005846,0.000326,-0.019332,-0.002346,0.004565,-0.002514,0.077238,0.210349,-0.97457,-0.07731503850970856
1762017225.278836,0.004007,-0.112752,0.920175,-0.374899,-0.002411,0.000384,-0.017616,-0.002499,0.005043,-0.000132,0.077167,0.210508,-0.974542,-0.07724377259722076
1762017225.279112,0.004064,-0.112796,0.92023,-0.37475,-0.002571,-0.000311,-0.012161,-0.003447,0.004941,0.000896,0.077062,0.210642,-0.974521,-0.07713848570004313
1762017225.307588,0.004102,-0.112821,0.920262,-0.374662,-0.004177,-0.002121,-0.004697,-0.003982,0.005544,-0.000443,0.07699,0.210724,-0.974509,-0.07706626837251508
1762017225.313549,0.004191,-0.112875,0.920274,-0.374617,-0.005476,-0.001241,-0.003937,-0.003382,0.004923,-0.002191,0.076856,0.210892,-0.974483,-0.07693188778506706
1762017225.343363,0.004244,-0.112916,0.920273,-0.374606,-0.001916,-0.001242,-3.1e-05,-0.003138,0.005266,-0.002151,0.076788,0.211007,-0.974464,-0.07686364614567656
1762017225.372501,0.004286,-0.112955,0.920269,-0.374604,-0.002666,-0.002827,-0.001249,-0.002847,0.002052,-0.000907,0.076738,0.211108,-0.974446,-0.07681350292435918
1762017225.374581,0.004347,-0.112964,0.920267,-0.374604,0.003033,-0.004131,-0.001654,-0.00432,0.000108,0.001825,0.076633,0.211171,-0.97444,-0.07670823871075423
1762017225.409481,0.004347,-0.112877,0.92029,-0.374575,0.003949,-0.003196,-0.005024,-0.002755,0.001118,-0.001392,0.07656,0.211016,-0.97448,-0.07663497234135867
1762017225.413146,0.004346,-0.112858,0.92031,-0.374531,-0.001145,0.004237,-0.006033,-0.002746,0.000968,-0.000704,0.076539,0.210984,-0.974488,-0.0766139538157643
1762017225.452373,0.004348,-0.112895,0.920329,-0.374473,-0.005744,0.0029,-0.002465,-0.002531,0.000854,0.002637,0.076549,0.211057,-0.974472,-0.07662393884820319
1762017225.464051,0.004395,-0.112887,0.920341,-0.374445,-0.001393,-0.003637,-0.000396,-0.004056,0.001356,8.6e-05,0.07645,0.21108,-0.974475,-0.07652463222874174
1762017225.494045,0.004457,-0.112884,0.920344,-0.374438,-0.003028,-0.00438,-0.000338,-0.003431,0.002236,-0.000443,0.076332,0.211122,-0.974475,-0.07640629779036628
1762017225.494346,0.004503,-0.112932,0.920348,-0.374414,-0.010703,4.5e-05,-0.003768,-0.003372,0.000855,-0.003136,0.076278,0.211245,-0.974452,-0.07635218256442065
1762017225.522422,0.004552,-0.113052,0.920359,-0.374351,-0.008559,0.004175,-0.004153,-0.003587,0.00113,-0.001246,0.076264,0.211505,-0.974397,-0.07633811899387968
1762017225.553279,0.004568,-0.113145,0.920382,-0.374264,-0.010091,0.001507,-0.008598,-0.005307,0.002306,-0.002669,0.076284,0.211693,-0.974355,-0.07635814817684235
1762017225.555358,0.004607,-0.113281,0.920413,-0.374149,-0.015823,0.003734,-0.009605,-0.005113,0.002937,-0.001357,0.076287,0.211977,-0.974293,-0.07636115832724963
1762017225.584057,0.004654,-0.113423,0.920429,-0.374063,-0.011863,0.001388,-0.009943,-0.004745,0.000228,0.000745,0.076288,0.212277,-0.974227,-0.07636220614401448
1762017225.614868,0.004743,-0.113513,0.920466,-0.373945,-0.007833,-0.002407,-0.015762,-0.005553,0.000973,-1.2e-05,0.076164,0.212517,-0.974184,-0.07623787237634957
1762017225.615941,0.004789,-0.113595,0.920522,-0.373782,-0.008138,0.002636,-0.0166,-0.004025,0.001686,4.3e-05,0.076103,0.212714,-0.974146,-0.07617667777451811
1762017225.645348,0.004829,-0.113693,0.920575,-0.373621,-0.006325,0.004328,-0.017601,-0.004355,0.002089,-6.3e-05,0.076066,0.212934,-0.974101,-0.07613955718699844
1762017225.677067,0.004839,-0.113788,0.920638,-0.373436,-0.010403,0.006235,-0.016471,-0.004027,0.002608,-0.001649,0.076076,0.213128,-0.974058,-0.07614957073714376
1762017225.677453,0.004873,-0.113906,0.920685,-0.373283,-0.009732,0.002794,-0.014686,-0.002783,0.002895,0.000824,0.076066,0.213382,-0.974003,-0.07613955431189202
1762017225.707551,0.004935,-0.114002,0.920732,-0.373137,-0.00843,-0.002867,-0.011703,-0.004274,0.003561,-0.001046,0.075989,0.213613,-0.973959,-0.07606228441201995
1762017225.714374,0.005026,-0.114059,0.920769,-0.373029,-0.008799,-0.006203,-0.011009,-0.002557,0.004149,-0.003338,0.075838,0.213794,-0.97393,-0.07591092561089081
1762017225.752534,0.005132,-0.114169,0.920809,-0.372894,-0.011177,-0.002847,-0.008172,-0.004801,0.003478,0.000618,0.075695,0.214082,-0.973878,-0.07576750294298926
1762017225.753348,0.005236,-0.114226,0.920829,-0.372826,-0.005896,-0.002898,-0.005503,-0.002874,0.002511,-0.000219,0.07553,0.214268,-0.97385,-0.07560202217939686
1762017225.782525,0.005281,-0.114235,0.920859,-0.372747,-0.000506,0.000202,-0.004408,-0.001314,0.002482,-0.001872,0.075436,0.214325,-0.973845,-0.07550773427637167
1762017225.813358,0.005243,-0.114303,0.920888,-0.372656,-0.006623,0.006745,-0.006664,-0.003133,0.001503,-0.000902,0.075534,0.214428,-0.973815,-0.07560599472911742
1762017225.814898,0.00522,-0.114408,0.920897,-0.372601,-0.002745,0.000795,-0.004905,-0.001984,0.000194,0.002329,0.075643,0.214607,-0.973767,-0.0757153153437649
1762017225.852639,0.005265,-0.114435,0.920914,-0.372551,-0.003485,-0.001128,-0.005821,-0.002399,0.001831,0.001214,0.075569,0.214693,-0.973754,-0.07564108731347292
1762017225.853895,0.005352,-0.114455,0.920936,-0.372489,-0.006026,-0.007589,-0.0039,-0.003162,0.004126,-0.000872,0.075409,0.214799,-0.973743,-0.07548063151398786
1762017225.884711,0.005508,-0.114509,0.920944,-0.372452,-0.01073,-0.008756,-0.007416,-0.00288,0.00277,-0.002811,0.075153,0.215016,-0.973715,-0.07522389565250356
1762017225.921262,0.005684,-0.114611,0.920947,-0.372409,-0.011902,-0.00782,-0.004967,-0.003791,0.002228,-0.00282,0.074895,0.215335,-0.973664,-0.07496519462334432
1762017225.92162,0.005782,-0.114695,0.920954,-0.372364,-0.007212,-0.002393,-0.003942,-0.003357,0.001328,-0.003237,0.074767,0.215563,-0.973623,-0.07483686287697831
1762017225.948129,0.005804,-0.114735,0.920963,-0.372329,-0.004831,0.002899,-0.003717,-0.003551,0.002954,-0.002909,0.074747,0.215655,-0.973605,-0.07481674559569958
1762017225.976387,0.005788,-0.114795,0.920968,-0.372298,-0.004902,0.007663,-0.002834,-0.004268,0.00237,-0.000684,0.074814,0.215755,-0.973577,-0.07488398468924737
1762017225.978398,0.005712,-0.11486,0.920973,-0.372268,0.000188,0.004651,-0.001664,-0.003013,4.5e-05,0.001771,0.074997,0.215818,-0.973549,-0.07506749709901654
1762017226.010105,0.005716,-0.114847,0.920993,-0.372222,0.00019,-0.000236,-0.003589,-0.003722,0.00335,0.000834,0.074969,0.215802,-0.973555,-0.07503939633152454
1762017226.013479,0.005749,-0.114896,0.921,-0.372188,-0.004682,-0.000783,-0.003649,-0.002945,0.001416,-0.0002,0.074936,0.215919,-0.973532,-0.07500627388390813
1762017226.077894,0.005813,-0.114928,0.921018,-0.372134,-0.003109,-0.003494,-0.005059,-0.003354,0.00136,0.000218,0.07483,0.216028,-0.973515,-0.07490004650174141
1762017226.077952,0.005877,-0.11496,0.921035,-0.372081,-0.001536,-0.006205,-0.006469,-0.003764,0.001303,0.000635,0.074723,0.216138,-0.973499,-0.07479273166313373
1762017226.079667,0.005915,-0.114982,0.921058,-0.372018,-0.002834,-0.005054,-0.00373,-0.004228,0.002584,0.000597,0.074654,0.216211,-0.973489,-0.07472347158218243
1762017226.10894,0.006008,-0.115015,0.921057,-0.372006,-0.007465,-0.001034,0.000447,-0.004978,0.002479,-0.001177,0.074505,0.216341,-0.973471,-0.07457409434636632
1762017226.110822,0.006065,-0.115088,0.921037,-0.372034,-0.005013,-0.003706,0.004216,-0.005296,0.002513,-0.000433,0.074461,0.216514,-0.973436,-0.0745299647847381
1762017226.140421,0.006116,-0.11517,0.921012,-0.372068,-0.010425,-0.002263,0.003954,-0.00571,0.001464,-0.000288,0.074437,0.216697,-0.973397,-0.07450590630133665
1762017226.170826,0.006164,-0.115253,0.920987,-0.372105,-0.008958,-0.000469,0.001954,-0.004791,0.001514,-0.000684,0.074418,0.216881,-0.973357,-0.0744868877880338
1762017226.172868,0.006211,-0.11534,0.920977,-0.372102,-0.010958,0.000645,-0.00335,-0.005137,0.000519,0.000342,0.074396,0.217074,-0.973316,-0.07446480178952727
1762017226.20161,0.006281,-0.115421,0.920982,-0.372064,-0.00395,-0.003966,-0.007528,-0.004941,0.000832,-1.5e-05,0.074318,0.217275,-0.973277,-0.07438659318309629
1762017226.231428,0.006377,-0.115473,0.921009,-0.371978,-0.006311,-0.005976,-0.008827,-0.003464,0.001598,-0.002172,0.074161,0.217447,-0.973251,-0.07422912705819981
1762017226.232375,0.00648,-0.115539,0.921033,-0.371898,-0.00955,-0.004233,-0.008464,-0.005766,0.002599,-0.000733,0.074,0.217651,-0.973217,-0.07406773076095237
1762017226.263702,0.006554,-0.115578,0.92106,-0.371817,-0.009093,-0.00188,-0.010623,-0.005757,0.003236,-0.002137,0.073874,0.217781,-0.973198,-0.07394134814871861
1762017226.298619,0.006599,-0.115642,0.921084,-0.371737,-0.004484,-0.00058,-0.005783,-0.004257,0.002853,-0.002139,0.07382,0.217937,-0.973167,-0.07388721292280355
1762017226.300481,0.006588,-0.11573,0.921099,-0.371672,-0.00725,0.004443,-0.004549,-0.002749,0.001772,-0.001325,0.073891,0.218094,-0.973126,-0.0739584389859173
1762017226.355254,0.006593,-0.115785,0.9211,-0.371653,-0.005091,0.002149,-0.002017,-0.002592,0.00232,-1.1e-05,0.073919,0.218199,-0.973101,-0.07398646783251774
1762017226.355332,0.006598,-0.11584,0.9211,-0.371634,-0.002933,-0.000145,0.000514,-0.002435,0.002867,0.001302,0.073946,0.218304,-0.973075,-0.07401357067024818
1762017226.357197,0.0066,-0.115873,0.921108,-0.371604,-0.006746,0.000855,-0.00207,-0.003307,0.003869,-0.001543,0.073958,0.218368,-0.97306,-0.07402558397481716
1762017226.387909,0.006671,-0.115982,0.9211,-0.37159,-0.015805,-0.002208,-0.000166,-0.003409,0.002816,0.000352,0.073906,0.21862,-0.973007,-0.07397346756874877
1762017226.391964,0.006823,-0.116185,0.92107,-0.371596,-0.019158,-0.006975,0.00242,-0.003567,0.000261,0.001936,0.073778,0.2191,-0.972909,-0.07384509854955583
1762017226.420028,0.006947,-0.116311,0.921052,-0.371601,-0.010492,-0.007221,0.000752,-0.000785,-0.001104,-0.000814,0.073646,0.21942,-0.972847,-0.07371272999209857
1762017226.450871,0.007035,-0.116417,0.921047,-0.371578,-0.010925,-0.000547,-0.005993,-0.001752,-0.000248,-0.000964,0.073558,0.21968,-0.972795,-0.07362448924103933
1762017226.452469,0.00709,-0.116532,0.921048,-0.371537,-0.011347,0.00067,-0.004825,-0.003347,0.000982,-0.000678,0.073532,0.219931,-0.97274,-0.07359843657344517
1762017226.481549,0.007164,-0.11664,0.921063,-0.371466,-0.007736,-0.004023,-0.004999,-0.003608,0.001183,-0.000632,0.073459,0.220188,-0.972688,-0.07352519374522758
1762017226.521187,0.007254,-0.116702,0.921065,-0.371439,-0.006862,-0.003959,-0.001753,-0.003335,0.001768,-0.00125,0.073333,0.220369,-0.972656,-0.07339889003270762
1762017226.521301,0.007344,-0.116764,0.921067,-0.371412,-0.005987,-0.003895,0.001494,-0.003062,0.002354,-0.001869,0.073207,0.22055,-0.972624,-0.07327258372083036
1762017226.550529,0.007422,-0.116812,0.92105,-0.371438,-0.000926,-0.000602,0.000231,-0.001843,0.000823,-0.001705,0.073104,0.220694,-0.9726,-0.07316924157064586
1762017226.551976,0.007409,-0.116856,0.92106,-0.371402,-0.003503,0.004734,-0.001907,-0.003835,0.003783,-0.003359,0.073153,0.220765,-0.97258,-0.07321838752788208
1762017226.582128,0.007383,-0.116894,0.921057,-0.371397,-0.003085,0.002805,-0.001973,-0.00566,0.002269,-0.003748,0.073228,0.220816,-0.972562,-0.07329364476419223
1762017226.594212,0.007391,-0.116987,0.921055,-0.371373,-0.009803,0.003536,-0.001883,-0.003955,0.001377,-0.001086,0.073277,0.220993,-0.972519,-0.07334271284874988
1762017226.651591,0.007424,-0.11702,0.921063,-0.371342,-0.005211,-0.000127,-0.005419,-0.003914,0.001336,-0.000244,0.073232,0.22108,-0.972502,-0.07329763561572626
1762017226.651775,0.007458,-0.117053,0.921071,-0.37131,-0.000619,-0.00379,-0.008954,-0.003874,0.001296,0.000599,0.073188,0.221167,-0.972486,-0.0732534837059825
1762017226.652045,0.00751,-0.117022,0.921105,-0.371234,0.002099,0.001243,-0.010627,-0.002904,0.00097,-0.000316,0.07305,0.221154,-0.972499,-0.07311513700939958
1762017226.683538,0.007481,-0.117018,0.921156,-0.37111,0.001734,-0.000294,-0.010868,-0.003537,0.00243,0.001767,0.07307,0.221136,-0.972502,-0.07313516143820172
1762017226.712729,0.007497,-0.116993,0.921201,-0.371006,0.002145,-0.003179,-0.008285,-0.004233,0.002839,0.000749,0.072999,0.221111,-0.972513,-0.07306397250441977
1762017226.7146,0.007549,-0.116949,0.921224,-0.370962,-0.001487,-0.001094,-0.002572,-0.005206,0.006968,-0.002148,0.072859,0.221073,-0.972532,-0.0729236085025247
1762017226.743396,0.00759,-0.116975,0.921222,-0.370957,0.001489,-0.003239,0.004921,-0.003304,0.003064,-0.002006,0.072802,0.221151,-0.972519,-0.07286642369672004
1762017226.749146,0.007606,-0.116833,0.92122,-0.371007,0.020261,-0.010914,0.000603,-0.004591,0.004956,-0.004168,0.072678,0.220901,-0.972585,-0.07274210080930432
1762017226.780283,0.00756,-0.116514,0.921275,-0.370971,0.041936,-0.008172,-0.009389,-0.000819,0.012779,-0.012755,0.072517,0.220293,-0.972734,-0.07258073927310478
1762017226.809376,0.007543,-0.115864,0.921405,-0.370853,0.07735,-0.023773,-0.019538,-0.000677,0.029177,-0.02446,0.072036,0.21911,-0.973037,-0.0720984696533157
1762017226.811188,0.00742,-0.11485,0.921608,-0.370666,0.135276,-0.027,-0.026034,0.000978,0.047298,-0.036294,0.071464,0.217194,-0.973509,-0.07152496528739297
1762017226.839698,0.007052,-0.113187,0.921883,-0.3705,0.198164,-0.012749,-0.023942,-0.000308,0.072449,-0.059403,0.070869,0.213916,-0.974278,-0.07092845348185199
1762017226.870125,0.006281,-0.111082,0.9222,-0.370362,0.255345,-0.003186,-0.007861,-0.00528,0.102768,-0.066795,0.070696,0.209532,-0.975243,-0.07075500426559148
1762017226.871883,0.005281,-0.108538,0.922466,-0.37047,0.298015,0.00525,0.025124,-0.006772,0.129852,-0.081332,0.070676,0.204158,-0.976383,-0.07073499464049031
1762017226.900674,0.003909,-0.105651,0.922684,-0.37078,0.346441,0.022658,0.04476,-0.008446,0.149663,-0.095863,0.071134,0.197863,-0.977645,-0.07119414296378998
1762017226.950351,0.001838,-0.101887,0.922872,-0.37138,0.443547,0.04026,0.067495,-0.011178,0.159964,-0.092305,0.072285,0.189423,-0.979231,-0.0723481145930596
1762017226.950371,-0.000232,-0.098121,0.923043,-0.371973,0.540654,0.057863,0.09023,-0.0139,0.17028,-0.08882,0.073426,0.180967,-0.980744,-0.07349216695532601
1762017226.95201,-0.003248,-0.092716,0.923298,-0.372712,0.69815,0.090052,0.087584,-0.014606,0.167651,-0.077077,0.075111,0.168788,-0.982786,-0.07518182866537662
1762017226.981603,-0.007207,-0.085884,0.923671,-0.373368,0.863788,0.112985,0.085369,-0.024278,0.16403,-0.053344,0.077447,0.153275,-0.985144,-0.07752463278329853
1762017227.022407,-0.012127,-0.077061,0.924184,-0.373896,0.991576,0.115406,0.08153,-0.029524,0.149478,-0.023328,0.08004,0.133369,-0.987829,-0.08012571574194721
1762017227.022428,-0.017045,-0.06823,0.924602,-0.374386,1.119365,0.117828,0.077692,-0.034746,0.134979,0.006282,0.082608,0.113409,-0.990108,-0.08270226293946788
1762017227.029338,-0.022577,-0.057961,0.924975,-0.374902,1.203887,0.120412,0.103286,-0.039129,0.126884,0.035506,0.085226,0.090297,-0.992262,-0.08532947313852922
1762017227.057489,-0.028321,-0.046938,0.925132,-0.375667,1.247478,0.106261,0.137289,-0.035637,0.108927,0.053816,0.087667,0.06557,-0.993989,-0.08777972568307302
1762017227.087163,-0.033961,-0.035828,0.925072,-0.37657,1.226298,0.104109,0.143017,-0.031739,0.09746,0.04325,0.089816,0.040709,-0.995126,-0.08993720164899631
1762017227.089125,-0.039702,-0.025185,0.924825,-0.377475,1.188529,0.14234,0.1616,-0.031456,0.085154,0.048552,0.092448,0.01661,-0.995579,-0.09258019232095643
1762017227.117812,-0.045574,-0.014772,0.924348,-0.37853,1.166039,0.154797,0.170104,-0.028891,0.058613,0.051325,0.095437,-0.007193,-0.995409,-0.09558252006675229
1762017227.148535,-0.051489,-0.00464,0.923758,-0.379471,1.134424,0.169791,0.1592,-0.026004,0.039418,0.047695,0.098648,-0.030504,-0.994655,-0.09880867805405698
1762017227.150809,-0.057362,0.005005,0.923102,-0.380221,1.072963,0.177344,0.13353,-0.020828,0.033483,0.038084,0.102096,-0.052861,-0.993369,-0.10227421278994336
1762017227.187986,-0.063036,0.013849,0.922412,-0.380776,0.977503,0.20546,0.118736,-0.017987,0.03823,0.027742,0.105743,-0.073554,-0.991669,-0.10594110422699285
1762017227.188461,-0.068456,0.021808,0.921661,-0.381287,0.889877,0.194104,0.108532,-0.011409,0.029779,0.023163,0.109556,-0.092401,-0.989676,-0.10977640271333661
1762017227.25102,-0.07311,0.028177,0.921126,-0.381297,0.753051,0.19895,0.052379,-0.000409,0.033943,0.010054,0.113199,-0.107662,-0.987722,-0.11344216780595043
1762017227.251045,-0.077759,0.034544,0.920534,-0.381284,0.616225,0.203796,-0.003774,0.010616,0.038079,-0.003303,0.116818,-0.122895,-0.98552,-0.11708537807289056
1762017227.252853,-0.081755,0.038551,0.920304,-0.380618,0.426826,0.226189,-0.072941,0.012901,0.04194,-0.000319,0.121132,-0.133192,-0.98366,-0.12143019670326578
1762017227.282337,-0.085191,0.04075,0.920314,-0.379611,0.271419,0.220888,-0.101868,0.005139,0.043459,0.026017,0.125866,-0.139684,-0.982164,-0.1262007256957975
1762017227.315901,-0.087826,0.041857,0.920477,-0.378493,0.161874,0.159636,-0.122532,-0.004616,0.026871,0.043561,0.129998,-0.143541,-0.981069,-0.1303669703579847
1762017227.317253,-0.089555,0.042288,0.920795,-0.377263,0.073767,0.119888,-0.131898,-0.00792,0.017131,0.043404,0.133017,-0.145449,-0.980383,-0.1334124290828324
1762017227.355858,-0.090781,0.042193,0.921143,-0.376131,0.046115,0.086429,-0.097488,-0.015132,0.000339,0.070106,0.135505,-0.146023,-0.979957,-0.13592314290187207
1762017227.357188,-0.091593,0.042416,0.921337,-0.375432,0.081662,0.05138,-0.05509,-0.008688,-0.037285,0.069296,0.136928,-0.146933,-0.979623,-0.1373595478656157
1762017227.387082,-0.092487,0.043323,0.921426,-0.374891,0.166342,0.056241,-0.049598,-0.001541,-0.075404,0.051574,0.137957,-0.149183,-0.979139,-0.13839833205571617
1762017227.389109,-0.093868,0.044953,0.921433,-0.374338,0.256854,0.070641,-0.03814,-0.00044,-0.091507,0.042135,0.13933,-0.153118,-0.978336,-0.13978483216648074
1762017227.417661,-0.095683,0.047118,0.92142,-0.373644,0.28023,0.085943,-0.060691,-0.006389,-0.082017,0.038882,0.141117,-0.158334,-0.977249,-0.14158966706269244
1762017227.449791,-0.097514,0.049262,0.921406,-0.372928,0.245945,0.077652,-0.046758,-0.012677,-0.055937,0.036524,0.142958,-0.163513,-0.976128,-0.14344951795924746
1762017227.45097,-0.099011,0.050897,0.921378,-0.372382,0.160113,0.070538,-0.033285,-0.01083,-0.039414,0.024601,0.144546,-0.16753,-0.975213,-0.14505412093339576
1762017227.480163,-0.100171,0.051645,0.921327,-0.372096,0.055318,0.089951,-0.011619,-0.008139,-0.037464,0.01704,0.146147,-0.16971,-0.974597,-0.1466723416689058
1762017227.550838,-0.100721,0.051078,0.921096,-0.372598,0.001381,0.077962,0.030967,-0.008272,-0.035229,0.020255,0.147484,-0.169153,-0.974493,-0.14802390409926752
1762017227.551126,-0.10127,0.050512,0.920864,-0.373099,-0.052557,0.065973,0.073554,-0.008405,-0.032993,0.023467,0.148821,-0.168597,-0.974386,-0.14937583465487772
1762017227.551281,-0.10182,0.049945,0.920631,-0.373599,-0.106494,0.053984,0.11614,-0.008538,-0.030756,0.026677,0.150158,-0.168042,-0.974276,-0.15072813875886099
1762017227.551468,-0.101721,0.048764,0.92014,-0.37499,-0.154978,0.046476,0.175791,-0.010405,-0.002618,0.02173,0.150624,-0.166027,-0.97455,-0.15119942421861232
1762017227.58371,-0.10146,0.047273,0.919287,-0.377335,-0.16518,0.058804,0.288381,-0.006398,-0.015014,0.024887,0.150866,-0.163484,-0.974942,-0.1514442814676723
1762017227.591692,-0.101365,0.046325,0.918037,-0.380509,-0.064742,0.066514,0.357291,0.000553,-0.06082,0.020823,0.150859,-0.162196,-0.975159,-0.15143707955779903
1762017227.623045,-0.102036,0.046543,0.916538,-0.383901,0.096819,0.090385,0.368803,-7.8e-05,-0.0959,0.024993,0.151304,-0.16366,-0.974845,-0.1518873067694841
1762017227.651084,-0.10322,0.048295,0.915003,-0.387018,0.253343,0.058701,0.332583,-0.007219,-0.102248,0.026329,0.151512,-0.168276,-0.974026,-0.15209780340976142
1762017227.652887,-0.104661,0.051027,0.913599,-0.389589,0.306346,0.041547,0.285321,-0.006186,-0.079953,0.021309,0.151477,-0.174786,-0.972885,-0.15206229483267888
1762017227.68145,-0.106176,0.053936,0.912351,-0.391706,0.302924,0.057078,0.233395,-0.000472,-0.084254,0.008569,0.151486,-0.181597,-0.971635,-0.1520714457796172
1762017227.712032,-0.107902,0.056767,0.911313,-0.393248,0.314633,0.073608,0.159029,-0.000339,-0.107301,0.005366,0.152018,-0.188331,-0.970269,-0.15260968554330012
1762017227.723815,-0.109865,0.059612,0.910602,-0.393928,0.320805,0.079164,0.060424,-0.005718,-0.112315,0.00957,0.153121,-0.195124,-0.968752,-0.1537257607368401
1762017227.754549,-0.111741,0.062327,0.910205,-0.393898,0.302337,0.053732,-0.003302,-0.004012,-0.10069,0.009999,0.154314,-0.201491,-0.967258,-0.15493314022786114
1762017227.754794,-0.113413,0.064514,0.910047,-0.393433,0.232765,0.057898,-0.038367,-0.002909,-0.087202,0.011588,0.155658,-0.206663,-0.965951,-0.15629351074080888
1762017227.784039,-0.114767,0.066305,0.910034,-0.392772,0.192544,0.033482,-0.0602,-0.000584,-0.087907,0.014783,0.156798,-0.210834,-0.964864,-0.15744777919658998
1762017227.859827,-0.115787,0.067835,0.910118,-0.392017,0.160074,0.022387,-0.063275,0.004273,-0.082241,0.009657,0.157575,-0.214256,-0.963984,-0.15823443725652234
1762017227.889025,-0.116401,0.068572,0.910277,-0.391336,0.124583,0.020713,-0.057766,0.004786,-0.075469,0.007649,0.158245,-0.215944,-0.963497,-0.1589130226150797
1762017227.889354,-0.117015,0.06931,0.910436,-0.390654,0.089093,0.019039,-0.052258,0.005298,-0.0687,0.005637,0.158918,-0.21763,-0.963007,-0.1595946102885436
1762017227.889741,-0.117629,0.070048,0.910593,-0.389971,0.053602,0.017364,-0.046749,0.005807,-0.061932,0.003622,0.159592,-0.219314,-0.962513,-0.16027738135388914
1762017227.890209,-0.118108,0.070429,0.910717,-0.389467,0.030461,0.026422,-0.041818,0.010724,-0.060848,-0.001485,0.160267,-0.220281,-0.96218,-0.1609611774163695
1762017227.921095,-0.118615,0.070543,0.910825,-0.389041,0.019355,0.038878,-0.044644,0.011831,-0.059134,-5.2e-05,0.161187,-0.220797,-0.961908,-0.16189329768834887
1762017227.950074,-0.11912,0.070578,0.910934,-0.388624,0.015859,0.028932,-0.039984,0.007937,-0.046148,0.010326,0.162163,-0.22117,-0.961658,-0.162882346158456
1762017227.951925,-0.119348,0.070633,0.911046,-0.388282,-0.008497,-0.006027,-0.031864,0.005553,-0.023727,0.018494,0.162612,-0.221382,-0.961534,-0.16333728973730122
1762017227.981136,-0.118997,0.070363,0.911192,-0.388096,-0.083747,-0.045781,-0.017288,0.004058,-0.005154,0.023531,0.162242,-0.220593,-0.961778,-0.16296227953694764
1762017227.987259,-0.117881,0.06948,0.911432,-0.38803,-0.173571,-0.105472,-0.021853,0.000342,-0.006454,0.038513,0.160961,-0.218135,-0.962553,-0.1616643047132824
1762017228.016177,-0.115714,0.068318,0.911876,-0.387846,-0.213774,-0.213206,-0.052277,0.004055,-0.020416,0.046361,0.158039,-0.214354,-0.963886,-0.15870436342433095
1762017228.046368,-0.112601,0.067307,0.91262,-0.387188,-0.208521,-0.298279,-0.108816,0.017093,-0.025086,0.035467,0.153403,-0.210047,-0.965581,-0.15401120703017537
1762017228.047522,-0.10901,0.066597,0.913638,-0.385937,-0.187765,-0.340199,-0.162349,0.021893,-0.011251,0.021218,0.147787,-0.205833,-0.967363,-0.14833037162732768
1762017228.079842,-0.105282,0.066081,0.91481,-0.384281,-0.181209,-0.339496,-0.188107,0.017673,0.007787,-0.001326,0.141839,-0.20182,-0.969098,-0.14231891198489946
1762017228.109199,-0.101751,0.065493,0.915978,-0.382548,-0.179343,-0.30448,-0.181208,0.00809,0.022238,-0.017722,0.136296,-0.197829,-0.970715,-0.13672151707105315
1762017228.110888,-0.098649,0.06478,0.917009,-0.381007,-0.173186,-0.251848,-0.151573,-0.000919,0.030754,-0.02577,0.131561,-0.193979,-0.972144,-0.13194349587765014
1762017228.154977,-0.096097,0.063978,0.917811,-0.379861,-0.159925,-0.188828,-0.105305,-0.00455,0.034656,-0.034563,0.127793,-0.190447,-0.973344,-0.12814343602443357
1762017228.156711,-0.094248,0.063024,0.91836,-0.379157,-0.147794,-0.104759,-0.061529,-0.008097,0.034555,-0.038692,0.125314,-0.187227,-0.974291,-0.12564428810690645
1762017228.188664,-0.09313,0.061923,0.918665,-0.378876,-0.133745,-0.032803,-0.021057,-0.012676,0.032837,-0.033547,0.124189,-0.184342,-0.974985,-0.12451042251428529
1762017228.190692,-0.092591,0.060755,0.918772,-0.378937,-0.121775,0.022294,0.007834,-0.014997,0.028662,-0.027653,0.124096,-0.181812,-0.975471,-0.12441679373009877
1762017228.220517,-0.092518,0.059495,0.918739,-0.379235,-0.11254,0.061495,0.026146,-0.018883,0.0223,-0.017082,0.124874,-0.179493,-0.975802,-0.1252007860207161
1762017228.251135,-0.092692,0.058287,0.918606,-0.379703,-0.094163,0.070713,0.041289,-0.020743,0.016563,-0.007839,0.126032,-0.177476,-0.976022,-0.1263680107374954
1762017228.25191,-0.09301,0.057256,0.918417,-0.380239,-0.072575,0.079229,0.045352,-0.01622,0.008215,-0.005115,0.127303,-0.175902,-0.976142,-0.12764932906709583
1762017228.281627,-0.093506,0.056414,0.918213,-0.380735,-0.045393,0.086818,0.038172,-0.012479,0.002144,-0.004176,0.128758,-0.174803,-0.976148,-0.12911647646471253
1762017228.288144,-0.094165,0.055765,0.918028,-0.381113,-0.022948,0.091929,0.02737,-0.009143,0.001696,-0.001444,0.130387,-0.174162,-0.976047,-0.13075924151481533
1762017228.317971,-0.094871,0.055319,0.917874,-0.381374,-0.005268,0.075564,0.021232,-0.007303,0.005167,0.002623,0.131966,-0.173915,-0.975878,-0.13235211013438294
1762017228.347541,-0.09544,0.055041,0.917734,-0.381609,-0.003269,0.063806,0.017451,0.00057,0.007538,-0.00017,0.133169,-0.173868,-0.975723,-0.13356581525807137
1762017228.347843,-0.095933,0.054782,0.917624,-0.381788,-0.004179,0.054228,0.01263,0.004363,0.00604,-0.0003,0.13423,-0.173791,-0.975592,-0.13463633837296377
1762017228.377101,-0.096327,0.054569,0.917544,-0.381912,-0.005301,0.036984,0.008651,0.006574,0.008592,0.000623,0.135087,-0.173716,-0.975487,-0.13550122360563222
1762017228.451326,-0.096498,0.054354,0.917489,-0.382031,-0.001729,0.027166,0.011445,0.00461,0.005562,0.00207,0.135542,-0.173469,-0.975468,-0.1359604256459538
1762017228.451595,-0.096669,0.054139,0.917434,-0.382149,0.001843,0.017348,0.014239,0.002645,0.002532,0.003516,0.135996,-0.173222,-0.975448,-0.13641876274102357
1762017228.452233,-0.09684,0.053924,0.91738,-0.382268,0.005415,0.00753,0.017033,0.00068,-0.000497,0.004962,0.136451,-0.172976,-0.975428,-0.13687805927757568
1762017228.452732,-0.096923,0.053919,0.917295,-0.382452,0.015052,-0.001342,0.021258,-0.001683,-0.003754,0.004064,0.136572,-0.173056,-0.975397,-0.13700018603088532
1762017228.483204,-0.096946,0.054085,0.917199,-0.382651,0.022396,-0.012595,0.025513,-0.004069,-0.00375,0.004462,0.136447,-0.173406,-0.975353,-0.13687391517347783
1762017228.484551,-0.096857,0.054394,0.917094,-0.382881,0.026965,-0.022904,0.030886,-0.004911,-0.00308,0.000999,0.136002,-0.173939,-0.97532,-0.13642476079731988
1762017228.523221,-0.09673,0.054756,0.916973,-0.383152,0.028121,-0.025944,0.03026,-0.004072,-0.002791,-0.001562,0.135437,-0.174543,-0.97529,-0.13585457987997202
1762017228.524608,-0.096572,0.055105,0.916864,-0.383403,0.02154,-0.024242,0.026504,-0.003924,-0.001804,-0.002861,0.134832,-0.175099,-0.975275,-0.1352438678031147
1762017228.554649,-0.096404,0.055406,0.916771,-0.383624,0.016929,-0.022934,0.021521,-0.004577,0.000437,-0.002205,0.13425,-0.175556,-0.975273,-0.13465654535151036
1762017228.583766,-0.096218,0.055676,0.916702,-0.383797,0.015791,-0.028804,0.019642,-0.005901,0.002221,-0.000979,0.133671,-0.175933,-0.975285,-0.1340722258791232
1762017228.585803,-0.095944,0.05595,0.916651,-0.383947,0.007493,-0.03591,0.017039,-0.007997,0.005093,-0.000725,0.132931,-0.176249,-0.975329,-0.13332557411784293
1762017228.634732,-0.09557,0.056134,0.916623,-0.384081,-0.006621,-0.03972,0.016485,-0.011988,0.005145,-0.001741,0.132084,-0.176321,-0.975431,-0.13247104624907663
1762017228.635948,-0.095104,0.056216,0.91661,-0.384214,-0.015192,-0.049364,0.018544,-0.017552,0.00331,-0.000469,0.131149,-0.176137,-0.97559,-0.13152789188999367
1762017228.665677,-0.094497,0.056266,0.916606,-0.384366,-0.021611,-0.059287,0.01645,-0.020243,0.001314,-0.001679,0.12998,-0.17579,-0.975809,-0.13034880010292726
1762017228.667742,-0.093812,0.056251,0.916623,-0.384497,-0.03645,-0.057688,0.012594,-0.02054,0.001988,-0.00478,0.128724,-0.175263,-0.97607,-0.12908219095186838
1762017228.69626,-0.093133,0.05603,0.916666,-0.384591,-0.060103,-0.043619,0.004581,-0.019626,0.00273,-0.008328,0.127647,-0.174358,-0.976374,-0.1279961658385834
1762017228.752206,-0.092584,0.055434,0.916719,-0.384684,-0.070151,-0.026224,0.00591,-0.017358,0.0028,-0.008613,0.127097,-0.172866,-0.976711,-0.12744164806350045
1762017228.752486,-0.092034,0.054838,0.916771,-0.384777,-0.080199,-0.00883,0.007239,-0.015091,0.002869,-0.0089,0.126547,-0.171374,-0.977045,-0.12688720656780753
1762017228.754022,-0.091629,0.054156,0.916789,-0.384927,-0.074393,0.000453,0.013899,-0.012922,0.004084,-0.006681,0.126317,-0.169841,-0.977342,-0.12665539615917382
1762017228.782742,-0.09133,0.053553,0.916757,-0.38516,-0.060555,0.003401,0.021029,-0.011137,0.004783,-0.006657,0.126202,-0.168544,-0.977582,-0.12653938843879764
1762017228.783856,-0.091122,0.053089,0.916684,-0.385446,-0.045334,0.004965,0.025687,-0.008284,0.004824,-0.005946,0.126135,-0.167577,-0.977757,-0.126471832923738
1762017228.814797,-0.090974,0.052719,0.916605,-0.385719,-0.0346,0.005264,0.018676,-0.007088,0.001369,-0.005088,0.126105,-0.166825,-0.977889,-0.126441648168366
1762017228.844027,-0.090889,0.052452,0.916549,-0.385909,-0.02399,0.00432,0.006566,-0.006093,9e-06,-0.003506,0.126125,-0.1663,-0.977976,-0.12646178916595477
1762017228.859313,-0.090825,0.052256,0.916552,-0.385943,-0.015363,0.000304,-0.008084,-0.004525,-0.000208,-0.001871,0.126156,-0.165898,-0.97804,-0.12649307297205328
1762017228.88875,-0.09076,0.052118,0.916621,-0.385815,-0.010534,-0.000251,-0.023845,-0.002611,0.000866,-0.002499,0.12617,-0.165578,-0.978093,-0.12650711354487051
1762017228.889054,-0.090752,0.051991,0.916751,-0.385523,-0.009482,0.004614,-0.04062,-0.001171,0.001569,-0.002337,0.126306,-0.165299,-0.978122,-0.1266442896944497
1762017228.918565,-0.090807,0.051823,0.916931,-0.385106,-0.01069,0.009788,-0.052538,-0.00192,0.003543,-0.00067,0.126613,-0.164976,-0.978137,-0.12695375450967936
1762017228.92529,-0.090909,0.051628,0.917134,-0.384623,-0.010955,0.010492,-0.056377,-0.001708,0.004659,0.000551,0.127037,-0.164631,-0.97814,-0.12738122523772388
1762017228.95503,-0.091015,0.051429,0.917347,-0.384117,-0.009527,0.011869,-0.051884,-0.00061,0.007603,6e-06,0.127475,-0.164278,-0.978143,-0.12782273579599493
1762017228.985627,-0.091103,0.051201,0.917539,-0.383667,-0.016321,0.014185,-0.042694,0.000657,0.010676,-0.001353,0.127892,-0.163864,-0.978158,-0.1282431781171429
1762017228.98593,-0.091194,0.050906,0.917688,-0.383328,-0.026538,0.017608,-0.032089,0.000553,0.011123,-0.003173,0.128349,-0.163346,-0.978184,-0.12870407439685005
1762017229.013974,-0.091254,0.050517,0.917803,-0.38309,-0.033881,0.020058,-0.023127,0.00144,0.010619,-0.004206,0.128802,-0.162646,-0.978241,-0.12916087831422318
1762017229.065143,-0.09133,0.050075,0.917884,-0.382936,-0.037289,0.018809,-0.016643,0.002075,0.008325,-0.003394,0.12931,-0.161873,-0.978303,-0.12967306002903325
1762017229.065193,-0.091382,0.049594,0.91796,-0.382803,-0.04055,0.021204,-0.017926,0.001864,0.007448,-0.003109,0.129801,-0.161013,-0.97838,-0.1301682195996882
1762017229.083026,-0.091425,0.049092,0.918045,-0.382654,-0.042698,0.021722,-0.022411,0.001322,0.004806,-0.001405,0.130294,-0.160106,-0.978463,-0.13066548199534617
1762017229.084897,-0.091449,0.048599,0.918146,-0.382469,-0.03828,0.016172,-0.027162,0.000929,0.004456,-0.001464,0.130751,-0.159195,-0.978551,-0.13112638349053657
1762017229.115426,-0.091431,0.048174,0.918275,-0.382218,-0.032809,0.012505,-0.031794,-0.000242,0.005427,-0.000164,0.131092,-0.158367,-0.978639,-0.13147043778358963
1762017229.147528,-0.091427,0.047833,0.918417,-0.381921,-0.025791,0.00773,-0.033032,-0.000594,0.006207,4.9e-05,0.131398,-0.157697,-0.978706,-0.131779127672679
1762017229.148435,-0.091393,0.047559,0.918563,-0.381611,-0.021575,0.002018,-0.033251,-0.001634,0.007654,0.000725,0.131602,-0.157125,-0.978771,-0.13198486102029322
1762017229.204631,-0.091335,0.047375,0.918681,-0.381364,-0.015583,-0.000201,-0.02758,-0.002559,0.007507,-0.000887,0.131681,-0.15671,-0.978827,-0.13206454238531148
1762017229.204952,-0.091277,0.047192,0.918799,-0.381116,-0.009592,-0.002421,-0.02191,-0.003483,0.00736,-0.002499,0.13176,-0.156294,-0.978883,-0.1321442212152937
1762017229.205345,-0.091241,0.047081,0.918887,-0.380927,-0.003724,-0.00207,-0.015078,-0.006719,0.007833,-0.002524,0.131812,-0.156037,-0.978917,-0.13219667860332449
1762017229.23368,-0.091194,0.047042,0.918944,-0.380806,-0.003114,-0.005274,-0.00674,-0.007506,0.009838,-0.002909,0.131777,-0.155912,-0.978941,-0.1321614524206929
1762017229.263557,-0.091104,0.047015,0.91896,-0.380791,-0.002821,-0.005105,1.4e-05,-0.008026,0.007967,-0.004132,0.131637,-0.155793,-0.978979,-0.13202019350548158
1762017229.265399,-0.091029,0.046993,0.918956,-0.380823,-0.001847,-0.002885,0.002276,-0.008657,0.004437,-0.004217,0.131511,-0.1557,-0.979011,-0.13189305330803458
1762017229.301996,-0.091009,0.047006,0.918941,-0.380862,0.003075,-0.000153,0.000775,-0.009308,0.001369,-0.005015,0.131458,-0.155715,-0.979016,-0.13183955440524242
1762017229.303322,-0.09103,0.047082,0.918927,-0.38088,0.010528,-0.003127,0.001903,-0.009767,0.000464,-0.003471,0.131435,-0.155873,-0.978994,-0.13181634593263344
1762017229.353427,-0.091045,0.047195,0.918929,-0.380858,0.009798,-0.000931,-0.001373,-0.010438,0.000647,-0.003386,0.131379,-0.156088,-0.978967,-0.1317598899593616
1762017229.353737,-0.09106,0.047308,0.91893,-0.380837,0.009068,0.001264,-0.004649,-0.011108,0.00083,-0.003302,0.131322,-0.156304,-0.97894,-0.13170241569898727
1762017229.387918,-0.091102,0.047381,0.918947,-0.380778,0.007188,0.004384,-0.006445,-0.012247,0.0016,-0.003819,0.131353,-0.156461,-0.978911,-0.13173365548265262
1762017229.387966,-0.091207,0.047444,0.918962,-0.38071,0.006486,0.006533,-0.006472,-0.011277,0.001041,-0.004168,0.131506,-0.156645,-0.978861,-0.13188799821802338
1762017229.41507,-0.091322,0.047468,0.918973,-0.380651,0.004698,0.01369,-0.006236,-0.009792,0.001669,-0.005381,0.131708,-0.156768,-0.978814,-0.13209178997970766
1762017229.444045,-0.091496,0.047425,0.918984,-0.380589,-0.001227,0.018552,-0.007007,-0.009942,0.002618,-0.003319,0.132067,-0.156811,-0.978759,-0.1324539194354075
1762017229.445721,-0.091646,0.047291,0.918998,-0.380535,-0.008155,0.017216,-0.009412,-0.009429,0.003251,-0.001943,0.132454,-0.156669,-0.978729,-0.13284440733079547
1762017229.477323,-0.091753,0.047129,0.919021,-0.380474,-0.013805,0.013398,-0.008339,-0.007476,0.003361,-0.001461,0.132784,-0.156444,-0.97872,-0.13317738432084164
1762017229.507802,-0.091825,0.046934,0.91905,-0.380412,-0.013177,0.010695,-0.007343,-0.006129,0.004889,-0.001248,0.133074,-0.156132,-0.978731,-0.1334699067562752
1762017229.508047,-0.091877,0.04677,0.919068,-0.380374,-0.010814,0.010462,-0.003472,-0.004389,0.005172,-0.00175,0.133302,-0.155865,-0.978742,-0.13370002604327633
1762017229.53654,-0.091935,0.046643,0.91907,-0.380371,-0.009053,0.011767,-0.003329,-0.004333,0.005116,-0.001672,0.133506,-0.155676,-0.978745,-0.1339057703265901
1762017229.54307,-0.091997,0.046503,0.919069,-0.380377,-0.007076,0.00945,-0.002143,-0.004946,0.005303,-0.000952,0.133726,-0.155467,-0.978748,-0.1341277854544967
1762017229.581768,-0.092044,0.046405,0.919074,-0.380364,-0.004896,0.004698,-0.002828,-0.003966,0.003729,-0.000764,0.133889,-0.15532,-0.978749,-0.13429227176016115
1762017229.583598,-0.092084,0.046326,0.919083,-0.380343,-0.003456,0.004133,-0.003123,-0.002871,0.004069,-0.00262,0.134026,-0.155201,-0.978749,-0.13443053449510486
1762017229.615035,-0.092123,0.046251,0.919105,-0.38029,-0.005095,0.007134,-0.004556,-0.002214,0.004569,-0.00381,0.134164,-0.155086,-0.978748,-0.1345698348755453
1762017229.652603,-0.092161,0.046154,0.919126,-0.380241,-0.004767,0.006109,-0.004229,-0.002878,0.003664,-0.003451,0.134316,-0.15493,-0.978752,-0.1347232045352471
1762017229.65284,-0.092199,0.046057,0.919148,-0.380192,-0.004439,0.005084,-0.003902,-0.003542,0.002758,-0.003092,0.134469,-0.154774,-0.978756,-0.13487756181895214
1762017229.684122,-0.092252,0.045999,0.919162,-0.380152,-0.000417,0.005018,-0.004787,-0.001668,0.002065,-0.00219,0.134616,-0.154701,-0.978747,-0.13502595502059803
1762017229.684367,-0.092331,0.045934,0.919182,-0.380091,0.00224,0.009691,-0.008465,-0.001269,0.001904,-0.002675,0.13482,-0.154632,-0.97873,-0.13523180845134308
1762017229.715098,-0.092456,0.045878,0.919207,-0.380008,0.001451,0.00982,-0.009435,-0.000629,0.002095,-0.001618,0.135104,-0.154611,-0.978694,-0.13551845149373656
1762017229.747576,-0.092547,0.045835,0.919233,-0.379926,0.002345,0.006951,-0.00871,-0.001463,0.002963,-0.00017,0.135317,-0.154589,-0.978668,-0.13573343209651612
1762017229.74947,-0.092609,0.04579,0.919266,-0.379837,0.001802,0.006876,-0.007794,-0.001763,0.002896,-0.000732,0.135479,-0.154539,-0.978654,-0.13589686875773685
1762017229.779644,-0.092655,0.045787,0.919302,-0.37974,0.00353,0.003675,-0.010982,-0.003198,0.002464,-0.001152,0.135583,-0.154553,-0.978637,-0.1360018890062884
1762017229.781061,-0.092696,0.045814,0.919342,-0.379629,0.006508,0.00241,-0.011184,-0.003619,0.00264,-0.001723,0.135654,-0.154618,-0.978617,-0.13607353679289916
1762017229.811353,-0.092734,0.045869,0.919388,-0.379501,0.010016,0.001966,-0.010119,-0.004228,0.004545,-0.002932,0.135703,-0.154728,-0.978593,-0.13612297005642338
1762017229.841452,-0.092839,0.045937,0.919419,-0.379393,0.011956,0.006691,-0.009844,-0.005269,0.004766,-0.003533,0.13586,-0.154915,-0.978541,-0.13628152212598094
1762017229.843226,-0.092991,0.046002,0.919446,-0.379283,0.012038,0.013153,-0.010877,-0.007144,0.004493,-0.003176,0.136104,-0.155132,-0.978473,-0.13652777129559385
1762017229.873092,-0.093178,0.046074,0.919465,-0.379181,0.014645,0.014158,-0.008389,-0.00668,0.004384,-0.003241,0.136407,-0.15539,-0.97839,-0.13683360550939383
1762017229.905119,-0.09338,0.046163,0.919485,-0.379072,0.015425,0.016382,-0.009115,-0.005675,0.003219,-0.003088,0.136726,-0.155688,-0.978298,-0.13715563527392752
1762017229.905747,-0.093607,0.046223,0.919501,-0.378972,0.01317,0.019026,-0.012349,-0.005376,0.002772,-0.002228,0.13711,-0.155953,-0.978202,-0.13754329203512008
1762017229.952419,-0.093793,0.046298,0.91953,-0.378845,0.012834,0.014258,-0.011856,-0.006008,0.003159,-0.001361,0.137412,-0.15621,-0.978119,-0.13784812536049126
1762017229.952736,-0.093979,0.046372,0.91956,-0.378718,0.012497,0.009491,-0.011363,-0.00664,0.003546,-0.000494,0.137714,-0.156467,-0.978035,-0.13815308450943553
1762017229.981412,-0.094112,0.046419,0.919591,-0.378604,0.00787,0.005593,-0.010111,-0.007306,0.004694,0.000575,0.13794,-0.156635,-0.977976,-0.13838129743510433
1762017229.993982,-0.094169,0.046463,0.919623,-0.378506,0.003873,0.002958,-0.006574,-0.007749,0.005229,-0.001476,0.138028,-0.156744,-0.977947,-0.13847002740509476
1762017230.022437,-0.094195,0.046465,0.919644,-0.378448,0.000899,0.002308,-0.003691,-0.007652,0.0045,-0.002233,0.138083,-0.156758,-0.977937,-0.1385255579927754
1762017230.022632,-0.094205,0.046452,0.919649,-0.378435,0.000257,0.00184,0.000895,-0.007802,0.003833,-0.002144,0.138114,-0.15674,-0.977935,-0.13855692708993242
1762017230.05338,-0.094225,0.046471,0.919637,-0.378456,0.002667,0.002473,0.003151,-0.006661,0.003159,-0.002728,0.138131,-0.156792,-0.977924,-0.13857412749777234
1762017230.062746,-0.094284,0.046473,0.91962,-0.378483,0.003158,0.007207,0.001297,-0.006992,0.002288,-0.003061,0.138233,-0.156845,-0.977901,-0.13867712752506026
1762017230.09335,-0.094382,0.046456,0.919615,-0.378474,0.00462,0.010455,-0.004305,-0.007386,0.001155,-0.003198,0.138425,-0.156886,-0.977868,-0.13887089065778296
1762017230.122648,-0.094497,0.046443,0.91963,-0.37841,0.006097,0.012357,-0.010635,-0.006937,0.00092,-0.002757,0.138655,-0.156939,-0.977827,-0.13910311768479852
1762017230.123489,-0.094636,0.046481,0.919659,-0.378299,0.010342,0.012782,-0.01347,-0.006143,0.001052,-0.002079,0.138899,-0.157096,-0.977767,-0.1393495233624073
1762017230.145365,-0.094786,0.04654,0.919694,-0.378169,0.013476,0.01075,-0.012631,-0.005685,0.001926,-0.000992,0.139148,-0.157295,-0.977699,-0.13960104753753488
1762017230.175634,-0.094954,0.046646,0.919722,-0.378046,0.018994,0.009373,-0.00911,-0.005759,0.0015,-0.000551,0.139395,-0.157597,-0.977616,-0.13985036546957996
1762017230.20581,-0.095125,0.046835,0.919727,-0.377969,0.027983,0.005685,-0.002316,-0.004766,0.000551,-0.000595,0.139574,-0.158059,-0.977515,-0.14003125231745825
1762017230.206123,-0.09531,0.047113,0.919704,-0.377943,0.034529,0.004088,0.005063,-0.003146,-0.000237,-0.001241,0.139701,-0.158704,-0.977393,-0.14015941855942077
1762017230.252475,-0.095517,0.047455,0.91963,-0.378028,0.039476,0.007496,0.008813,-0.003838,0.000475,-4.5e-05,0.139803,-0.159498,-0.977249,-0.14026245107976368
1762017230.252771,-0.095725,0.047796,0.919556,-0.378113,0.044423,0.010905,0.012563,-0.00453,0.001188,0.001151,0.139905,-0.160291,-0.977105,-0.14036541430177077
1762017230.281399,-0.09595,0.048206,0.919453,-0.378253,0.059248,0.004468,0.026527,-0.004544,0.002261,0.001632,0.139976,-0.161233,-0.976939,-0.14043723466273583
1762017230.283365,-0.096211,0.048781,0.919323,-0.378431,0.068236,0.004401,0.018959,-0.000647,7.5e-05,-0.000396,0.139978,-0.162509,-0.976728,-0.14043915340234178
1762017230.314567,-0.096433,0.049497,0.919213,-0.378548,0.077187,-0.015876,0.018626,-0.003178,0.003195,0.004726,0.139812,-0.164006,-0.976501,-0.14027157793718648
1762017230.343521,-0.09643,0.050436,0.919103,-0.37869,0.092301,-0.049799,0.025789,-0.005594,-0.002585,0.012391,0.13906,-0.165746,-0.976315,-0.139512100569377
1762017230.34552,-0.096066,0.051913,0.919024,-0.378776,0.156672,-0.119735,0.020076,-0.001902,-0.00554,0.012787,0.137248,-0.168194,-0.976153,-0.13768252104131018
1762017230.374116,-0.095528,0.05405,0.919006,-0.378656,0.205304,-0.121525,0.006513,0.008334,0.010267,-0.009043,0.134649,-0.17169,-0.975906,-0.13505920569528587
1762017230.381504,-0.095295,0.0564,0.918943,-0.378525,0.212249,-0.092542,0.034367,0.004163,0.042683,-0.022335,0.132445,-0.1758,-0.975476,-0.13283525708168345
1762017230.415748,-0.095409,0.058311,0.918652,-0.378914,0.137661,-0.024408,0.09618,-0.00528,0.04162,-0.01998,0.131106,-0.179439,-0.974994,-0.1314844984041691
1762017230.420732,-0.095587,0.059594,0.918166,-0.379846,0.123115,-0.041661,0.119739,-0.006423,-0.003628,0.008734,0.130256,-0.182051,-0.974624,-0.13062710062909746
1762017230.452383,-0.095516,0.060961,0.917836,-0.380445,0.117275,-0.078483,0.048398,0.003813,-0.012417,0.008338,0.128951,-0.184582,-0.974321,-0.12931105626006942
1762017230.481313,-0.095288,0.062071,0.917785,-0.380445,0.059737,-0.058362,0.015514,0.0053,0.010844,-0.007228,0.127678,-0.186439,-0.974135,-0.1280274528560193
1762017230.483144,-0.095237,0.062581,0.918009,-0.379833,0.058262,0.007804,-0.133296,0.005025,-0.025766,-0.022709,0.127317,-0.187248,-0.974027,-0.12766349159145055
1762017230.512465,-0.095118,0.062733,0.918372,-0.37896,-0.008475,0.004461,-0.092363,-0.002925,0.004649,-0.019261,0.12716,-0.187316,-0.974034,-0.12750525930057804
1762017230.552141,-0.095333,0.06277,0.918606,-0.37833,0.034653,0.040554,-0.09131,-0.001817,-0.009314,-0.02411,0.127652,-0.187456,-0.973943,-0.1280012652753502
1762017230.552409,-0.095549,0.062806,0.91884,-0.377701,0.077781,0.076646,-0.090258,-0.000709,-0.023277,-0.028959,0.128145,-0.187596,-0.973851,-0.12849838534106944
1762017230.58118,-0.096289,0.06334,0.918869,-0.377354,0.101965,0.046532,0.013647,-0.006512,0.009325,0.000856,0.12915,-0.189072,-0.973433,-0.1295117692657983
1762017230.582464,-0.097247,0.064376,0.918692,-0.377365,0.13353,0.050027,0.065686,-0.017685,0.032038,-0.00602,0.130094,-0.191679,-0.972797,-0.13046383131217135
1762017230.615694,-0.098193,0.065805,0.918373,-0.377648,0.174649,0.038078,0.078587,-0.012678,0.025002,-0.002974,0.130654,-0.195032,-0.972056,-0.1310285518625672
1762017230.62054,-0.098857,0.067535,0.917983,-0.378119,0.188844,0.00422,0.080403,-0.009187,0.008704,-0.007397,0.130426,-0.198751,-0.971332,-0.1307987196405251
1762017230.648761,-0.099231,0.06939,0.917608,-0.378595,0.178871,-0.027042,0.074436,-0.004325,0.005857,-0.015658,0.129569,-0.202481,-0.970677,-0.12993426936586416
1762017230.679852,-0.099472,0.071054,0.917272,-0.379036,0.14871,-0.022834,0.060355,-0.003355,0.002802,-0.017522,0.128622,-0.20576,-0.970113,-0.12897931016085815
1762017230.680862,-0.099684,0.072377,0.916987,-0.379421,0.112599,-0.018445,0.052841,-0.005301,0.000134,-0.007605,0.127896,-0.208382,-0.969649,-0.1282472898458909
1762017230.710971,-0.09977,0.073373,0.916754,-0.379768,0.077119,-0.024035,0.041769,-0.008377,-0.001915,0.000196,0.1272,-0.21031,-0.969324,-0.12754558868425217
1762017230.750044,-0.099684,0.073614,0.916629,-0.380046,0.02572,-0.019892,0.03446,-0.009649,0.001998,0.006817,0.126793,-0.210723,-0.969288,-0.12713522008329842
1762017230.750359,-0.099597,0.073855,0.916504,-0.380324,-0.025679,-0.015749,0.02715,-0.010921,0.005911,0.013438,0.126385,-0.211136,-0.969251,-0.12672396180986084
1762017230.780765,-0.099263,0.073563,0.916448,-0.380602,-0.071101,-0.024657,0.027064,-0.01085,0.011309,0.012727,0.125942,-0.210393,-0.969471,-0.12627729539934687
1762017230.783034,-0.098577,0.072938,0.916421,-0.380965,-0.104766,-0.042562,0.042789,-0.010562,0.015531,0.007553,0.125102,-0.208793,-0.969925,-0.12543066762103067
1762017230.811358,-0.097641,0.072124,0.91637,-0.381484,-0.119626,-0.053954,0.060849,-0.010492,0.016665,-0.002726,0.123923,-0.206681,-0.970529,-0.12424236088887969
1762017230.863428,-0.09667,0.071325,0.916204,-0.382281,-0.109436,-0.046424,0.076289,-0.011017,0.011189,-0.00838,0.122607,-0.204607,-0.971135,-0.12291629709044262
1762017230.863772,-0.095699,0.070526,0.916035,-0.383077,-0.099247,-0.038894,0.09173,-0.011544,0.005709,-0.01404,0.121294,-0.202529,-0.971736,-0.12159333787178256
1762017230.86461,-0.094919,0.069921,0.915782,-0.383986,-0.073515,-0.033309,0.097993,-0.010226,-0.001425,-0.015638,0.120152,-0.20096,-0.972203,-0.12044298425016264
1762017230.893908,-0.094349,0.069546,0.91547,-0.384936,-0.043312,-0.02063,0.100287,-0.009269,-0.006052,-0.015165,0.119206,-0.199972,-0.972523,-0.11949015027168366
1762017230.90053,-0.094061,0.069384,0.915132,-0.38584,-0.019867,-0.005297,0.088267,-0.008336,-0.01026,-0.011665,0.118613,-0.199576,-0.972677,-0.11889289417540233
1762017230.930251,-0.093974,0.069376,0.914816,-0.38661,0.000276,0.009428,0.072732,-0.008019,-0.012255,-0.00725,0.118295,-0.199595,-0.972712,-0.11857261943993899
1762017230.96024,-0.094069,0.069447,0.914568,-0.38716,0.014551,0.018067,0.048349,-0.007479,-0.011267,-0.004772,0.11829,-0.199867,-0.972656,-0.11856767163708255
1762017230.960605,-0.094311,0.069599,0.914381,-0.387517,0.024521,0.023335,0.031193,-0.006713,-0.00831,-0.002127,0.11853,-0.200373,-0.972523,-0.11880933340734291
1762017231.000713,-0.094632,0.069765,0.914244,-0.387732,0.027487,0.030126,0.014797,-0.007047,-0.005172,-0.001367,0.118933,-0.200948,-0.972355,-0.11921522135467229
1762017231.002701,-0.095047,0.069935,0.914155,-0.387809,0.035932,0.032919,0.005516,-0.007962,-0.004244,-0.000757,0.119531,-0.201583,-0.97215,-0.11981754305016419
1762017231.031514,-0.09553,0.07017,0.914083,-0.387818,0.039722,0.037419,-0.00327,-0.007912,-0.002162,-0.003263,0.120218,-0.202379,-0.9719,-0.12050951825674072
1762017231.061885,-0.096076,0.070442,0.914017,-0.38779,0.042645,0.045064,-0.003777,-0.006474,-1.4e-05,-0.005813,0.120997,-0.203286,-0.971614,-0.1212942469064817
1762017231.063964,-0.096669,0.070656,0.913953,-0.387755,0.042362,0.047299,-0.005039,-0.006993,0.002036,-0.006044,0.121907,-0.20412,-0.971326,-0.1222109570670988
1762017231.093118,-0.09728,0.070815,0.913894,-0.38771,0.03552,0.048462,-0.004734,-0.005676,0.002261,-0.004063,0.122896,-0.204868,-0.971043,-0.12320755243764092
1762017231.159681,-0.09781,0.070957,0.913865,-0.387621,0.034215,0.044615,-0.007685,-0.005193,0.003231,-0.003561,0.123762,-0.205516,-0.970797,-0.12408010015769827
1762017231.160023,-0.09834,0.071098,0.913834,-0.387532,0.032911,0.040767,-0.010637,-0.00471,0.004201,-0.003061,0.124627,-0.206164,-0.970549,-0.12495183830435252
1762017231.160314,-0.09887,0.07124,0.913804,-0.387443,0.031606,0.03692,-0.013588,-0.004227,0.005171,-0.002561,0.125493,-0.206811,-0.970299,-0.12582477995022273
1762017231.194869,-0.099232,0.071343,0.913807,-0.387324,0.023563,0.028349,-0.012813,-0.004704,0.007005,-0.000693,0.126092,-0.207257,-0.970127,-0.12642847335809684
1762017231.195585,-0.099593,0.071446,0.91381,-0.387206,0.015521,0.019777,-0.012039,-0.005181,0.008838,0.001175,0.126691,-0.207702,-0.969953,-0.12703241139724433
1762017231.224146,-0.099797,0.071526,0.913815,-0.387125,0.014662,0.008526,-0.007404,-0.004078,0.009529,0.002476,0.127013,-0.207992,-0.969849,-0.12735700158112723
1762017231.225759,-0.099889,0.071591,0.913832,-0.38705,0.00582,-0.000155,-0.005036,-0.003296,0.010109,0.00526,0.127145,-0.208168,-0.969794,-0.1274900732814873
1762017231.256,-0.09986,0.071684,0.913855,-0.386986,0.006107,-0.010004,-0.005193,-0.003711,0.009111,0.003887,0.127034,-0.208306,-0.969779,-0.12737815523550788
1762017231.260573,-0.099769,0.071796,0.913877,-0.386937,0.007132,-0.013716,-0.003253,-0.004954,0.007699,0.003757,0.126792,-0.208434,-0.969783,-0.12713420324287136
1762017231.29093,-0.099653,0.071979,0.913902,-0.386875,0.015756,-0.018711,-0.00205,-0.004553,0.004545,0.001672,0.126452,-0.20867,-0.969777,-0.12679140001561973
1762017231.319083,-0.099537,0.072297,0.913904,-0.386839,0.038295,-0.025045,0.003443,-0.005067,0.001284,0.000505,0.126,-0.209155,-0.969731,-0.1263357989265625
1762017231.320424,-0.099482,0.072879,0.913863,-0.386842,0.069737,-0.029365,0.007226,-0.004544,-0.008712,-0.00119,0.125441,-0.210171,-0.969584,-0.1257723028684329
1762017231.35229,-0.09951,0.073852,0.913808,-0.386779,0.105703,-0.029708,0.006823,-0.002668,-0.008829,-0.005342,0.124738,-0.211951,-0.969287,-0.1250637591357778
1762017231.380213,-0.099743,0.075015,0.913752,-0.386629,0.128809,-0.026694,-0.001949,-0.005413,-0.002473,-0.002543,0.124275,-0.214217,-0.968848,-0.12459715560223791
1762017231.381525,-0.099977,0.076365,0.913695,-0.386437,0.134414,-0.032572,-0.004962,-0.006103,0.001542,-0.003482,0.123677,-0.216819,-0.968346,-0.12399445576187147
1762017231.415957,-0.100242,0.077639,0.91365,-0.386223,0.117698,-0.01971,-0.004972,-0.004733,0.007671,-0.007951,0.1232,-0.219301,-0.967848,-0.1235137509073308
1762017231.421019,-0.10053,0.078658,0.913605,-0.386047,0.094669,-0.008588,-0.003348,-0.005793,0.011228,-0.00978,0.122958,-0.221344,-0.967413,-0.12326996951255645
1762017231.458005,-0.100876,0.079381,0.913546,-0.385949,0.06726,0.012332,-0.000173,-0.006174,0.008099,-0.010651,0.123036,-0.222902,-0.967045,-0.12334860087864125
1762017231.458553,-0.101292,0.079839,0.913479,-0.385904,0.049222,0.022327,0.001264,-0.007047,0.004868,-0.006772,0.123436,-0.22404,-0.966731,-0.12375167331563101
1762017231.488408,-0.101656,0.080158,0.913419,-0.385885,0.038186,0.022509,0.000214,-0.00692,0.001219,-0.004808,0.123845,-0.22489,-0.966482,-0.12416375121099474
1762017231.527038,-0.101929,0.080363,0.91338,-0.385863,0.02066,0.013606,-0.001814,-0.005307,0.003832,-0.00177,0.124182,-0.225464,-0.966305,-0.12450337375555112
1762017231.528334,-0.102048,0.080353,0.913381,-0.38583,-0.016847,0.006615,-0.004349,-0.004785,0.010057,-0.002424,0.124412,-0.225533,-0.966259,-0.12473520904402664
1762017231.557478,-0.101896,0.079979,0.913415,-0.385866,-0.055595,0.001351,0.004014,-0.004896,0.00249,0.000601,0.124424,-0.224744,-0.966441,-0.12474733631676702
1762017231.558484,-0.101622,0.079548,0.913429,-0.385996,-0.03384,-0.010969,0.004204,-0.004714,-0.018139,0.005822,0.124239,-0.223774,-0.96669,-0.12456087175968777
1762017231.58948,-0.101339,0.079597,0.913448,-0.386013,0.022313,-0.041132,-0.005685,-0.00744,-0.022576,0.012164,0.123685,-0.223653,-0.966789,-0.12400257004926613
1762017231.618628,-0.10092,0.080161,0.913529,-0.385816,0.042175,-0.074989,-0.022587,-0.004195,-0.005355,0.005969,0.122532,-0.224332,-0.966779,-0.12284067277058193
1762017231.620604,-0.100361,0.080634,0.91369,-0.385481,0.007459,-0.076261,-0.038731,-0.005349,0.00203,-0.000261,0.121231,-0.224724,-0.966852,-0.1215298977851432
1762017231.65275,-0.099656,0.080778,0.9139,-0.385136,-0.022319,-0.082336,-0.02958,-0.007059,0.001448,0.003777,0.119931,-0.224409,-0.967087,-0.12022037383536137
1762017231.683191,-0.098813,0.080887,0.914107,-0.384838,-0.023721,-0.08316,-0.023486,-0.005533,0.00057,-0.000222,0.118396,-0.223933,-0.967386,-0.11867440764712149
1762017231.683502,-0.097988,0.080895,0.914293,-0.384608,-0.037543,-0.065184,-0.015001,-0.004078,0.008347,-0.00793,0.116954,-0.223298,-0.967708,-0.11722233376934196
1762017231.711367,-0.097263,0.08053,0.91442,-0.384566,-0.080222,-0.04466,0.000115,-0.005787,0.010109,-0.007404,0.115941,-0.222085,-0.968109,-0.11620238913603315
1762017231.753713,-0.096551,0.079616,0.914513,-0.384715,-0.099309,-0.034132,0.000457,-0.006542,0.002337,-0.005827,0.115336,-0.219908,-0.968678,-0.11559330907147018
1762017231.754012,-0.095838,0.078701,0.914604,-0.384864,-0.118396,-0.023605,0.0008,-0.007296,-0.005437,-0.004256,0.11473,-0.21773,-0.969242,-0.11498323644097089
1762017231.783479,-0.095213,0.077698,0.914712,-0.384968,-0.111794,-0.013556,-0.002238,-0.007432,-0.009451,-0.003183,0.114362,-0.215451,-0.969795,-0.11461275421185776
1762017231.783828,-0.094767,0.076866,0.914816,-0.384997,-0.073495,0.000447,-0.010606,-0.005224,-0.013964,-0.005678,0.114203,-0.213606,-0.970222,-0.11445268061409294
1762017231.814641,-0.094654,0.076317,0.914909,-0.384913,-0.030798,0.016628,-0.018733,-0.005324,-0.006668,-0.005594,0.114449,-0.212514,-0.970433,-0.11470028089290758
1762017231.819573,-0.094776,0.076024,0.914961,-0.384816,-0.015952,0.027278,-0.009875,-0.008732,0.008242,-0.007195,0.114922,-0.212061,-0.970476,-0.11517644434792497
1762017231.873475,-0.095067,0.075696,0.914926,-0.384893,-0.025732,0.037009,0.000868,-0.009117,0.014807,-0.009068,0.11569,-0.211693,-0.970465,-0.11594961166267392
1762017231.87371,-0.095358,0.075367,0.914891,-0.384969,-0.035513,0.046741,0.011612,-0.009502,0.021372,-0.010943,0.116457,-0.211326,-0.970453,-0.11672185951264112
1762017231.875569,-0.09565,0.074827,0.914802,-0.385214,-0.049807,0.053526,0.020772,-0.009,0.017194,-0.006304,0.117352,-0.210595,-0.970504,-0.11762304923643259
1762017231.905245,-0.095924,0.074207,0.914716,-0.385468,-0.044084,0.047233,0.014991,-0.008826,0.010358,-0.003131,0.118278,-0.209709,-0.970584,-0.11855547870339214
1762017231.935826,-0.096173,0.073666,0.914668,-0.385624,-0.035142,0.040887,0.004844,-0.008125,0.005003,-0.00382,0.119118,-0.208934,-0.970648,-0.11940150690678669
1762017231.940148,-0.096387,0.073307,0.914652,-0.385678,-0.005697,0.02499,-0.00416,-0.006189,-0.001268,0.002275,0.119775,-0.20845,-0.970671,-0.12006326930123566
1762017231.972182,-0.096557,0.073331,0.914681,-0.385563,0.025077,0.00883,-0.020509,-0.004247,-0.000615,0.001317,0.12009,-0.208607,-0.970599,-0.12038048309610835
1762017231.979162,-0.096775,0.073625,0.914764,-0.385253,0.043461,0.006977,-0.037919,-0.003878,0.00169,-0.002033,0.120325,-0.209264,-0.970428,-0.12061725260823494
1762017232.009021,-0.09701,0.074046,0.914892,-0.38481,0.055072,0.00644,-0.044266,-0.003356,0.004289,-0.006011,0.120521,-0.210149,-0.970212,-0.12081473749006878
1762017232.054329,-0.097377,0.074508,0.91504,-0.384275,0.06085,0.009902,-0.045015,-0.006052,0.00688,-0.003805,0.120945,-0.211195,-0.969932,-0.12124187016328271
1762017232.054656,-0.097744,0.07497,0.915188,-0.38374,0.066628,0.013363,-0.045764,-0.008749,0.009471,-0.001601,0.12137,-0.212241,-0.969651,-0.12166997094395754
1762017232.057712,-0.098142,0.075481,0.915302,-0.383266,0.065836,0.017288,-0.042606,-0.007604,0.011129,-0.002148,0.1218,-0.213405,-0.969341,-0.12210325076011237
1762017232.087805,-0.098608,0.076003,0.915376,-0.382866,0.067386,0.022967,-0.034738,-0.006806,0.012499,-0.003267,0.122328,-0.21465,-0.969,-0.12263517645417835
1762017232.11844,-0.099114,0.076473,0.915414,-0.38255,0.067902,0.028731,-0.024715,-0.005977,0.010154,-0.003865,0.122951,-0.215841,-0.968657,-0.12326285896087966
1762017232.118744,-0.099687,0.076976,0.91541,-0.382311,0.072104,0.032164,-0.01627,-0.006573,0.007174,-0.003567,0.123651,-0.217152,-0.968275,-0.1239682184085614
1762017232.157092,-0.10027,0.077548,0.915362,-0.382157,0.080204,0.030887,-0.006679,-0.006441,0.007214,-0.003477,0.124296,-0.218606,-0.967865,-0.12461825135230321
1762017232.15842,-0.100873,0.078153,0.91528,-0.382073,0.074546,0.033194,-0.00324,-0.006551,0.007274,-0.002487,0.124933,-0.220146,-0.967434,-0.12526023505532127
1762017232.194778,-0.10142,0.07871,0.915185,-0.382041,0.070138,0.028597,0.003555,-0.00704,0.006413,-0.001232,0.125495,-0.221561,-0.967038,-0.125826711577909
1762017232.196427,-0.101928,0.07923,0.915075,-0.382062,0.067175,0.024706,0.010374,-0.003873,0.004541,-0.001764,0.126002,-0.222888,-0.966667,-0.12633777517216205
1762017232.225227,-0.102427,0.079718,0.91497,-0.382077,0.06173,0.032352,0.004262,-0.003003,0.001428,-0.002296,0.126519,-0.224151,-0.966307,-0.12685899096162748
1762017232.256105,-0.10295,0.080152,0.914876,-0.382072,0.058823,0.032946,-0.001616,-0.005134,-0.00179,-0.001705,0.127126,-0.225326,-0.965954,-0.1274709315200024
1762017232.257868,-0.103463,0.080555,0.914806,-0.382016,0.055375,0.033988,-0.003758,-0.003712,-0.002881,-0.000714,0.12775,-0.226434,-0.965613,-0.12810000133999494
1762017232.286305,-0.103952,0.080941,0.91475,-0.381935,0.052348,0.027687,-0.005356,-0.002419,-0.002969,-0.000805,0.128353,-0.227487,-0.965285,-0.12870806636735663
1762017232.317011,-0.104413,0.081315,0.914691,-0.381872,0.051865,0.023669,-0.003641,-0.001818,-0.002549,-0.001318,0.128907,-0.2285,-0.964972,-0.12926668989153
1762017232.318126,-0.104845,0.081675,0.914638,-0.381803,0.043943,0.023031,-0.000361,-0.001989,-0.001272,-0.001575,0.129422,-0.229467,-0.964674,-0.1297859842844067
1762017232.353516,-0.105227,0.081982,0.914578,-0.381776,0.042162,0.023742,-0.000409,-0.003404,-0.003068,-0.002252,0.129879,-0.230305,-0.964412,-0.13024698088284317
1762017232.355383,-0.105595,0.082274,0.914516,-0.38176,0.041744,0.021813,0.003724,-0.002982,-0.002802,-0.001349,0.130318,-0.231106,-0.964161,-0.13068976078661987
1762017232.38558,-0.105952,0.082619,0.914437,-0.381777,0.045583,0.019951,0.005558,-0.002368,-0.003941,-0.001967,0.130688,-0.232,-0.963897,-0.13106284826045747
1762017232.418679,-0.106306,0.08298,0.914352,-0.381802,0.046823,0.020427,0.00706,-0.00294,-0.004538,-0.002747,0.131039,-0.232921,-0.963627,-0.13141691742122305
1762017232.418974,-0.106656,0.083347,0.914252,-0.381866,0.046394,0.019756,0.010441,-0.003445,-0.003531,-0.003075,0.131365,-0.233857,-0.963356,-0.13174574437906966
1762017232.464388,-0.106985,0.08369,0.91415,-0.381943,0.041016,0.017094,0.010688,-0.002836,-0.002975,-0.002556,0.13167,-0.234735,-0.963101,-0.13205339001057528
1762017232.466495,-0.107311,0.084005,0.914058,-0.382003,0.034992,0.01895,0.00687,-0.004237,-0.002831,-0.002144,0.131996,-0.235558,-0.962855,-0.132382312098563
1762017232.4997,-0.1076,0.084256,0.913989,-0.38203,0.027435,0.015056,0.005142,-0.006093,-0.001241,0.000726,0.132314,-0.236231,-0.962646,-0.1327031836366068
1762017232.501543,-0.107777,0.084408,0.913942,-0.38206,0.015674,0.007663,0.004522,-0.006944,0.00037,0.001391,0.132507,-0.236643,-0.962519,-0.13289780200461468
