quat_x,quat_y,quat_z,quat_w,rot_x,rot_y,rot_z,acc_x,acc_y,acc_z,grav_x,grav_y,grav_z,pitch_rad
0.015073,0.517367,0.0,0.855631,-0.050917,0.04372,0.031865,-0.732399,0.182961,-0.526696,0.88535,-0.025794,-0.464209,1.087247329485405
-0.019302,0.34183,-0.087498,0.93548,-0.052841,0.047252,0.033247,-0.487909,0.061126,-0.218878,0.636173,0.095932,-0.765559,0.6895272233738823
-0.052789,0.150561,-0.170968,0.972273,-0.054765,0.050783,0.034628,-0.131144,0.002816,-0.028878,0.274722,0.154133,-0.94909,0.2783009100450255
-0.063817,0.087922,-0.19568,0.974631,-0.076047,0.015436,0.038465,-0.00314,0.005694,0.005109,0.146408,0.158806,-0.976394,0.14693574857276678
-0.063111,0.089396,-0.194826,0.974714,-0.111486,0.006606,0.035318,-0.004939,0.009661,0.003252,0.14968,0.157863,-0.976051,0.15024435393751479
-0.06342,0.088653,-0.194533,0.974821,-0.123346,-0.000806,0.033308,-0.00319,0.011504,0.004434,0.148167,0.158138,-0.976237,0.14871460351963153
-0.064324,0.088143,-0.194261,0.974862,-0.130167,-0.007071,0.03548,-0.001609,0.0128,0.0059,0.146864,0.15966,-0.976186,0.14739636855982696
-0.065228,0.087634,-0.193989,0.974902,-0.136989,-0.013336,0.037653,-2.8e-05,0.014097,0.007362,0.145561,0.161182,-0.976131,0.1460810947993488
-0.068251,0.087816,-0.19354,0.974768,-0.120598,-0.013865,0.004116,0.001534,0.013837,-0.004444,0.144781,0.167049,-0.97526,0.14529250231766808
-0.06928,0.08805,-0.193601,0.974662,-0.112467,-0.005628,-0.008976,0.000258,0.014533,-0.004929,0.144812,0.169141,-0.974895,0.14532359736151368
-0.070308,0.088283,-0.193662,0.974555,-0.104336,0.002608,-0.022069,-0.001018,0.01523,-0.00542,0.144842,0.171233,-0.974526,0.14535258164083095
-0.071337,0.088517,-0.193722,0.974447,-0.096206,0.010845,-0.035162,-0.002293,0.015928,-0.005914,0.144871,0.173324,-0.974152,0.14538275512116802
-0.073177,0.089101,-0.194359,0.974131,-0.076364,0.034282,-0.053705,-0.002043,0.020713,0.00044,0.145147,0.177203,-0.973412,0.14566141830499543
-0.073848,0.089503,-0.194695,0.973976,-0.07079,0.032417,-0.049002,-0.005432,0.024277,0.006781,0.145593,0.178705,-0.973071,0.14611119585206972
-0.075325,0.089845,-0.19523,0.973724,-0.049535,0.011678,-0.026013,-6.3e-05,0.025396,0.007002,0.145557,0.181772,-0.972508,0.14607601197263975
-0.075885,0.089956,-0.195393,0.973638,-0.033333,0.009254,-0.023575,0.000427,0.022192,0.006633,0.145514,0.182922,-0.972299,0.14603285061964555
-0.076445,0.090067,-0.195556,0.973551,-0.017131,0.00683,-0.021136,0.000917,0.018988,0.006263,0.14547,0.184073,-0.972088,0.14598909982957084
-0.07793,0.090206,-0.195923,0.973347,-0.00703,0.000549,-0.010899,0.002592,0.016852,0.005567,0.145067,0.187053,-0.97158,0.145580607813388
-0.078491,0.090234,-0.19601,0.973282,-0.007714,-0.01217,-0.007852,0.001814,0.017325,0.005553,0.144876,0.188161,-0.971394,0.14538786562214592
-0.079051,0.090261,-0.196097,0.973216,-0.008398,-0.024889,-0.004804,0.001036,0.017798,0.005538,0.144684,0.189268,-0.971208,0.14519317099918047
-0.080143,0.090244,-0.196061,0.973136,-0.029986,-0.029337,0.010593,0.000644,0.017395,0.002165,0.144214,0.191368,-0.970866,0.14471815524133863
-0.081251,0.090129,-0.195679,0.973131,-0.042039,-0.031962,0.029516,0.000429,0.015345,0.002748,0.143616,0.193408,-0.97055,0.14411475589637343
-0.081836,0.090135,-0.195409,0.973136,-0.043105,-0.028292,0.032239,4e-06,0.010699,0.00026,0.143444,0.194501,-0.970357,0.14394078047240802
-0.082303,0.090087,-0.195223,0.973139,-0.030508,-0.028134,0.0197,-0.000378,0.006089,0.000387,0.1432,0.195358,-0.970221,0.14369345125341887
-0.08277,0.090039,-0.195036,0.973141,-0.01791,-0.027977,0.007162,-0.00076,0.001479,0.000514,0.142955,0.196215,-0.970084,0.1434464666678482
-0.083556,0.089869,-0.195054,0.973086,-0.017043,-0.023119,-0.00902,-0.001251,0.005664,8e-05,0.142305,0.197674,-0.969884,0.14278939063737997
-0.083815,0.089823,-0.195084,0.973062,-0.01914,-0.020108,-0.010233,-0.000739,0.006649,-0.001,0.142105,0.198161,-0.969814,0.14258743593768794
-0.084249,0.08972,-0.195305,0.972989,-0.008071,-0.010933,-0.016344,-0.002821,0.004447,-0.001989,0.141685,0.198993,-0.969705,0.1421630207361851
-0.084303,0.08965,-0.195391,0.972974,-0.007635,-0.004963,-0.013634,-0.002732,0.005949,-0.002785,0.14151,0.199082,-0.969712,0.1419867436096971
-0.084424,0.089642,-0.195526,0.972937,0.008105,0.000469,-0.005209,-0.002005,0.001259,-0.00177,0.141417,0.199333,-0.969674,0.14189352596310553
-0.084366,0.08962,-0.195582,0.972933,0.017342,0.001509,-0.006156,-0.001919,0.000944,-0.001061,0.141387,0.199222,-0.969701,0.14186292431856531
-0.084309,0.089598,-0.195638,0.972929,0.026579,0.002549,-0.007103,-0.001834,0.000629,-0.000353,0.141357,0.19911,-0.969729,0.14183194104234048
-0.084082,0.089615,-0.195908,0.972892,0.014345,0.014783,-0.011343,-1.3e-05,0.001779,-0.003407,0.141427,0.198719,-0.969799,0.14190251348144226
-0.084061,0.089714,-0.196017,0.972863,0.007997,0.014565,-0.018116,-0.001017,0.000939,-0.001634,0.141605,0.19873,-0.96977,0.14208164832773634
-0.084039,0.089814,-0.196126,0.972834,0.001648,0.014347,-0.024889,-0.002022,9.9e-05,0.000139,0.141783,0.198742,-0.969742,0.14226314719173416
-0.083983,0.089744,-0.196589,0.972752,0.008691,0.006376,-0.026306,-0.000824,-0.002651,-0.000608,0.141578,0.198674,-0.969786,0.1420543237530021
-0.083885,0.089832,-0.196778,0.972714,0.013596,0.019179,-0.024642,0.000838,-0.002238,-0.004086,0.141748,0.198546,-0.969787,0.14222726793027415
-0.083788,0.08992,-0.196967,0.972676,0.0185,0.031982,-0.022978,0.0025,-0.001825,-0.007565,0.141919,0.198419,-0.969788,0.14239987976126098
-0.083568,0.09026,-0.197243,0.972607,0.008247,0.024565,-0.007871,-0.001295,0.003069,-0.000954,0.142608,0.198164,-0.969739,0.14309646464502768
-0.083517,0.090319,-0.197302,0.972594,0.007073,0.007628,-0.006413,-0.004575,0.002507,0.003327,0.142731,0.198097,-0.969735,0.1432204157372019
-0.083427,0.090349,-0.197483,0.972562,-0.006169,0.002926,-0.010793,0.000439,0.001784,0.00092,0.142789,0.19796,-0.969754,0.14327890188319795
-0.083434,0.090379,-0.197523,0.972551,-0.014715,0.005002,-0.008499,0.001124,0.003101,-0.000524,0.142836,0.197991,-0.969741,0.14332631376731209
-0.083688,0.090513,-0.197667,0.972487,-0.007908,0.003052,-0.012176,-0.00153,-0.003436,0.002251,0.142962,0.198553,-0.969607,0.1434522200743854
-0.083714,0.090473,-0.19784,0.972453,-0.004302,0.0064,-0.012427,-0.000485,-0.001587,-0.000263,0.142838,0.198614,-0.969613,0.1433277477954749
-0.08374,0.090433,-0.198014,0.97242,-0.000697,0.009747,-0.012679,0.00056,0.000262,-0.002777,0.142714,0.198675,-0.969619,0.14320327859510806
-0.083755,0.090444,-0.198107,0.972398,-0.00279,0.006288,-0.007546,-0.000335,0.001318,-0.000805,0.14271,0.198721,-0.96961,0.14319913099517587
-0.08377,0.090454,-0.1982,0.972377,-0.004883,0.002829,-0.002414,-0.001229,0.002373,0.001167,0.142705,0.198768,-0.969601,0.14319319469880684
-0.083824,0.090413,-0.198212,0.972374,-0.00984,-0.007152,-0.003148,-0.000359,-0.000406,-0.000511,0.1426,0.198858,-0.969598,0.14308842846916017
-0.084026,0.090389,-0.198189,0.972363,-0.025245,0.000613,0.008633,0.001022,0.00201,-0.002361,0.142476,0.199237,-0.969539,0.14296226529259753
-0.084246,0.09048,-0.198095,0.972355,-0.031226,0.001202,0.012629,0.000589,0.00291,-0.001466,0.14258,0.199681,-0.969432,0.14306749710019945
-0.084461,0.090514,-0.197992,0.972354,-0.028007,-0.003671,0.013047,-0.000417,0.002487,-0.000309,0.142578,0.200094,-0.969347,0.14306563530704589
-0.084675,0.090548,-0.197889,0.972353,-0.024789,-0.008544,0.013465,-0.001423,0.002064,0.000848,0.142576,0.200506,-0.969262,0.14306426273436762
-0.085022,0.090582,-0.197642,0.97237,-0.013567,-0.000525,0.006798,0.001843,0.000115,-0.001821,0.142551,0.201152,-0.969132,0.14303785872816813
-0.085102,0.090613,-0.197617,0.972365,-0.00742,-0.000918,0.003036,0.002109,-0.000646,-0.000453,0.142583,0.201314,-0.969094,0.1430702023009728
-0.085181,0.090644,-0.197592,0.97236,-0.001273,-0.001311,-0.000726,0.002375,-0.001407,0.000915,0.142614,0.201475,-0.969056,0.14310295274587354
-0.0852,0.090642,-0.197722,0.972333,0.002277,0.001815,-0.014445,0.00207,0.000943,0.000442,0.142576,0.20153,-0.96905,0.14306411122046556
-0.085181,0.090636,-0.197805,0.972318,0.002214,0.003403,-0.017537,0.002929,-0.000124,-0.000124,0.142557,0.201503,-0.969058,0.14304288067047394
-0.085147,0.090748,-0.198177,0.972235,0.002068,0.011735,-0.026164,0.004383,0.002178,-0.000105,0.142708,0.201533,-0.96903,0.1431972958801201
-0.085152,0.0908,-0.198364,0.972191,-0.000431,0.010232,-0.025507,0.004015,0.003298,8.9e-05,0.142769,0.20159,-0.969009,0.1432572027181998
-0.085157,0.090853,-0.19855,0.972148,-0.002931,0.008729,-0.024849,0.003646,0.004419,0.000282,0.142829,0.201647,-0.968988,0.14331941714923432
-0.085232,0.090895,-0.198914,0.972063,0.00025,-0.01148,-0.017806,0.002407,0.005384,0.002546,0.142803,0.201862,-0.968947,0.143293528657185
-0.085249,0.090848,-0.198976,0.972053,-0.000272,-0.010564,-0.009216,0.003228,0.006673,0.000252,0.142693,0.201887,-0.968958,0.14318186022774537
-0.085271,0.090799,-0.19901,0.972049,0.00303,-0.012806,-0.003436,0.002408,0.004358,0.000525,0.142582,0.201915,-0.968969,0.14307017730559268
-0.085292,0.09075,-0.199045,0.972045,0.006332,-0.015048,0.002343,0.001589,0.002043,0.000799,0.142471,0.201943,-0.968979,0.1429587237981868
-0.085214,0.09052,-0.199021,0.972078,0.017374,-0.01752,0.001358,0.00166,0.001805,0.002606,0.142066,0.201699,-0.96909,0.14254852617430497
-0.085172,0.090374,-0.198993,0.972101,0.014683,-0.017963,0.003318,0.001495,0.002808,0.001379,0.141807,0.201559,-0.969157,0.1422876831370228
-0.085131,0.090227,-0.198964,0.972124,0.011991,-0.018407,0.005278,0.001331,0.003811,0.000151,0.141548,0.20142,-0.969224,0.14202463751907815
-0.085049,0.089972,-0.198856,0.972177,0.009776,-0.020874,0.005211,0.002203,0.001382,-0.000755,0.141112,0.201148,-0.969344,0.14158497892989694
-0.08502,0.089867,-0.198791,0.972202,0.011866,-0.020834,0.007545,0.002001,0.001143,-0.0016,0.140935,0.201043,-0.969391,0.1414061138147043
-0.084991,0.089762,-0.198727,0.972228,0.013956,-0.020793,0.009879,0.0018,0.000904,-0.002445,0.140758,0.200938,-0.969439,0.14122724467030276
-0.084876,0.089389,-0.198525,0.972313,0.015815,-0.031345,0.012644,-0.000989,-0.001424,0.000517,0.140129,0.200545,-0.969611,0.14059084832341032
-0.084838,0.089219,-0.198453,0.972347,0.017013,-0.04015,0.011921,-0.001886,-0.001477,0.002738,0.13983,0.200396,-0.969685,0.14029067800780343
-0.084764,0.088989,-0.198264,0.972413,0.00619,-0.014357,0.01294,0.00128,-0.002573,-0.003872,0.139457,0.200137,-0.969792,0.13991285477834092
-0.084767,0.088948,-0.198036,0.972463,-0.009891,0.006469,0.008057,-0.000243,-0.003446,-0.004712,0.139424,0.200095,-0.969806,0.13987914656808875
-0.084829,0.088975,-0.198044,0.972454,-0.012318,-0.000196,-0.005243,-0.004267,-0.004005,-0.001815,0.139449,0.200226,-0.969775,0.13990439090162748
-0.084962,0.088931,-0.198161,0.972422,-0.016548,-0.010432,-0.01698,-0.005038,-0.0014,-0.001035,0.139284,0.200483,-0.969746,0.13973894797361588
-0.085095,0.088886,-0.198278,0.972391,-0.020779,-0.020669,-0.028716,-0.005809,0.001206,-0.000255,0.139119,0.20074,-0.969716,0.13957166736760324
-0.085531,0.088849,-0.198543,0.972302,-0.036446,-0.000411,-0.016414,-0.002545,0.003579,-0.00193,0.138812,0.201605,-0.969581,0.13926266728550685
-0.085697,0.088879,-0.198607,0.972271,-0.031744,0.000198,-0.012226,-0.004476,0.002401,0.000978,0.13879,0.201945,-0.969513,0.13923837426643654
-0.085957,0.08874,-0.198782,0.972225,-0.00663,-0.007797,-0.010259,-0.005798,0.00097,-0.000792,0.138377,0.202419,-0.969473,0.13882254585368337
-0.086,0.0887,-0.198842,0.972213,-0.004733,-0.003041,-0.007653,-0.004893,0.002834,-0.002458,0.13827,0.202495,-0.969473,0.13871418211306974
-0.086043,0.08866,-0.198902,0.972201,-0.002837,0.001715,-0.005047,-0.003987,0.004697,-0.004124,0.138163,0.202571,-0.969472,0.13860581153049922
-0.086221,0.088639,-0.198943,0.972178,-0.013213,-0.000825,0.001726,-0.004889,0.004546,-0.002376,0.138039,0.202913,-0.969418,0.13848183453088092
-0.086425,0.08866,-0.198956,0.972156,-0.011449,0.004828,-0.00826,-0.001204,-0.000751,-0.002849,0.137993,0.203317,-0.96934,0.1384349000068378
-0.086622,0.088757,-0.198995,0.972121,-0.013677,0.00371,-0.007602,-0.002107,-0.000534,-0.001499,0.138091,0.203738,-0.969238,0.13853308003652318
-0.086818,0.088854,-0.199034,0.972087,-0.015905,0.002592,-0.006943,-0.003009,-0.000316,-0.000148,0.138188,0.20416,-0.969135,0.13863179802244197
-0.087015,0.088951,-0.199073,0.972053,-0.018133,0.001475,-0.006285,-0.003912,-9.8e-05,0.001202,0.138286,0.204581,-0.969032,0.13873007116717115
-0.087177,0.08899,-0.199096,0.97203,-0.021649,0.004803,-0.005378,-0.001641,-0.000196,0.00071,0.138289,0.204912,-0.968962,0.13873331917342102
-0.087339,0.089029,-0.199118,0.972007,-0.025165,0.008132,-0.004471,0.00063,-0.000293,0.000217,0.138293,0.205242,-0.968892,0.13873672488241687
-0.087619,0.089201,-0.199205,0.971948,-0.019248,0.009775,-0.008168,0.000594,0.001141,-0.001251,0.138489,0.20586,-0.968732,0.13893573269526552
-0.087923,0.089296,-0.199328,0.971887,-0.020774,0.002709,-0.007531,0.000458,0.002728,0.00266,0.138521,0.2065,-0.968592,0.13896706499294342
-0.088072,0.089375,-0.199386,0.971854,-0.020793,0.002621,-0.007523,0.000905,0.003609,0.001764,0.138599,0.206826,-0.968511,0.1390458684191344
-0.088233,0.089419,-0.199409,0.971831,-0.025387,0.004882,-0.00762,0.002496,0.004065,-0.000384,0.138611,0.207157,-0.968439,0.13905914544002243
-0.088699,0.089542,-0.199502,0.971758,-0.032188,-0.000722,-0.007719,0.001765,0.005214,-2e-06,0.138635,0.208115,-0.96823,0.1390830260951498
-0.08888,0.089614,-0.199521,0.971731,-0.031803,0.000609,-0.007718,0.002387,0.00424,0.000896,0.138695,0.208494,-0.968139,0.13914310331076415
-0.089321,0.089649,-0.199593,0.971672,-0.019347,-0.006636,-0.009634,0.004437,0.002156,0.002672,0.138564,0.209368,-0.967969,0.1390104250653152
-0.089469,0.089606,-0.199685,0.971644,-0.005914,-0.007608,-0.00921,0.002451,0.001503,0.001978,0.138399,0.20965,-0.967932,0.13884470481135372
-0.089501,0.089513,-0.199769,0.971632,0.004417,-0.011417,-0.008104,0.002672,0.002224,0.001386,0.138189,0.209688,-0.967954,0.13863197060015592
-0.089463,0.089418,-0.199851,0.971628,0.009597,-0.008018,-0.004365,0.00207,0.001863,0.000233,0.138003,0.20959,-0.968002,0.1384453678200595
-0.089368,0.089355,-0.199901,0.971632,0.012871,-0.007954,-0.005168,0.001014,0.001112,-0.000319,0.137911,0.20939,-0.968058,0.13835179772282832
-0.089255,0.089289,-0.199972,0.971634,0.012896,-0.003103,-0.003383,0.000723,0.000774,-0.001363,0.137815,0.209158,-0.968122,0.13825548319093522
-0.089146,0.089264,-0.200039,0.971632,0.010945,-0.000529,-0.004705,0.000447,-0.000632,0.000381,0.137798,0.208946,-0.96817,0.13823802621212597
-0.089055,0.089245,-0.200127,0.971624,0.009738,-0.003772,-0.011019,0.000719,-0.001311,-0.00141,0.13778,0.208777,-0.968209,0.1382202400417305
-0.089035,0.089219,-0.200241,0.971605,0.000428,0.001424,-0.008395,0.001391,0.001327,-0.003447,0.137715,0.208746,-0.968225,0.13815339314603772
-0.089091,0.089201,-0.200305,0.971588,-0.00457,-0.00582,-0.002856,-0.000888,0.000556,-0.000301,0.137642,0.208854,-0.968212,0.13808086116875012
-0.089162,0.089092,-0.200348,0.971583,-0.006204,-0.017621,-0.005284,-0.002536,6.1e-05,0.001255,0.137394,0.208956,-0.968225,0.13782966628351156
-0.089274,0.088887,-0.200356,0.97159,-0.008584,-0.020794,-0.000617,-0.001364,-0.000293,-0.001678,0.13695,0.209093,-0.968259,0.13738202387817372
-0.089428,0.088872,-0.200294,0.97159,-0.020697,0.005627,0.009192,0.002364,0.002477,-0.008862,0.136871,0.209376,-0.968209,0.13730149731866972
-0.089657,0.08907,-0.200144,0.971582,-0.031105,0.020511,0.017903,0.001711,0.002481,-0.005119,0.137188,0.209872,-0.968056,0.1376230172070778
-0.089912,0.089321,-0.199982,0.971568,-0.030658,0.018616,0.009577,-0.001111,-0.000218,-0.001355,0.137602,0.210437,-0.967875,0.13803925590997992
-0.090143,0.089451,-0.199967,0.971538,-0.02133,0.004169,-0.006963,-0.001419,-0.001982,0.001552,0.137759,0.21093,-0.967745,0.13819832398054369
-0.090342,0.089507,-0.200071,0.971493,-0.021357,0.003322,-0.012496,0.00124,0.001301,0.00163,0.137761,0.211348,-0.967654,0.13820072550152124
-0.090565,0.089586,-0.200182,0.971442,-0.019156,0.007597,-0.011113,0.001086,0.00253,0.001052,0.137797,0.211824,-0.967544,0.13823608373782273
-0.090632,0.089585,-0.200281,0.971416,-0.008658,0.001977,-0.007854,0.000144,0.002299,0.000535,0.137744,0.211966,-0.967521,0.1381842183301622
-0.090698,0.089583,-0.200379,0.971389,0.00184,-0.003642,-0.004595,-0.000798,0.002067,1.7e-05,0.137692,0.212107,-0.967498,0.1381307720169048
-0.090692,0.089521,-0.20043,0.971385,0.005061,-0.003752,-0.001848,-0.00024,0.00346,-0.002692,0.137563,0.21208,-0.967522,0.13800152768776994
-0.090668,0.089544,-0.200429,0.971385,0.002444,-0.000724,0.005343,0.000374,0.002521,-0.001455,0.137618,0.212042,-0.967522,0.13805653655721078
-0.090666,0.089545,-0.200404,0.971391,0.001528,-0.002266,0.002247,-0.000981,0.001346,-0.000752,0.137627,0.212034,-0.967523,0.1380649691212272
-0.090665,0.089479,-0.200417,0.971394,0.0034,-0.000901,-0.008176,0.001077,0.000482,-0.001356,0.137498,0.212009,-0.967547,0.13793408157510745
-0.090667,0.08943,-0.200516,0.971378,0.001282,-0.002128,-0.006501,0.001011,0.001333,-0.001779,0.13738,0.212009,-0.967563,0.13781615033380815
-0.0907,0.089473,-0.20054,0.971366,-0.003318,0.004941,0.000951,0.001114,0.001618,-0.002782,0.137444,0.212091,-0.967536,0.13788056487331474
-0.090702,0.089446,-0.200562,0.971364,0.002426,-0.002936,-0.000555,-0.000936,-0.000726,0.000521,0.137387,0.212088,-0.967545,0.13782240857882533
-0.090642,0.089408,-0.200551,0.971375,0.008838,-0.003763,0.001134,6.7e-05,-0.001318,-0.000549,0.137342,0.211956,-0.96758,0.13777617519431876
-0.090572,0.089393,-0.20055,0.971383,0.007896,-0.002946,0.001203,0.000225,-0.000118,-0.00063,0.137341,0.211817,-0.967611,0.13777672775245417
-0.090522,0.089339,-0.200574,0.971388,0.003835,-0.004997,-0.004418,0.000286,0.000339,-0.000662,0.137252,0.211701,-0.967649,0.137687577461325
-0.090525,0.089292,-0.200641,0.971378,-0.003099,-0.002179,-0.005834,0.000509,0.000899,-0.001095,0.137146,0.211699,-0.967664,0.137580131280071
-0.09056,0.08929,-0.200711,0.97136,-0.00633,0.000898,-0.006564,0.000783,0.0006,-0.003376,0.137113,0.211776,-0.967652,0.13754598548665192
-0.090628,0.089326,-0.200782,0.971336,-0.006139,0.003399,-0.004952,0.001054,-0.000475,-0.0033,0.137138,0.21193,-0.967615,0.13757171291589373
-0.090697,0.089399,-0.200841,0.971311,-0.007204,0.004728,-0.004534,0.001168,1.7e-05,-0.001575,0.137236,0.2121,-0.967564,0.1376715922109476
-0.090789,0.089438,-0.200919,0.971282,-0.009028,0.003896,-0.006268,0.000286,0.001869,0.000158,0.137257,0.212304,-0.967516,0.13769123512021317
-0.090897,0.089457,-0.200978,0.971258,-0.012015,-0.002002,-0.004384,0.000522,0.002379,0.000911,0.137236,0.212526,-0.96747,0.1376695200610258
-0.091027,0.089504,-0.200995,0.971238,-0.012506,0.00191,-0.00301,0.001431,0.001395,-0.002109,0.137268,0.212797,-0.967406,0.13770219821232862
-0.091103,0.089546,-0.201071,0.971212,-0.002567,0.003648,-0.007933,0.001704,-0.001682,-0.000504,0.1373,0.21297,-0.967364,0.1377350378495622
-0.091076,0.08956,-0.201187,0.971189,0.008409,0.000984,-0.012879,0.001211,-0.000822,-9.2e-05,0.137314,0.212941,-0.967368,0.13774796264308226
-0.090983,0.089553,-0.201344,0.971166,0.014963,8.1e-05,-0.013495,0.000656,8e-05,-0.00046,0.137304,0.212781,-0.967405,0.13773901391995902
-0.090846,0.089547,-0.201494,0.971148,0.015965,0.003871,-0.012404,0.001556,0.000962,-0.002206,0.137318,0.212536,-0.967457,0.1377521753562096
-0.090674,0.089553,-0.201619,0.971138,0.018369,0.004611,-0.009898,-0.000123,0.000593,-6.8e-05,0.137374,0.212224,-0.967517,0.13780922414559008
-0.090454,0.089532,-0.201727,0.971138,0.018174,0.003344,-0.007746,1.2e-05,0.000896,0.000485,0.137402,0.211809,-0.967604,0.1378378824015485
-0.090235,0.089511,-0.201835,0.971138,0.017979,0.002077,-0.005595,0.000148,0.001199,0.001038,0.13743,0.211394,-0.967691,0.13786622918493874
-0.090059,0.089501,-0.201882,0.971145,0.012784,0.00331,-0.002148,0.001239,0.001424,-0.0008,0.137474,0.211059,-0.967758,0.1379110653795561
-0.089933,0.08949,-0.201916,0.971151,0.009678,0.002334,-0.004494,0.001742,0.000102,-0.000959,0.137499,0.210816,-0.967807,0.1379357674696467
-0.08988,0.089516,-0.201989,0.971138,0.004131,0.007107,-0.008057,0.002421,-0.001926,-0.003067,0.137554,0.210735,-0.967817,0.1379927620835054
-0.089855,0.089554,-0.202077,0.971118,0.00549,-0.00052,-0.009267,4.6e-05,-0.003644,0.001967,0.13762,0.210714,-0.967812,0.13805789078033262
-0.089798,0.089423,-0.20222,0.971106,0.011265,-0.017952,-0.015236,-0.001987,-0.003895,0.003634,0.137361,0.210573,-0.96788,0.13779618083794565
-0.089757,0.089241,-0.202357,0.971098,0.00808,-0.01803,-0.012393,1.2e-05,-0.000302,-0.000811,0.136998,0.210443,-0.967959,0.13742979530653746
-0.089728,0.089168,-0.202421,0.971094,-0.003316,0.001905,-0.005068,0.003287,0.003406,-0.008811,0.136856,0.210367,-0.967996,0.13728620068930608
-0.089813,0.08931,-0.202366,0.971085,-0.019852,0.010584,0.010715,-1.2e-05,0.004424,-0.005353,0.137104,0.210579,-0.967915,0.13753822732244778
-0.090031,0.089459,-0.202213,0.971083,-0.031524,0.005508,0.009871,-0.002116,0.002789,-0.002788,0.137334,0.211034,-0.967783,0.1377687513204868
-0.090341,0.089506,-0.202127,0.971067,-0.032301,-0.010501,0.000121,-0.002296,0.000591,0.003226,0.137312,0.211637,-0.967654,0.13774713069671857
-0.090696,0.089512,-0.202115,0.971036,-0.036913,-0.004679,-0.001998,0.000307,0.001689,0.001272,0.137176,0.212321,-0.967524,0.13761060841111
-0.091067,0.089571,-0.202105,0.970998,-0.032221,-0.004685,-0.005254,0.000123,0.001534,0.002201,0.137137,0.213057,-0.967368,0.13756985008194084
-0.091342,0.089497,-0.202139,0.970972,-0.014896,-0.014546,-0.00801,-0.00122,4.3e-05,0.003307,0.13687,0.213562,-0.967294,0.13730158998677464
-0.091457,0.089338,-0.202185,0.970966,-7e-06,-0.018203,-0.004996,-0.000539,0.001445,0.000659,0.136506,0.213729,-0.967309,0.13693338690751133
-0.091501,0.089152,-0.202187,0.970979,0.000735,-0.014259,0.00228,0.000264,0.005962,-0.003545,0.136128,0.213743,-0.967359,0.136552794475698
-0.091541,0.089091,-0.202089,0.971001,-0.001905,-0.00628,0.011298,0.00141,0.004971,-0.003454,0.136017,0.213781,-0.967366,0.1364389633621361
-0.091564,0.08907,-0.201967,0.971026,-0.000971,-0.008699,0.008816,-0.00294,0.0034,-0.0014,0.135993,0.2138,-0.967365,0.1364154619727024
-0.091557,0.088965,-0.201923,0.971046,0.006476,-0.004451,-0.00022,0.00028,0.001245,-0.00434,0.135804,0.21374,-0.967405,0.13622421543994978
-0.091492,0.088921,-0.201924,0.971056,0.009339,0.001674,0.004433,6.2e-05,0.001396,-0.003402,0.135745,0.213599,-0.967444,0.136166070381261
-0.091394,0.089061,-0.201883,0.97106,0.011407,0.016627,0.009222,5.8e-05,0.001893,-0.002627,0.136066,0.213458,-0.96743,0.1364887437903832
-0.091129,0.089056,-0.201854,0.971092,0.020883,0.010016,0.009947,0.000565,0.001545,-0.001535,0.136174,0.212942,-0.967529,0.13659803346820693
-0.090863,0.089051,-0.201825,0.971123,0.03036,0.003404,0.010671,0.001072,0.001196,-0.000444,0.136282,0.212425,-0.967627,0.13670752078447032
-0.090545,0.089058,-0.201758,0.971166,0.032445,0.009001,0.010335,0.00134,-0.001304,-0.001278,0.136445,0.211805,-0.96774,0.1368707943726946
-0.090186,0.089072,-0.201715,0.971207,0.032449,0.006535,0.005805,0.000991,-0.001104,-0.000793,0.136631,0.211113,-0.967865,0.13705967807670547
-0.0899,0.089068,-0.201724,0.971232,0.025404,0.004246,0.003189,0.00035,-0.00039,-0.00028,0.136741,0.210561,-0.96797,0.1371711710291715
-0.089713,0.089109,-0.201722,0.971246,0.012496,0.01257,0.002021,0.002552,0.000944,-0.00431,0.136899,0.210217,-0.968023,0.13733061011875505
-0.089627,0.089235,-0.201779,0.971231,0.003328,0.015919,-0.000942,0.002499,0.001403,-0.004161,0.137165,0.210108,-0.968008,0.13759970425785945
-0.089541,0.08936,-0.201836,0.971215,-0.005839,0.019269,-0.003905,0.002445,0.001862,-0.004012,0.137431,0.209999,-0.967994,0.1378666791161271
-0.089561,0.08952,-0.201903,0.971185,-0.009872,0.013151,-0.006525,0.001673,0.001797,2.7e-05,0.137716,0.210109,-0.96793,0.13815476129591361
-0.089663,0.089662,-0.201995,0.971143,-0.012055,0.012211,-0.008532,0.00279,0.00084,-0.000573,0.137926,0.210373,-0.967843,0.13836738909870108
-0.089745,0.089774,-0.202062,0.971111,-0.008519,0.000965,-0.008029,0.003231,0.000484,0.00287,0.138092,0.210584,-0.967773,0.13853563656345005
-0.089812,0.089791,-0.202132,0.971089,-0.003612,0.000557,-0.006553,0.003545,0.000786,-2.8e-05,0.138082,0.21073,-0.967743,0.13852495117962316
-0.089824,0.089752,-0.202169,0.971084,0.003697,-0.006207,-0.003936,0.002051,0.001423,0.001428,0.137994,0.210744,-0.967752,0.13843595863865274
-0.089795,0.089673,-0.202196,0.971088,0.006834,-0.004958,0.000542,0.001805,0.001555,0.000153,0.137848,0.210661,-0.967791,0.13828871443810276
-0.089713,0.089602,-0.202173,0.971107,0.011987,-0.008737,0.002015,0.002032,0.000545,-0.000189,0.137751,0.210471,-0.967846,0.1381905755253609
-0.089608,0.089503,-0.202157,0.971129,0.016464,-0.00904,0.004721,0.000976,9.9e-05,-0.001851,0.137607,0.21023,-0.967919,0.1380461831815606
-0.089463,0.089398,-0.202134,0.971157,0.017511,-0.00802,0.002772,0.000261,-0.000418,-0.001085,0.137472,0.209905,-0.968009,0.13790868646695975
-0.089318,0.08932,-0.202132,0.971178,0.017246,-0.005548,0.001898,-0.000298,0.000464,-0.000922,0.137384,0.209596,-0.968088,0.13781906318495057
-0.089189,0.089258,-0.202125,0.971197,0.011924,-0.003909,0.001674,-0.000102,0.000159,-0.000316,0.137319,0.209322,-0.968157,0.13775481873498624
-0.089086,0.089198,-0.202076,0.971222,0.010024,-0.006198,0.004488,-0.000322,-0.000807,-0.000109,0.137259,0.209095,-0.968215,0.13769251320673803
-0.089005,0.089115,-0.202024,0.971248,0.009019,-0.004945,0.003454,0.001609,-0.002284,-0.001976,0.137143,0.208898,-0.968273,0.1375768231192579
-0.088947,0.089074,-0.202034,0.971255,0.003951,0.001858,0.002979,0.002558,-0.001926,-0.002613,0.137087,0.208773,-0.968308,0.13751954265810265
-0.088889,0.089082,-0.20199,0.971269,0.005318,-0.002619,0.003632,-0.001301,-0.003777,0.001703,0.137136,0.208657,-0.968326,0.13756930518386368
-0.088801,0.088882,-0.202027,0.971287,0.014906,-0.022563,-0.004916,-0.003358,-0.004161,0.003971,0.136779,0.208416,-0.968429,0.13720958663845254
-0.088722,0.088647,-0.202055,0.97131,0.010848,-0.015353,-0.00224,0.00016,-0.001836,-0.003061,0.136354,0.208177,-0.96854,0.1367800873078675
-0.088631,0.088632,-0.202057,0.97132,0.003326,0.011309,0.001146,0.002877,-0.000107,-0.008499,0.136363,0.207995,-0.968578,0.13678922548853356
-0.08861,0.088815,-0.201996,0.971318,-0.011137,0.024288,0.0151,0.000829,0.002427,-0.005329,0.136737,0.208017,-0.96852,0.13716721069797094
-0.088666,0.089098,-0.201885,0.97131,-0.012023,0.022521,0.008663,-0.001135,-0.002091,-0.003257,0.137284,0.208219,-0.9684,0.13771780371636683
-0.088738,0.089249,-0.201857,0.971295,-0.010062,0.010548,-0.004671,-0.001213,-0.004296,0.000817,0.13755,0.208413,-0.96832,0.13798691268403737
-0.088806,0.089332,-0.201908,0.971271,-0.014825,0.008329,-0.006354,0.00039,0.000717,-0.000177,0.13767,0.208584,-0.968266,0.13810850572492142
-0.088957,0.08946,-0.201968,0.971233,-0.018574,0.003451,-0.002385,-0.000632,0.003399,0.00246,0.13784,0.208931,-0.968167,0.13828033928826522
-0.089126,0.0894,-0.20199,0.971218,-0.013876,-0.013753,-0.001231,-0.00237,0.003303,0.005509,0.137648,0.209237,-0.968129,0.13808708042040402
-0.089288,0.089279,-0.20195,0.971222,-0.012537,-0.015546,0.008257,-0.000524,0.003925,0.001733,0.137356,0.209497,-0.968114,0.1377916520313358
-0.089439,0.089173,-0.201815,0.971247,-0.011635,-0.013381,0.014153,7.9e-05,0.003166,-0.001348,0.137118,0.209727,-0.968098,0.13755109515897165
-0.089597,0.089118,-0.201633,0.971275,-0.00996,-0.012148,0.017234,-0.000689,0.002749,-0.001109,0.136984,0.209985,-0.968061,0.13741682135156968
-0.089792,0.089074,-0.201447,0.971299,-0.014967,-0.009878,0.013562,-0.001069,-0.000271,-0.001842,0.136859,0.210318,-0.968006,0.13728918839713608
-0.089972,0.088973,-0.201351,0.971312,-0.012261,-0.006662,-0.000234,0.001511,-0.000219,-0.003596,0.13661,0.210611,-0.967978,0.1370376908943038
-0.090117,0.088959,-0.201364,0.971297,-0.009455,0.000599,-0.003865,0.000702,-0.000626,-0.003471,0.136519,0.210887,-0.96793,0.1369462337183781
-0.090247,0.089086,-0.20139,0.971268,-0.012735,0.013191,-0.001516,0.000665,0.000629,-0.002054,0.136704,0.21119,-0.967838,0.1371324747326094
-0.09029,0.089151,-0.201437,0.971248,-0.002248,0.002707,-0.006707,-0.001665,-0.000636,0.000492,0.1368,0.211305,-0.967799,0.1372302856287277
-0.090309,0.089155,-0.20149,0.971235,-0.000581,0.001812,-0.001272,0.000186,0.001511,-0.000755,0.136788,0.211351,-0.967791,0.13721839847762576
-0.090284,0.089193,-0.201472,0.971238,0.000578,0.005236,0.004187,0.000343,0.000401,-0.002084,0.136876,0.211314,-0.967787,0.13730690468568352
-0.090185,0.089227,-0.201421,0.971254,0.009461,0.000563,0.002827,-0.000109,-0.000292,-0.000209,0.136994,0.211129,-0.967811,0.13742601648645517
-0.090059,0.089154,-0.20141,0.971275,0.013126,-0.0022,0.003525,0.000948,7.4e-05,-0.001349,0.136909,0.210857,-0.967882,0.13733988571876363
-0.089955,0.089132,-0.20136,0.971297,0.008607,-0.00218,0.005683,0.000588,-6.9e-05,-0.002286,0.136921,0.210641,-0.967927,0.13735207499490193
-0.089886,0.08913,-0.201334,0.971309,0.003188,0.000149,0.000888,0.000578,-0.001637,-0.002018,0.136952,0.210504,-0.967953,0.13738308277526046
-0.089887,0.089151,-0.201324,0.971309,-0.001688,0.003928,-0.001279,0.001275,-0.001877,-0.001361,0.136993,0.210513,-0.967945,0.13742567425587815
-0.089911,0.089178,-0.201319,0.971305,-0.005839,0.001033,-0.003119,0.000808,-0.001228,0.000139,0.137037,0.21057,-0.967926,0.1374690562123127
-0.090007,0.089207,-0.201363,0.971285,-0.011219,-0.000519,-0.006207,0.001506,-0.000806,0.000257,0.137042,0.21077,-0.967882,0.1374753087474068
-0.090132,0.089227,-0.201397,0.971264,-0.014021,0.000349,-0.006466,0.002169,0.000177,-0.000637,0.137021,0.211024,-0.96783,0.1374537394157296
-0.090244,0.089246,-0.201467,0.971237,-0.010107,0.002015,-0.006839,0.00178,-0.001306,-0.000923,0.136996,0.211257,-0.967782,0.13742783681088805
-0.090336,0.089259,-0.201564,0.971208,-0.006077,0.001609,-0.008399,0.001814,-0.000829,-7.7e-05,0.136961,0.211454,-0.967744,0.13739298835858513
-0.090399,0.089249,-0.20167,0.971181,-0.005354,-0.004335,-0.008684,0.00139,0.001966,-0.000489,0.136892,0.211585,-0.967725,0.13732352887400454
-0.090499,0.08925,-0.201737,0.971157,-0.009975,-0.001585,-0.004939,0.000851,0.003479,-0.001194,0.136838,0.211787,-0.967689,0.13726820576395615
-0.090602,0.08924,-0.201779,0.97114,-0.011133,-0.000818,-0.005644,0.000933,0.002367,-0.001778,0.136767,0.211987,-0.967655,0.13719590029044343
-0.090702,0.089268,-0.201814,0.971121,-0.008315,-0.003647,-0.005223,0.00029,0.000736,-0.000553,0.136771,0.212196,-0.967609,0.13720022767040202
-0.090761,0.089257,-0.201822,0.971115,-0.005547,-0.001145,-0.001109,0.000759,0.001514,-0.001581,0.136722,0.212306,-0.967591,0.13715207333925228
-0.090858,0.089234,-0.201819,0.971108,-0.004633,-0.004411,0.000378,0.001024,0.001209,0.000562,0.136639,0.212484,-0.967564,0.13706674365297114
-0.090943,0.089261,-0.201788,0.971104,-0.005803,9.6e-05,0.003243,0.001474,0.001497,-0.000189,0.136662,0.212654,-0.967523,0.1370900169490242
-0.091028,0.089262,-0.201747,0.971105,-0.006927,-0.001283,0.00318,0.000453,0.00046,-5.8e-05,0.136636,0.212813,-0.967492,0.1370650639472907
-0.091126,0.089228,-0.201716,0.971105,-0.0055,-0.005327,0.002642,0.000549,-0.000501,0.000562,0.136537,0.212983,-0.967469,0.13696419084176928
-0.091215,0.08921,-0.201675,0.971107,-0.006042,-0.006238,0.000368,0.000976,-0.002444,-0.000561,0.136474,0.213142,-0.967443,0.1369005665220702
-0.091327,0.089168,-0.201696,0.971096,-0.008965,-0.002558,-0.001922,0.00259,-0.004037,-0.003059,0.13634,0.213344,-0.967417,0.13676677029342516
-0.091444,0.089169,-0.20167,0.97109,-0.011417,-0.005994,0.006133,0.001255,-0.005945,-0.000135,0.136298,0.213567,-0.967374,0.13672480896634648
-0.091574,0.089108,-0.201561,0.971106,-0.009286,-0.019166,0.010606,0.000162,-0.011374,0.003816,0.136152,0.213777,-0.967348,0.1365753228495974
-0.091685,0.088942,-0.201387,0.971147,-0.006839,-0.011572,0.015566,0.006059,-0.024235,-0.002256,0.135823,0.213903,-0.967366,0.13624429367569105
-0.091621,0.089031,-0.201264,0.97117,0.002309,0.027614,0.005762,0.012201,-0.037197,-0.013237,0.136049,0.213797,-0.967358,0.13647168025294998
-0.091423,0.089354,-0.201324,0.971147,0.010906,0.036472,-0.003003,0.007723,-0.040533,-0.008249,0.136741,0.213549,-0.967315,0.13717020356159712
-0.091252,0.089633,-0.201366,0.971129,-0.003091,0.01711,0.005658,0.002772,-0.037284,0.001307,0.13734,0.213333,-0.967278,0.1377757777622101
-0.091229,0.089657,-0.201228,0.971157,-0.023858,-0.016879,0.015948,0.003282,-0.040043,0.006626,0.137426,0.213278,-0.967278,0.13786267878582448
-0.09143,0.089582,-0.200943,0.971204,-0.056052,-0.018364,0.016566,0.01148,-0.050186,-0.001384,0.13726,0.213595,-0.967231,0.13769505893762543
-0.091835,0.089518,-0.200939,0.971173,-0.06908,-0.022706,-0.039666,0.013677,-0.064902,-0.003717,0.136968,0.214351,-0.967106,0.13740038240268546
-0.092414,0.089292,-0.201426,0.971038,-0.079918,-0.037025,-0.075507,0.012233,-0.062933,-0.005541,0.136183,0.215446,-0.966973,0.1366071720923025
-0.093138,0.08907,-0.202079,0.970853,-0.087727,-0.03051,-0.072569,0.011528,-0.052499,-0.011054,0.135305,0.216844,-0.966784,0.13572157508198854
-0.093759,0.088855,-0.202631,0.970698,-0.077255,-0.031828,-0.066615,0.0049,-0.041624,-0.011587,0.134506,0.218032,-0.966628,0.1349146950426986
-0.094219,0.08867,-0.202928,0.970608,-0.092639,-0.028768,-0.0394,0.002808,-0.027369,-0.007223,0.133888,0.218887,-0.966521,0.13429155304093152
-0.09468,0.088485,-0.203225,0.970518,-0.108023,-0.025709,-0.012185,0.000716,-0.013113,-0.002861,0.13327,0.219741,-0.966412,0.1336675691892471
-0.095484,0.088425,-0.20302,0.970488,-0.132004,-0.031782,0.035768,-0.000786,-0.008653,0.004213,0.132861,0.221235,-0.966128,0.13325449077905752
-0.096408,0.088464,-0.202342,0.970535,-0.113674,-0.022386,0.062018,0.002748,-0.022625,0.005167,0.1327,0.222935,-0.965759,0.1330926194572764
-0.096975,0.088513,-0.201486,0.970652,-0.058244,-0.012607,0.093889,-0.000397,-0.020641,0.006986,0.132752,0.223926,-0.965523,0.13314547694543197
-0.097093,0.08855,-0.200387,0.970864,-0.008134,-0.015971,0.11762,-0.002231,-0.017694,0.013225,0.133028,0.224016,-0.965464,0.13342317305858645
-0.096937,0.08851,-0.19924,0.971119,0.005191,-0.005132,0.110753,-0.001608,-0.018775,0.008823,0.13328,0.223545,-0.965538,0.1336778056678316
-0.09672,0.088517,-0.198256,0.971342,-0.003333,-0.011356,0.084391,-0.001792,-0.021052,0.014583,0.13361,0.222994,-0.96562,0.13401067212047751
-0.096672,0.088498,-0.197591,0.971484,-0.020401,-0.005106,0.0472,-0.001166,-0.021407,0.012828,0.133745,0.222804,-0.965645,0.1341477310178905
-0.096816,0.088482,-0.19713,0.971564,-0.029361,-0.013429,0.049445,-0.00486,-0.013453,0.015832,0.13376,0.223012,-0.965595,0.13416329867493437
-0.097062,0.088396,-0.196451,0.971685,-0.038555,-0.034466,0.070034,-0.00477,-0.009996,0.012297,0.13365,0.223358,-0.96553,0.1340513989964586
-0.097423,0.088226,-0.195702,0.971816,-0.055299,-0.030496,0.064192,-0.000346,-0.012549,-0.003907,0.133346,0.223886,-0.96545,0.13374550528085363
-0.097944,0.088138,-0.195076,0.971897,-0.071018,-0.024634,0.039521,0.002413,-0.014822,-0.007184,0.133109,0.224771,-0.965277,0.13350530715454328
-0.098659,0.088083,-0.194749,0.971895,-0.090421,-0.010633,0.012543,0.005917,-0.014806,-0.005209,0.132788,0.22608,-0.965016,0.13318072917336113
-0.099376,0.088082,-0.194868,0.971798,-0.078414,-0.01633,-0.005374,0.003227,-0.014209,-0.000112,0.132465,0.227476,-0.964732,0.13285590646884626
-0.100094,0.088081,-0.194988,0.971701,-0.066407,-0.022027,-0.023292,0.000537,-0.013612,0.004983,0.132142,0.228871,-0.964446,0.1325301585613137
-0.100811,0.08808,-0.195107,0.971603,-0.0544,-0.027725,-0.04121,-0.002152,-0.013014,0.010077,0.131819,0.230266,-0.964158,0.1322044968538565
-0.101328,0.087875,-0.195336,0.971522,-0.054538,-0.042908,-0.025837,-0.001494,0.000368,0.007008,0.131159,0.231214,-0.964022,0.13153796791696543
-0.101903,0.087616,-0.195338,0.971485,-0.064335,-0.04074,0.003949,-0.002472,0.008162,0.003243,0.130424,0.232223,-0.963879,0.13079682540774468
-0.102492,0.087353,-0.195058,0.971503,-0.07041,-0.041152,0.029971,-0.001346,0.006685,0.004625,0.129744,0.233221,-0.963729,0.13011042398620384
-0.103156,0.087152,-0.194738,0.971515,-0.065605,-0.038202,0.011274,0.000426,-0.002996,0.010579,0.129163,0.234378,-0.963527,0.12952401998125576
-0.103819,0.086951,-0.194418,0.971526,-0.0608,-0.035253,-0.007423,0.002197,-0.012676,0.016531,0.128583,0.235535,-0.963322,0.12893872480163227
-0.104445,0.0868,-0.194521,0.971452,-0.04554,-0.023123,-0.03646,0.003052,-0.014364,0.022242,0.12801,0.236695,-0.963114,0.12836279096028122
-0.104926,0.086497,-0.194914,0.971348,-0.02945,-0.044072,-0.054553,-0.001119,0.001025,0.026923,0.127135,0.237559,-0.963017,0.12747927966070122
-0.10544,0.086119,-0.195213,0.971266,-0.052165,-0.049271,-0.016437,-0.001596,0.01883,0.015297,0.126122,0.238443,-0.962932,0.12645918073947382
-0.1061,0.085851,-0.195086,0.971243,-0.078936,-0.036314,0.017589,-4.7e-05,0.021986,-0.000822,0.125367,0.239595,-0.962745,0.12569785833864547
-0.106879,0.085793,-0.194787,0.971223,-0.085771,-0.027599,0.017193,-0.001996,0.019327,0.001888,0.125011,0.24103,-0.962433,0.12533890818766083
-0.107836,0.085775,-0.194515,0.971174,-0.106702,-0.025328,0.012096,-0.000973,0.022911,0.015498,0.124653,0.242824,-0.962028,0.1249785599812648
-0.109176,0.085853,-0.194284,0.971063,-0.140564,-0.022785,0.009395,-0.001221,0.025633,0.025631,0.124314,0.245394,-0.96142,0.12463748988431585
-0.110781,0.085876,-0.193927,0.970951,-0.154646,-0.03438,0.023987,-0.003271,0.028626,0.026335,0.123797,0.248433,-0.960706,0.1241143272629026
-0.112278,0.085688,-0.193542,0.970872,-0.14386,-0.038586,0.028892,-0.000483,0.034257,0.010599,0.122923,0.251183,-0.960103,0.12323483001391627
-0.113774,0.085499,-0.193157,0.970791,-0.133073,-0.042792,0.033796,0.002302,0.039889,-0.005145,0.122051,0.253931,-0.959491,0.12235589960563492
-0.115335,0.0854,-0.192568,0.970733,-0.15268,-0.038586,0.050028,-0.00204,0.043577,-0.002358,0.121382,0.256809,-0.958809,0.12168159153302256
-0.117103,0.085291,-0.191828,0.970677,-0.164044,-0.067821,0.058939,-0.008192,0.040245,0.014938,0.120653,0.260061,-0.958025,0.12094741523229967
-0.118939,0.084881,-0.191102,0.970633,-0.1611,-0.103278,0.044821,-0.009794,0.03831,0.017377,0.119317,0.263334,-0.957298,0.1196025819666366
-0.120868,0.084366,-0.190474,0.970563,-0.175425,-0.077018,0.035027,0.000487,0.044034,-0.009817,0.11772,0.26676,-0.956546,0.1179942211516634
-0.122892,0.08419,-0.1899,0.970437,-0.185214,-0.047642,0.039832,-0.005319,0.053744,-0.019532,0.116728,0.270493,-0.955619,0.11699451582364469
-0.124931,0.084161,-0.1893,0.970296,-0.177322,-0.054486,0.043368,-0.014124,0.062455,-0.012481,0.116024,0.274303,-0.954619,0.11628518233951027
-0.126845,0.084038,-0.188587,0.970197,-0.168685,-0.049757,0.063784,-0.013744,0.068153,-0.014646,0.115225,0.277827,-0.953696,0.11548069491745584
-0.128583,0.084022,-0.187714,0.970139,-0.151254,-0.036221,0.076955,-0.012034,0.066871,-0.011669,0.114753,0.281032,-0.952813,0.11500572904177592
-0.130126,0.084147,-0.186812,0.970097,-0.133198,-0.019898,0.071239,-0.010111,0.057319,-0.01023,0.114644,0.283908,-0.951973,0.11489593273477
-0.131565,0.084286,-0.186403,0.969969,-0.133318,-0.013472,0.025973,-0.009225,0.049186,-0.011089,0.114462,0.28665,-0.951173,0.1147128122755212
-0.133003,0.084425,-0.185994,0.969839,-0.133437,-0.007047,-0.019293,-0.008341,0.041055,-0.011956,0.114281,0.289389,-0.950365,0.1145320282858818
-0.134543,0.084503,-0.186205,0.96958,-0.132781,-0.007835,-0.057704,-0.010547,0.040939,-0.012639,0.11376,0.29237,-0.949515,0.11400648454175388
-0.136152,0.084663,-0.186756,0.969235,-0.141934,0.002771,-0.074454,-0.01055,0.044573,-0.013434,0.113263,0.29555,-0.94859,0.11350584974043873
-0.137857,0.084832,-0.187326,0.968869,-0.154842,-0.001277,-0.06687,-0.01163,0.049196,-0.009694,0.112734,0.298913,-0.947598,0.11297395251067438
-0.139561,0.085001,-0.187895,0.9685,-0.167751,-0.005326,-0.059287,-0.012706,0.053824,-0.005965,0.112201,0.302271,-0.946595,0.11243807211434262
-0.14144,0.085292,-0.188236,0.968136,-0.184503,0.014735,-0.038326,-0.009258,0.049862,-0.008997,0.111901,0.305976,-0.94544,0.11213516749884067
-0.143344,0.085768,-0.188481,0.967766,-0.180954,0.027009,-0.035613,-0.006827,0.042851,-0.012371,0.111971,0.309778,-0.944193,0.11220677341522235
-0.145192,0.086351,-0.188824,0.967372,-0.171253,0.041419,-0.045858,-0.003921,0.037061,-0.011564,0.112235,0.313519,-0.942926,0.11247259207561075
-0.146959,0.086986,-0.18934,0.966947,-0.165537,0.052651,-0.071602,-0.000492,0.029215,-0.007437,0.112572,0.317144,-0.941673,0.11281039146543878
-0.148671,0.087655,-0.190162,0.966464,-0.15715,0.05637,-0.107651,0.002377,0.024984,-0.004418,0.112888,0.320707,-0.940427,0.1131288062040116
-0.150317,0.088273,-0.191294,0.965929,-0.159071,0.054138,-0.127372,0.004308,0.027447,-0.004213,0.113021,0.324163,-0.939225,0.11326343420415126
-0.152014,0.088969,-0.192482,0.965363,-0.163898,0.062843,-0.125706,0.00739,0.023259,-0.000851,0.113255,0.327748,-0.937952,0.11349836579736619
-0.153551,0.089662,-0.193652,0.964822,-0.132508,0.056266,-0.117746,0.008169,0.013896,0.001974,0.113545,0.331025,-0.936766,0.11379022830280942
-0.154634,0.090239,-0.194884,0.964347,-0.072061,0.052654,-0.131205,0.008122,0.007868,0.001186,0.113772,0.333413,-0.935891,0.11401891937781647
-0.155225,0.090649,-0.196195,0.963948,-0.030872,0.052839,-0.13133,0.007128,0.012923,0.005358,0.113853,0.334827,-0.935376,0.11410052342140987
-0.155499,0.090954,-0.197448,0.963619,0.000553,0.032148,-0.111922,0.003513,0.019138,0.012547,0.113884,0.3356,-0.935095,0.11413169133714532
-0.155507,0.091043,-0.198373,0.963419,0.015476,0.015791,-0.071219,0.002964,0.025533,0.008089,0.113728,0.335758,-0.935057,0.11397493273540582
-0.155328,0.091152,-0.198833,0.963343,0.025797,0.00967,-0.021838,0.001269,0.023047,0.003782,0.113853,0.335517,-0.935129,0.11410003129139472
-0.155081,0.091185,-0.198906,0.963365,0.036002,-0.005616,0.010833,-0.001879,0.016087,0.006469,0.113997,0.335073,-0.93527,0.11424414399936716
-0.154879,0.091082,-0.198679,0.963454,0.03404,-0.014447,0.033043,-0.000813,0.008279,0.003341,0.113965,0.33463,-0.935433,0.11421236942182511
-0.154731,0.090949,-0.198322,0.963564,0.030057,-0.019777,0.033381,1e-05,-0.000448,-0.000183,0.113897,0.334261,-0.935573,0.11414494735017121
-0.154631,0.09078,-0.198095,0.963642,0.023985,-0.021491,0.015334,-0.001174,-0.007606,-0.003101,0.113696,0.333983,-0.935697,0.11394197276712528
-0.154626,0.090555,-0.198041,0.963676,0.009449,-0.01633,-0.005147,-0.002239,-0.009515,-0.004409,0.113286,0.333885,-0.935782,0.11353051372657877
-0.154709,0.090346,-0.198155,0.963658,0.005522,-0.026262,-0.017985,-0.00338,-0.010213,7e-05,0.112813,0.333978,-0.935806,0.1130532365769611
-0.154745,0.090071,-0.19837,0.963634,0.00574,-0.023161,-0.026388,-0.002464,-0.008487,-0.002116,0.112198,0.33397,-0.935882,0.1124341633513025
-0.15468,0.089783,-0.198567,0.963631,0.012532,-0.020185,-0.025146,-0.002172,-0.007567,-0.002068,0.111607,0.333765,-0.936026,0.11183968184552673
-0.154535,0.089522,-0.19881,0.963628,0.014172,-0.011623,-0.01978,-0.001009,-0.004885,-0.003652,0.111086,0.333424,-0.936209,0.11131534928013084
-0.15436,0.089392,-0.198945,0.963641,0.012681,-0.003452,-0.004974,-0.000412,-0.003273,-0.003998,0.110865,0.333063,-0.936364,0.11109366719426321
-0.154066,0.089354,-0.199027,0.963674,0.029061,0.000351,-0.008757,0.000341,-0.004904,-0.003536,0.110891,0.332506,-0.936559,0.11111819189553457
-0.153771,0.089317,-0.199109,0.963708,0.04544,0.004155,-0.01254,0.001094,-0.006534,-0.003076,0.110917,0.331948,-0.936754,0.1111453284610733
-0.153298,0.089327,-0.199316,0.963739,0.036918,0.029587,-0.009837,0.005952,-0.002725,-0.00796,0.111066,0.331088,-0.937041,0.11129596335644606
-0.15288,0.089525,-0.199456,0.963758,0.035701,0.018764,-0.006142,-0.00158,-0.003656,0.004107,0.111575,0.330391,-0.937226,0.11180801034650624
-0.152451,0.089496,-0.199595,0.9638,0.041896,-0.000627,-0.009043,-0.001803,-0.003738,0.008522,0.111656,0.32959,-0.937498,0.11188888727761358
-0.151993,0.089367,-0.199693,0.963864,0.036954,0.0125,-0.005456,0.003575,-0.003282,-0.002833,0.111572,0.328693,-0.937823,0.11180417493700381
-0.151535,0.089238,-0.19979,0.963928,0.032011,0.025627,-0.001869,0.008953,-0.002825,-0.014188,0.111488,0.327796,-0.938147,0.1117199158044202
-0.151234,0.089508,-0.199827,0.963943,0.010962,0.036181,0.005405,0.003356,7.9e-05,-0.0105,0.11212,0.327334,-0.938233,0.1123561937109038
-0.151193,0.089805,-0.199775,0.963932,-0.00809,0.021268,0.011064,-0.000766,0.000502,-0.002399,0.112722,0.327362,-0.938151,0.11296275525578901
-0.151217,0.089926,-0.199733,0.963926,-0.00456,0.005304,0.001758,-0.001823,-0.001084,0.0021,0.112958,0.327446,-0.938094,0.1131995732407383
-0.151194,0.089928,-0.199726,0.963931,-0.001105,-2.6e-05,-0.000733,-0.000521,0.000988,0.003689,0.112974,0.327403,-0.938107,0.11321573611968225
-0.151223,0.08993,-0.199768,0.963917,-0.004635,-0.000852,-0.005253,0.000502,0.001741,0.0002,0.112951,0.327463,-0.938089,0.11319263912550172
-0.151281,0.089965,-0.19985,0.963888,-0.006874,0.004151,-0.006656,0.001485,0.003384,-0.002138,0.112966,0.327596,-0.93804,0.11320700411317085
-0.15136,0.089975,-0.199955,0.963853,-0.006834,0.00383,-0.012401,-9.1e-05,0.00489,-0.004618,0.112916,0.32776,-0.937989,0.11315629729033974
-0.151454,0.090025,-0.200125,0.963798,-0.008842,0.000938,-0.017082,-0.00117,0.007783,-0.005359,0.112912,0.327975,-0.937914,0.11315367718424378
-0.151588,0.090094,-0.200275,0.96374,-0.01737,0.020637,-0.019142,0.001462,0.009751,-0.009636,0.112935,0.328269,-0.937809,0.11317727142199449
-0.151752,0.090238,-0.200421,0.96367,-0.015065,-0.003798,-0.009638,-0.006194,0.012262,0.002243,0.11309,0.328649,-0.937657,0.11333319234891859
-0.151915,0.090162,-0.200441,0.963647,-0.003087,-0.017114,-0.00333,-0.005244,0.010181,-1.3e-05,0.112869,0.328929,-0.937585,0.11310972239826915
-0.151979,0.090122,-0.200442,0.963641,0.000878,0.005616,0.008182,0.001448,0.008197,-0.002197,0.112764,0.329035,-0.937561,0.11300491968945231
-0.151951,0.090221,-0.200323,0.963661,0.007186,0.0152,0.01778,0.001941,0.002186,0.000937,0.113006,0.329005,-0.937542,0.11324827405727844
-0.151727,0.09024,-0.200298,0.963699,0.02489,0.007937,0.006782,-0.000181,-0.000989,0.003568,0.113148,0.328589,-0.937671,0.11338999140836954
-0.151503,0.09026,-0.200272,0.963738,0.042593,0.000673,-0.004217,-0.002303,-0.004164,0.0062,0.113291,0.328172,-0.9378,0.11353411803063337
-0.151154,0.090181,-0.200393,0.963775,0.039614,-0.000952,-0.009523,0.000749,-0.003543,0.003753,0.113249,0.3275,-0.93804,0.11349145685574388
-0.150898,0.090127,-0.200535,0.963791,0.023045,0.006457,-0.011082,0.001706,-0.001772,-0.000716,0.113206,0.327015,-0.938214,0.11344973107008302
-0.150745,0.090146,-0.200677,0.963783,0.012415,0.006788,-0.009056,0.001093,-0.002962,0.000119,0.11326,0.326751,-0.938299,0.11350381275291191
-0.150601,0.090162,-0.200804,0.963778,0.018078,0.003118,-0.010753,-0.000823,-0.004961,0.002371,0.113309,0.326502,-0.93838,0.11355361511189652
-0.150402,0.090131,-0.20093,0.963786,0.017806,0.004072,-0.010202,-0.000865,-0.003046,0.000428,0.113292,0.326131,-0.938511,0.11353721606053506
-0.150283,0.090111,-0.201052,0.963781,0.004363,0.006325,-0.007676,-0.000204,0.000663,-0.002284,0.113265,0.325914,-0.93859,0.11350873245481839
-0.150363,0.090172,-0.201131,0.963746,-0.014166,0.001342,-0.00368,-0.001258,0.002317,0.001016,0.113321,0.326096,-0.93852,0.1135644346534816
-0.150502,0.090205,-0.201186,0.96371,-0.022442,0.004499,-0.006226,-0.000631,0.000551,-0.002189,0.113306,0.326377,-0.938424,0.11354897794039956
-0.150699,0.090263,-0.201217,0.963667,-0.021968,0.002009,-0.003924,-0.000111,9.7e-05,-0.000386,0.11332,0.326772,-0.938285,0.11356449500020602
-0.150917,0.090341,-0.20126,0.963617,-0.024023,0.003489,-0.007404,-0.00038,-0.001064,-6.9e-05,0.113361,0.327216,-0.938125,0.11360534671993824
-0.151138,0.090335,-0.201336,0.963567,-0.016445,-0.006111,-0.013238,-0.000333,-0.000698,0.000551,0.113228,0.327639,-0.937994,0.11347196110430435
-0.151377,0.090309,-0.201479,0.963502,-0.019546,-0.000282,-0.014149,0.000651,0.000851,-0.00216,0.113027,0.328094,-0.937859,0.11326928190693805
-0.151593,0.090295,-0.201604,0.963443,-0.021719,-0.004763,-0.015443,0.000964,0.000464,0.000325,0.112864,0.32851,-0.937733,0.11310566489942558
-0.151771,0.090309,-0.201824,0.963367,-0.015129,-0.001493,-0.020423,0.000691,-0.000793,-6.2e-05,0.11274,0.328876,-0.937619,0.11297955919981394
-0.151949,0.090324,-0.202043,0.963292,-0.008539,0.001777,-0.025402,0.000419,-0.00205,-0.00045,0.112616,0.329242,-0.937506,0.11285571994262888
-0.151985,0.09035,-0.202303,0.963229,0.00139,0.007877,-0.026329,0.001991,-0.002197,0.000312,0.112561,0.32935,-0.937475,0.11280049660176328
-0.151925,0.090363,-0.202557,0.963184,0.009062,0.00324,-0.021777,0.001586,-0.001391,0.00088,0.112526,0.32927,-0.937507,0.11276427623069026
-0.151793,0.090367,-0.202782,0.963157,0.014344,0.00721,-0.014797,0.000736,0.002651,0.002997,0.112512,0.329051,-0.937585,0.11275219335063924
-0.151648,0.090312,-0.202906,0.963159,0.014523,-0.007759,-0.009461,0.001267,0.002484,0.002904,0.112429,0.328772,-0.937693,0.11266726654228616
-0.151509,0.090327,-0.202949,0.963171,0.003489,0.005682,0.005342,0.003731,0.004112,-0.002695,0.112503,0.328521,-0.937772,0.11274218255575999
-0.151451,0.090328,-0.20291,0.963188,0.012849,-0.003194,0.002947,-0.000936,-0.001893,0.003574,0.112543,0.328408,-0.937807,0.1127827932283367
-0.151324,0.090114,-0.202891,0.963232,0.019113,-0.031932,0.00348,-0.003066,0.001279,0.005337,0.112196,0.328087,-0.937961,0.11243355631847864
-0.151213,0.089832,-0.202778,0.963299,0.02074,-0.021989,0.007654,0.0004,-8.6e-05,-0.004907,0.111745,0.327758,-0.93813,0.1119786864431508
-0.151094,0.089902,-0.202732,0.963321,0.008522,0.002992,0.010037,0.001812,0.001427,-0.006333,0.111947,0.327556,-0.938177,0.11218093478435473
-0.150975,0.089972,-0.202686,0.963343,-0.003696,0.027974,0.01242,0.003224,0.002941,-0.007759,0.112148,0.327353,-0.938223,0.11238317189780457
-0.150994,0.090207,-0.202631,0.96333,-0.004703,0.014288,0.00432,-0.004058,0.002585,-0.0014,0.112606,0.327472,-0.938127,0.11284543309934157
-0.150974,0.090196,-0.202672,0.963325,0.004236,-0.004413,-0.010127,-0.006127,0.002847,0.000599,0.11258,0.327435,-0.938143,0.11281889449773153
-0.150951,0.090068,-0.202678,0.963339,-0.002979,-0.014311,0.003362,-0.004116,0.010153,0.001492,0.112344,0.327344,-0.938203,0.11258080629119979
-0.150951,0.090039,-0.202538,0.963372,0.002128,-0.008307,0.006924,-0.002537,0.006255,0.001362,0.112335,0.327316,-0.938214,0.11257309265514977
-0.150951,0.09001,-0.202397,0.963404,0.007235,-0.002303,0.010487,-0.000959,0.002356,0.001232,0.112327,0.327288,-0.938224,0.11256549783172538
-0.150875,0.089962,-0.202315,0.963438,0.01238,-0.001632,0.005722,-0.001376,0.000132,0.001793,0.112297,0.327118,-0.938287,0.11253443980156395
-0.150819,0.089873,-0.202321,0.963453,0.01682,-0.011472,-0.004684,-0.001811,-0.001314,0.001873,0.112148,0.326981,-0.938353,0.11238555296672659
-0.150719,0.089776,-0.202408,0.96346,0.013106,0.004784,-0.008939,0.002401,0.000179,-0.004138,0.111977,0.326767,-0.938448,0.11221305247176586
-0.150663,0.089737,-0.202537,0.963445,0.013268,-0.00187,-0.010194,0.00034,2.5e-05,-0.000585,0.111884,0.326662,-0.938496,0.11211841441978111
-0.150563,0.089647,-0.202642,0.963447,0.016576,-0.013926,-0.009313,-0.003196,0.000461,-0.001204,0.11172,0.326452,-0.938588,0.11195320631372836
-0.150412,0.089589,-0.20278,0.963447,0.011019,0.010336,-0.007775,0.004352,0.00226,-0.008017,0.111627,0.326161,-0.9387,0.11186055107117618
-0.150301,0.089723,-0.202789,0.96345,0.003658,0.023359,0.00792,0.003234,0.003208,-0.005654,0.111928,0.326005,-0.938719,0.1121635034877209
-0.15026,0.089973,-0.202745,0.963442,0.004143,0.018273,0.009351,-0.00042,-0.001199,0.001035,0.112439,0.326017,-0.938653,0.11267688119876379
-0.150165,0.090055,-0.202762,0.963446,0.009522,0.004443,-0.004824,-0.001129,-0.003606,0.005014,0.112631,0.325871,-0.938681,0.11287025038722374
-0.150069,0.090092,-0.202836,0.963442,0.004035,0.005985,-0.006555,0.001586,-0.002944,0.00164,0.112718,0.325713,-0.938726,0.11295810420347872
-0.150033,0.090172,-0.202915,0.963423,0.004463,0.008353,-0.009156,0.000434,-0.001723,0.001533,0.11286,0.325685,-0.938718,0.1131006368696044
-0.150007,0.090194,-0.203076,0.963391,-0.00165,0.004342,-0.013891,-0.000229,-0.000758,0.000787,0.112858,0.325663,-0.938726,0.1130994971096808
-0.150063,0.090264,-0.203228,0.963344,-0.011239,0.01189,-0.01133,0.000255,0.000451,-0.000501,0.112916,0.325814,-0.938667,0.11315789667308929
-0.150128,0.09031,-0.203327,0.963309,-0.009702,0.005513,-0.009004,-0.000724,0.002228,-0.002129,0.112943,0.325965,-0.938611,0.11318422606655207
-0.150205,0.090372,-0.203437,0.963268,-0.005894,0.00609,-0.00577,-0.000374,0.002931,-0.004127,0.112991,0.326146,-0.938543,0.11323221561169873
-0.150246,0.090434,-0.2035,0.963242,-0.008761,0.003411,-0.002054,0.000439,0.005326,-0.004363,0.11307,0.326254,-0.938495,0.11331185581363622
-0.150343,0.090517,-0.203503,0.963219,-0.009911,0.008505,0.002936,0.001158,0.0054,-0.003049,0.113184,0.326468,-0.938407,0.11342795443939041
-0.15039,0.090593,-0.203468,0.963212,0.000683,0.001656,0.001821,-0.00029,0.00205,-0.000486,0.113322,0.32658,-0.938352,0.11356537760154416
-0.150303,0.090652,-0.203487,0.963215,0.012031,0.006533,-0.003238,0.000778,-3.9e-05,8.3e-05,0.113465,0.326442,-0.938382,0.11371020656968549
-0.1501,0.090645,-0.203551,0.963234,0.025365,0.008246,-0.006992,0.000188,0.000608,0.000616,0.113518,0.326064,-0.938507,0.11376391601323675
-0.149807,0.090645,-0.203659,0.963257,0.037806,0.009962,-0.003315,0.000563,0.00053,0.003241,0.11361,0.325526,-0.938683,0.11385560140150536
-0.149377,0.090625,-0.203654,0.963327,0.03895,0.004413,0.006488,0.000315,0.001644,0.004287,0.11376,0.324709,-0.938948,0.11400738315935875
-0.148947,0.090604,-0.203648,0.963397,0.040093,-0.001136,0.01629,6.6e-05,0.002759,0.005333,0.11391,0.323893,-0.939211,0.1141575136901744
-0.148611,0.090529,-0.203441,0.963499,0.02982,-0.006091,0.025976,0.000993,0.003868,0.001784,0.113983,0.323207,-0.939439,0.1142303226742501
-0.148407,0.09052,-0.203156,0.963592,0.015988,0.008083,0.031829,0.002457,0.002231,-0.004564,0.114149,0.322787,-0.939563,0.11439851005258195
-0.148225,0.09062,-0.202931,0.963658,0.015581,0.011839,0.019907,0.001279,-0.004037,-0.003863,0.114495,0.322456,-0.939634,0.11474611933509814
-0.14806,0.090715,-0.202866,0.963688,0.014753,0.005955,-4e-06,0.000938,-0.005263,0.001871,0.114769,0.322173,-0.939698,0.1150226954643272
-0.147952,0.090708,-0.202968,0.963684,0.009277,0.001924,-0.010221,0.002858,-0.000782,-1e-05,0.114769,0.321981,-0.939764,0.11502211115533806
-0.147902,0.090724,-0.203067,0.963669,0.002062,0.00243,-0.003446,-0.000551,0.0002,-0.000142,0.114788,0.321904,-0.939788,0.11504136678506335
-0.147857,0.090712,-0.203114,0.963667,0.00866,-0.021044,-0.003031,-0.004069,3.2e-05,0.006968,0.114769,0.321819,-0.93982,0.11502212619471458
-0.147788,0.090403,-0.203083,0.963713,0.010672,-0.026384,0.00499,-0.001208,0.00028,0.000506,0.114219,0.321569,-0.939972,0.11446844865081729
-0.147699,0.090297,-0.202963,0.963762,0.004672,0.006935,0.008185,0.007366,-0.001129,-0.012733,0.114095,0.321348,-0.940063,0.11434377209366069
-0.147664,0.090531,-0.202904,0.963758,-0.012328,0.027388,0.016546,0.00612,0.000739,-0.009259,0.114577,0.321363,-0.939999,0.11482890162743738
-0.147795,0.090938,-0.202757,0.963731,-0.02779,0.032544,0.016266,0.000329,-0.001192,-0.002058,0.115346,0.321746,-0.939774,0.1156039193112327
-0.147991,0.091055,-0.202717,0.963698,-0.01234,-0.009836,-0.009727,-0.005433,-0.004942,0.005619,0.115499,0.322154,-0.939615,0.11575680307225861
-0.148105,0.090947,-0.202776,0.963678,-0.013658,-0.013941,-0.008508,-0.000999,0.000432,-0.000293,0.115222,0.322334,-0.939587,0.11547945891516469
-0.148231,0.090924,-0.202791,0.963658,-0.014369,-0.004751,0.002579,0.000123,0.004647,-0.003432,0.115119,0.322566,-0.939521,0.1153752528621871
-0.148319,0.090876,-0.2027,0.963668,-0.004516,-0.005967,0.008974,-0.000412,0.00319,0.00209,0.11502,0.322702,-0.939486,0.11527519742925457
-0.148269,0.090745,-0.202553,0.963719,0.01492,-0.014977,0.017952,-0.001453,0.000721,0.003789,0.114841,0.322541,-0.939563,0.11509463701421237
-0.148118,0.090604,-0.202425,0.963782,0.016735,-0.013085,0.010828,-0.000217,-0.00058,-0.000337,0.11468,0.322188,-0.939704,0.11493230105912915
-0.147987,0.090476,-0.202386,0.963822,0.010281,-0.005335,-0.004049,0.001393,-0.001852,-0.006186,0.114505,0.321889,-0.939828,0.11475622943614433
-0.14799,0.090517,-0.202453,0.963804,-0.002632,0.000739,-0.000875,0.000402,0.000439,-0.001086,0.11456,0.321918,-0.939811,0.11481132178336864
-0.148024,0.090578,-0.20251,0.963781,0.0008,0.00108,-0.003858,-0.003397,-0.004905,-0.001007,0.114642,0.322011,-0.939769,0.1148946467177952
-0.147904,0.090533,-0.202666,0.963771,0.003146,0.008076,-0.003302,-0.00119,-0.001674,-0.002164,0.114556,0.321787,-0.939856,0.11480798115268796
-0.147783,0.090488,-0.202822,0.963761,0.005492,0.015073,-0.002747,0.001017,0.001559,-0.003321,0.114471,0.321562,-0.939944,0.11472180196913503
-0.147743,0.090691,-0.20282,0.963749,-0.005656,0.01659,0.008564,-0.000642,-0.0017,0.000414,0.114876,0.321561,-0.939894,0.11513042466369251
-0.147681,0.090727,-0.202841,0.96375,0.007228,-0.004175,-0.00849,-0.003989,-0.009015,0.005754,0.114965,0.321462,-0.939918,0.11521953349729364
-0.147685,0.090686,-0.202869,0.963748,-0.002786,-0.000685,-0.004774,-0.001493,-0.006247,0.002456,0.114876,0.321457,-0.93993,0.11512965469438355
-0.147689,0.090645,-0.202896,0.963745,-0.0128,0.002806,-0.001058,0.001002,-0.003478,-0.000842,0.114787,0.321453,-0.939942,0.11503989155195166
-0.147837,0.090713,-0.202908,0.963714,-0.020938,0.001426,-0.005857,0.000242,-0.005063,0.000879,0.114847,0.321758,-0.939831,0.11510214305400288
-0.148066,0.090714,-0.203004,0.963658,-0.025117,-0.00153,-0.01316,-0.000163,-0.004347,-0.001093,0.114718,0.322201,-0.939695,0.1149716877397364
-0.148356,0.090777,-0.203138,0.963579,-0.039505,0.004408,-0.022663,0.001181,-0.004072,-0.002991,0.114668,0.322787,-0.9395,0.11492092919524362
-0.14881,0.090831,-0.203337,0.963462,-0.056023,0.003096,-0.026846,0.003108,0.000839,-0.00438,0.114507,0.323685,-0.93921,0.11475899897660813
-0.149372,0.090965,-0.203535,0.963321,-0.062507,0.004892,-0.025369,0.001783,0.00227,-0.005395,0.114452,0.324816,-0.938827,0.11470348760795845
-0.149919,0.091096,-0.203753,0.963178,-0.059185,0.002385,-0.02859,0.000794,0.000574,-0.003506,0.11439,0.325918,-0.938452,0.11464138440585986
-0.150388,0.091184,-0.204011,0.963041,-0.046905,0.003762,-0.026965,0.00087,0.002522,-0.000164,0.114267,0.326865,-0.938138,0.1145163791385099
-0.150802,0.091249,-0.204202,0.96293,-0.038391,0.001175,-0.020199,0.000783,0.003338,0.001948,0.114145,0.327689,-0.937865,0.1143939889380421
-0.151091,0.091327,-0.204379,0.96284,-0.022852,0.004355,-0.020402,0.001018,0.000514,0.000887,0.114107,0.328283,-0.937662,0.11435600400617045
-0.151143,0.091291,-0.204586,0.962791,-0.009749,0.004455,-0.017076,0.000367,0.002457,-0.000368,0.113945,0.328391,-0.937644,0.11419284019982708
-0.151194,0.091255,-0.204793,0.962742,0.003355,0.004556,-0.013751,-0.000284,0.004401,-0.001623,0.113783,0.328499,-0.937626,0.1140300554748638
-0.151227,0.091268,-0.204891,0.962715,-0.004564,0.003124,-0.002682,0.000888,0.004775,-0.002175,0.11376,0.328576,-0.937601,0.11400685079537137
-0.151295,0.091323,-0.204891,0.962699,-0.000145,9.9e-05,-8.5e-05,0.000138,0.000819,0.000592,0.113835,0.328725,-0.93754,0.1140824530491076
-0.151292,0.091279,-0.204928,0.962696,-0.000446,-0.002671,-0.002652,0.001055,0.002501,-0.001302,0.11374,0.328708,-0.937558,0.11398659903946248
-0.15136,0.091333,-0.204926,0.962681,-0.010461,0.004829,-0.000562,0.001933,0.005098,-0.001355,0.113813,0.328855,-0.937497,0.11406104890277387
-0.151525,0.091393,-0.204898,0.962655,-0.014525,0.004883,-0.002441,0.000586,0.002078,0.000632,0.113865,0.329184,-0.937375,0.1141130158370476
-0.151677,0.09142,-0.204945,0.962618,-0.006624,-0.006304,-0.011631,-0.000133,-0.001329,0.004159,0.113833,0.329486,-0.937273,0.11408148246603309
-0.151724,0.09135,-0.205093,0.962586,-0.00324,0.00234,-0.013169,0.003947,0.001506,-0.002119,0.113629,0.329565,-0.93727,0.11387535696405932
-0.151823,0.091385,-0.205128,0.96256,-0.006711,-0.000595,0.0015,0.001157,0.00395,0.001301,0.11364,0.329768,-0.937197,0.113886824218586
-0.151864,0.091354,-0.205126,0.962556,-0.000246,-0.02572,-0.001461,-0.003423,0.001203,0.010436,0.113564,0.329834,-0.937183,0.11380970236152
-0.151964,0.090987,-0.205002,0.962602,-0.001292,-0.031514,0.006845,-0.002153,0.001432,0.003209,0.112863,0.329866,-0.937257,0.11310367968083665
-0.152052,0.090839,-0.204843,0.962636,-0.011174,-0.009635,0.011263,0.006435,0.002903,-0.008085,0.112596,0.329957,-0.937257,0.11283548920282119
-0.152192,0.091035,-0.204646,0.962637,-0.022288,0.020219,0.024764,0.005944,0.002407,-0.011758,0.112977,0.330271,-0.937101,0.1132180733611479
-0.152416,0.091325,-0.20437,0.962633,-0.027688,0.01076,0.024588,-0.00278,0.000246,-0.001242,0.113527,0.330769,-0.936858,0.1137716861941863
-0.152615,0.091349,-0.204223,0.96263,-0.010085,-0.015432,0.003585,-0.004294,-1.9e-05,0.000726,0.113535,0.331135,-0.936728,0.11378093382516156
-0.152753,0.09118,-0.204174,0.962635,-0.011789,-0.014997,0.003136,3.6e-05,0.002159,-0.002185,0.11317,0.331325,-0.936705,0.11341270764377949
-0.152856,0.09123,-0.204111,0.962627,-0.010103,0.006235,-0.001853,-0.000227,-0.00137,-0.001367,0.113241,0.33153,-0.936624,0.11348517734232363
-0.152846,0.091243,-0.20415,0.962619,0.008798,-0.001472,-0.00557,-0.001234,-0.003963,0.005604,0.113258,0.33152,-0.936625,0.11350100783269126
-0.152756,0.091213,-0.204232,0.962619,0.009674,0.001148,-0.005567,-0.001293,-0.002484,0.002723,0.113212,0.331348,-0.936692,0.11345464753303787
-0.152668,0.091152,-0.204312,0.962621,0.006486,0.000753,-0.006036,0.000509,-0.000527,-0.000953,0.113107,0.33117,-0.936768,0.11334840819274712
-0.152647,0.091147,-0.204361,0.962615,-0.000168,4.8e-05,-0.002111,-0.000607,0.000389,-0.000289,0.113088,0.331135,-0.936782,0.11333119950437773
-0.152671,0.091155,-0.204355,0.962612,-0.003732,-0.006804,0.000837,-0.002845,-0.000786,0.000568,0.113096,0.331182,-0.936764,0.11333812154674819
-0.152727,0.091135,-0.204395,0.962596,-0.008849,-0.000939,-0.000131,-0.001154,0.000206,-0.000481,0.113019,0.331284,-0.936738,0.11326110100661585
-0.152782,0.091115,-0.204435,0.962581,-0.013966,0.004926,-0.0011,0.000538,0.001199,-0.001531,0.112943,0.331385,-0.936711,0.11318466831831075
-0.152924,0.091224,-0.20444,0.962547,-0.021403,0.005807,-0.001526,-0.000703,0.001284,0.000114,0.113088,0.331692,-0.936585,0.11332964781022567
-0.153088,0.091252,-0.204484,0.962509,-0.015216,-0.001451,-0.006893,-0.000597,-0.001118,0.001164,0.113053,0.332016,-0.936474,0.11329587061222664
-0.153218,0.09126,-0.204542,0.962475,-0.01346,0.001998,-0.006577,0.000897,-0.000583,-0.000299,0.112992,0.332269,-0.936392,0.11323372776151526
-0.153324,0.09132,-0.204608,0.962439,-0.008393,0.00599,-0.008012,0.001012,-0.000477,-0.000758,0.113037,0.332499,-0.936305,0.11327934027377093
-0.153369,0.091404,-0.20469,0.962406,-0.00251,0.006101,-0.007403,0.000615,0.000462,0.000316,0.113149,0.332625,-0.936247,0.1133921538956084
-0.153369,0.091455,-0.204781,0.962382,-0.001782,0.006146,-0.006727,0.000331,0.001326,-0.000958,0.113215,0.332656,-0.936228,0.11345844226246386
-0.153385,0.091542,-0.204854,0.962355,-0.004533,0.006467,-0.006177,0.000877,0.002263,-0.001507,0.113348,0.332727,-0.936186,0.11359287159825342
-0.153432,0.0916,-0.204918,0.962329,-0.007919,0.004344,-0.004682,0.000982,0.00241,-0.001432,0.113416,0.332844,-0.936137,0.11366128719201371
-0.153517,0.091651,-0.204955,0.962302,-0.010073,0.00494,-0.004102,0.001362,0.003114,-0.002088,0.113464,0.333027,-0.936066,0.11370860472102434
-0.153604,0.091702,-0.20501,0.962272,-0.009174,0.003841,-0.005582,0.00123,0.003564,-0.000329,0.113503,0.333216,-0.935993,0.11374895949292055
-0.153706,0.091725,-0.205063,0.962242,-0.008576,0.001022,-0.005459,0.000699,0.003941,0.000457,0.113485,0.333424,-0.935922,0.11372947976386735
-0.153819,0.09176,-0.205096,0.962214,-0.007075,-0.002252,-0.003692,0.000633,0.003688,0.001964,0.11349,0.333652,-0.93584,0.11373523906012516
-0.15391,0.09175,-0.205129,0.962193,-0.004258,-0.004551,-0.0039,9.6e-05,0.001875,0.002354,0.11342,0.333823,-0.935787,0.11366419704026944
-0.153966,0.091695,-0.205153,0.962184,0.000257,-0.005979,-0.00422,0.000349,0.000443,0.001578,0.113281,0.333911,-0.935773,0.11352544624123685
-0.153978,0.091615,-0.205214,0.962177,0.004594,-0.010366,-0.005298,-7.4e-05,0.001043,0.000692,0.113104,0.333909,-0.935795,0.11334534772810397
-0.153968,0.091531,-0.205244,0.96218,0.005988,-0.006307,-0.001946,-0.000565,0.002181,-0.002694,0.112937,0.333863,-0.935832,0.11317804542990956
-0.153907,0.091478,-0.205262,0.962191,0.016105,-0.005232,-0.000968,-0.000657,0.002684,-0.002169,0.112856,0.33373,-0.935889,0.11309704814776458
-0.15369,0.0914,-0.205281,0.962229,0.033477,-0.003623,-0.002226,-0.000508,0.004362,-0.003392,0.112797,0.333296,-0.936051,0.11303675122854688
-0.153298,0.091269,-0.205374,0.962284,0.05673,-0.016744,-0.009941,-0.003065,0.01242,-0.005831,0.112686,0.332521,-0.936339,0.11292641020266422
-0.152769,0.090846,-0.205582,0.962364,0.064639,-0.031718,-0.023147,-0.0036,0.034105,-0.023631,0.112042,0.331391,-0.936817,0.11227647111063045
-0.152338,0.090461,-0.205799,0.962422,0.040917,-0.01707,-0.013992,-0.003948,0.067567,-0.046772,0.111421,0.330461,-0.93722,0.11165313828174936
-0.152094,0.090363,-0.205819,0.962466,0.023558,0.009223,0.018178,-0.006188,0.094256,-0.053794,0.111335,0.329968,-0.937404,0.1115662611247564
-0.151764,0.09053,-0.2054,0.962592,0.042978,0.023145,0.081326,-0.009879,0.109175,-0.044335,0.111942,0.329364,-0.937544,0.11217737727568412
-0.150968,0.090852,-0.204507,0.962877,0.103269,0.046007,0.123253,-0.01019,0.106106,-0.027443,0.113212,0.327886,-0.937909,0.11345381210806521
-0.149452,0.091165,-0.203442,0.963309,0.19414,0.036489,0.133763,-0.011921,0.096458,-0.000645,0.114831,0.32503,-0.938706,0.11508437171019627
-0.147169,0.09112,-0.202544,0.963854,0.276208,0.018448,0.104061,-0.011407,0.092105,0.008149,0.116036,0.32061,-0.940077,0.11629834159668458
-0.144417,0.090776,-0.201899,0.964438,0.309819,0.010216,0.100397,-0.008117,0.101835,0.005017,0.11678,0.315218,-0.941807,0.11704742925624168
-0.14154,0.090436,-0.201265,0.965029,0.315109,0.018205,0.097087,-0.000781,0.098187,-0.002092,0.117572,0.309583,-0.943576,0.11784520212839862
-0.138676,0.090222,-0.200753,0.965571,0.303464,0.03211,0.077535,0.003799,0.087756,-0.006377,0.118553,0.304028,-0.945258,0.11883172008520733
-0.136083,0.090099,-0.200433,0.966018,0.270883,0.028874,0.047742,0.000619,0.080747,-0.006252,0.119524,0.299034,-0.946727,0.11980989141918758
-0.134016,0.089768,-0.200289,0.966367,0.220926,-0.007506,0.026265,-0.000546,0.074606,-0.00418,0.119815,0.294976,-0.947963,0.12010233372113562
-0.132586,0.089242,-0.200421,0.966586,0.161596,-0.02753,-0.017801,0.001424,0.065892,-0.010178,0.119374,0.292084,-0.948913,0.11965944883089544
-0.131752,0.088672,-0.20075,0.966684,0.10952,-0.045969,-0.026015,0.002388,0.061326,-0.007549,0.118537,0.290326,-0.949558,0.11881654490871517
-0.131316,0.088062,-0.201024,0.966742,0.077544,-0.047871,-0.019668,0.002356,0.052839,-0.009346,0.117472,0.289303,-0.950002,0.11774299763318036
-0.131054,0.087509,-0.201076,0.966817,0.068675,-0.044094,0.012677,0.002159,0.039308,-0.002068,0.116507,0.288603,-0.950334,0.11677194625306136
-0.130632,0.087044,-0.200847,0.966964,0.090163,-0.04249,0.037197,0.001518,0.018528,0.008633,0.115863,0.287597,-0.950717,0.11612354373915271
-0.129926,0.086571,-0.200477,0.967178,0.118982,-0.031881,0.049037,0.001996,0.002256,0.012702,0.115365,0.286035,-0.951249,0.11562222767933081
-0.128958,0.086231,-0.199999,0.967437,0.145938,-0.019788,0.061497,-0.000233,-0.010796,0.021876,0.115262,0.28401,-0.951868,0.11551993926069624
-0.127662,0.085831,-0.199513,0.967745,0.178696,-0.035997,0.055389,-0.006497,-0.022163,0.033789,0.115185,0.281337,-0.952671,0.11544081945498827
-0.12604,0.085148,-0.199141,0.968094,0.200358,-0.041122,0.047407,-0.006857,-0.023433,0.028959,0.114663,0.27795,-0.953728,0.11491582858637611
-0.124166,0.084472,-0.198691,0.968488,0.212933,-0.035915,0.070886,0.000105,-0.028718,0.027262,0.114279,0.274073,-0.954895,0.11452911728859978
-0.122098,0.083923,-0.198182,0.968903,0.224515,-0.014535,0.047217,0.012506,-0.056156,0.024304,0.11423,0.269866,-0.956098,0.1144811411201352
-0.119775,0.083381,-0.198471,0.969181,0.261537,-0.007127,-0.063964,0.013166,-0.07779,0.033259,0.114079,0.265264,-0.957403,0.1143277308751032
-0.117227,0.082398,-0.199616,0.969341,0.288372,-0.062981,-0.112798,-0.0001,-0.058463,0.052062,0.112943,0.260162,-0.958937,0.11318425616312505
-0.114737,0.080857,-0.200737,0.969537,0.270086,-0.116074,-0.08441,-0.006605,-0.030359,0.047718,0.110724,0.254946,-0.960595,0.11095128251506746
-0.112542,0.078987,-0.201324,0.969827,0.226203,-0.151755,-0.027708,-0.006352,-0.014737,0.030856,0.107893,0.250096,-0.962191,0.10810306996471215
-0.110765,0.077156,-0.201319,0.97018,0.168974,-0.151718,0.019237,-0.005249,-0.016209,0.016088,0.105112,0.24599,-0.963556,0.10530674356759007
-0.109463,0.075474,-0.201006,0.970525,0.131274,-0.141108,0.027943,-0.007143,-0.028473,0.007125,0.102493,0.242815,-0.964643,0.10267366870324808
-0.10848,0.074016,-0.200666,0.970818,0.112359,-0.117127,0.03089,-0.009478,-0.036063,0.001299,0.100176,0.240333,-0.965507,0.10034394236006813
-0.107574,0.073069,-0.200156,0.971095,0.10764,-0.078272,0.053252,-0.010427,-0.038051,-0.002722,0.098851,0.23818,-0.966178,0.09901241609433004
-0.106668,0.072121,-0.199646,0.971371,0.102921,-0.039417,0.075614,-0.011373,-0.040039,-0.00675,0.097522,0.236026,-0.966841,0.097676057550891
-0.105577,0.071579,-0.198914,0.971681,0.104195,-0.020879,0.092552,-0.014947,-0.04032,-0.002049,0.097103,0.23365,-0.96746,0.09725566747642723
-0.104419,0.071308,-0.198006,0.972011,0.089995,0.00437,0.108573,-0.014999,-0.037096,-0.002767,0.097272,0.231232,-0.968024,0.09742720141360513
-0.103316,0.071264,-0.197005,0.972335,0.076335,0.022351,0.110888,-0.01311,-0.038179,-0.003051,0.097878,0.228995,-0.968494,0.098034380766005
-0.102257,0.071399,-0.196048,0.972631,0.068562,0.046002,0.104265,-0.009704,-0.038746,-0.005036,0.098796,0.226911,-0.968891,0.09895662584678946
-0.101215,0.071726,-0.195123,0.972902,0.066628,0.059577,0.102806,-0.008187,-0.038992,-0.002231,0.100066,0.224935,-0.969222,0.10023374263609737
-0.100151,0.072139,-0.194257,0.973155,0.071087,0.075805,0.103205,-0.006961,-0.038109,-0.002019,0.101495,0.222952,-0.969531,0.10166985712037745
-0.098978,0.07269,-0.193386,0.973407,0.083542,0.076757,0.108314,-0.00876,-0.036915,0.003679,0.103232,0.220806,-0.969839,0.10341623008855899
-0.097619,0.073239,-0.192439,0.973691,0.100939,0.081913,0.117492,-0.007479,-0.038237,0.003364,0.105054,0.218291,-0.970213,0.10524710007747129
-0.096078,0.073774,-0.191415,0.974006,0.12451,0.079126,0.12589,-0.005213,-0.042541,0.005916,0.106932,0.215404,-0.970653,0.10713593192110775
-0.094373,0.074259,-0.190411,0.974332,0.137799,0.077845,0.115839,-0.001971,-0.045265,0.005965,0.108766,0.212181,-0.971159,0.10898212931590576
-0.092607,0.07472,-0.189518,0.97464,0.137006,0.076438,0.104136,-2.2e-05,-0.043536,0.005909,0.11055,0.208839,-0.971682,0.11077523240428853
-0.09098,0.075217,-0.188789,0.974897,0.11681,0.074575,0.080656,-0.000282,-0.042743,0.006081,0.112306,0.205793,-0.97213,0.11254303557272041
-0.089648,0.075625,-0.188251,0.975093,0.083727,0.054934,0.053517,0.003002,-0.041152,0.005109,0.113729,0.203303,-0.972488,0.11397677784890715
-0.088679,0.075958,-0.18798,0.975208,0.043909,0.05805,0.023779,0.009973,-0.041045,-0.005439,0.114811,0.201518,-0.972733,0.1150636741082113
-0.088074,0.076574,-0.188027,0.975205,0.038315,0.071736,0.002938,0.013426,-0.048894,-0.006261,0.11623,0.200576,-0.972759,0.11649341982173544
-0.087468,0.07719,-0.188075,0.975202,0.032722,0.085422,-0.017903,0.016879,-0.056742,-0.007087,0.11765,0.199633,-0.972782,0.11792371450218889
-0.086688,0.077779,-0.188457,0.975151,0.062393,0.071493,-0.050349,0.013935,-0.058046,-0.002961,0.119019,0.198384,-0.972871,0.11930141652340939
-0.085647,0.078229,-0.18913,0.975077,0.084587,0.06699,-0.065498,0.016832,-0.048189,-0.005502,0.120162,0.196615,-0.97309,0.12045282447160822
-0.084419,0.078701,-0.18989,0.974998,0.084644,0.06829,-0.066533,0.019995,-0.035191,-0.004141,0.121406,0.194505,-0.973359,0.12170622524939467
-0.08324,0.079216,-0.190536,0.974932,0.063262,0.073618,-0.045389,0.019619,-0.023098,-0.004106,0.122741,0.192493,-0.973592,0.12305028336401076
-0.082454,0.079737,-0.190844,0.974896,0.041239,0.054721,-0.034607,0.016536,-0.01931,-0.001351,0.123999,0.191203,-0.973687,0.1243188432256381
-0.081669,0.080258,-0.191152,0.974859,0.019217,0.035824,-0.023825,0.013451,-0.015522,0.001401,0.125258,0.189914,-0.973778,0.12558795750615645
-0.08125,0.080685,-0.191351,0.97482,-0.004934,0.031942,-0.013683,0.015796,-0.014648,-0.000936,0.126212,0.189287,-0.973777,0.12654967390415678
-0.081156,0.081141,-0.191489,0.974762,-0.020634,0.032566,-0.016813,0.017124,-0.017131,0.000866,0.127106,0.189291,-0.97366,0.12745012426570398
-0.081184,0.081554,-0.191725,0.974679,-0.017373,0.021432,-0.034464,0.015422,-0.020681,0.003749,0.127849,0.189528,-0.973516,0.12819880556254204
-0.081191,0.081772,-0.192136,0.974579,-0.009733,0.014344,-0.049078,0.016477,-0.019297,0.000198,0.128187,0.189677,-0.973443,0.12854080203561352
-0.081153,0.081905,-0.192691,0.974462,-0.002303,0.006622,-0.060994,0.015423,-0.014559,-0.004537,0.128351,0.189726,-0.973411,0.1287067677691238
-0.081098,0.082026,-0.19329,0.974338,-0.005321,0.012455,-0.057818,0.014368,-0.008222,-0.008511,0.12849,0.189742,-0.97339,0.1288474506302555
-0.081009,0.082158,-0.193797,0.974233,-0.004786,0.005622,-0.045611,0.009972,-0.005668,-0.004728,0.128683,0.189687,-0.973375,0.1290412944316284
-0.080934,0.082181,-0.194143,0.974169,-0.004387,-0.009555,-0.031008,0.006555,-0.002837,-0.001403,0.128691,0.189596,-0.973392,0.12904871490305603
-0.080888,0.082127,-0.19433,0.97414,-0.006433,-0.018055,-0.014668,0.005777,-0.003423,-0.001243,0.128568,0.189512,-0.973425,0.12892532529469944
-0.080902,0.082091,-0.194401,0.974127,-0.0101,-0.012099,-0.00591,0.006314,-0.004787,-0.001755,0.12848,0.189535,-0.973432,0.128835377535449
-0.08097,0.081975,-0.194469,0.974118,-0.007825,-0.02605,-0.016843,0.001425,-0.006108,-0.00041,0.128214,0.189632,-0.973448,0.12856824470188588
-0.081116,0.08174,-0.194678,0.974084,-0.011736,-0.030623,-0.030324,0.000604,-0.005127,-0.004724,0.127659,0.189854,-0.973478,0.12800956842123914
-0.081308,0.08153,-0.195005,0.97402,-0.017678,-0.021554,-0.037532,-0.000442,-0.002035,-0.007661,0.127112,0.190189,-0.973484,0.12745758861493336
-0.081518,0.081424,-0.195363,0.97394,-0.019248,-0.008974,-0.037111,-0.000983,0.00139,-0.007914,0.126753,0.190601,-0.97345,0.12709486559052563
-0.081691,0.081465,-0.195665,0.973861,-0.02044,0.008116,-0.025109,-0.001902,0.003541,-0.006215,0.126703,0.190991,-0.97338,0.12704451428130503
-0.081826,0.081616,-0.195807,0.973809,-0.021096,0.01735,-0.008966,-0.003063,0.003935,-0.005549,0.126912,0.191327,-0.973287,0.12725576950456308
-0.081981,0.081891,-0.195822,0.973769,-0.024835,0.026651,0.001301,-0.003258,0.002785,-0.00631,0.127379,0.191733,-0.973146,0.12772546559801254
-0.082135,0.082262,-0.195804,0.973729,-0.024366,0.038201,0.001104,-0.001585,-0.001159,-0.006596,0.128038,0.19217,-0.972973,0.12838950217034154
-0.082247,0.082722,-0.195934,0.973654,-0.017588,0.043457,-0.012098,0.000183,-0.003494,-0.005664,0.128855,0.192576,-0.972785,0.12921451425939276
-0.082358,0.083181,-0.196065,0.973579,-0.01081,0.048713,-0.0253,0.001951,-0.005828,-0.004732,0.129671,0.192982,-0.972596,0.1300376824992864
-0.08241,0.083714,-0.196371,0.973467,-0.013588,0.065211,-0.038198,0.001413,-0.003965,-0.004668,0.130619,0.193326,-0.972401,0.13099407435488297
-0.082461,0.08429,-0.196892,0.973308,-0.020138,0.060782,-0.047803,-0.001435,-0.001495,-0.002642,0.131609,0.193713,-0.97219,0.1319913592349657
-0.082512,0.084867,-0.197413,0.973148,-0.026688,0.056354,-0.057407,-0.004283,0.000974,-0.000617,0.132598,0.194101,-0.971979,0.13299009173636617
-0.082692,0.085382,-0.197965,0.972976,-0.036416,0.047674,-0.05524,-0.00536,0.004868,0.001337,0.13341,0.19472,-0.971744,0.13380796853976898
-0.083004,0.085841,-0.198482,0.972803,-0.045952,0.040708,-0.050211,-0.005198,0.00636,0.001511,0.134064,0.19557,-0.971483,0.13446803260647516
-0.083439,0.08616,-0.198934,0.972646,-0.053073,0.02467,-0.042292,-0.005687,0.008428,0.004195,0.134409,0.196593,-0.971229,0.13481667389783553
-0.083974,0.086393,-0.1993,0.972504,-0.056496,0.01367,-0.037898,-0.005491,0.008786,0.001895,0.134562,0.197766,-0.970969,0.13497247837749238
-0.084556,0.086552,-0.199628,0.972372,-0.056069,0.01236,-0.033489,-0.003379,0.008269,-0.001928,0.134563,0.198996,-0.970718,0.13497142137214083
-0.08511,0.086747,-0.199944,0.972241,-0.04941,0.015412,-0.034725,-0.002859,0.006111,-0.001572,0.134644,0.200184,-0.970462,0.13505369006881762
-0.0856,0.086936,-0.200302,0.972108,-0.04064,0.01313,-0.042117,-0.001616,0.004419,0.001556,0.134731,0.201253,-0.970229,0.13514163884409794
-0.085988,0.087029,-0.200769,0.971969,-0.026474,0.011174,-0.052423,-0.000873,0.004449,-0.000277,0.134653,0.2021,-0.970064,0.1350617820418943
-0.086238,0.087208,-0.20127,0.971827,-0.014917,0.021755,-0.04547,-0.000771,0.008261,0.000698,0.134788,0.202722,-0.969915,0.1351994398195731
-0.086351,0.087321,-0.201671,0.971724,0.000265,0.007979,-0.033613,-0.003125,0.0107,0.006289,0.134876,0.203039,-0.969837,0.13528714494797467
-0.086323,0.087277,-0.201936,0.971675,0.012659,-0.00574,-0.015247,-0.002369,0.011994,0.005766,0.134746,0.203005,-0.969862,0.1351574384355122
-0.086221,0.087169,-0.201979,0.971685,0.018509,-0.006013,0.007633,-0.000151,0.012756,0.001826,0.134573,0.202772,-0.969935,0.13498147729578813
-0.086048,0.08713,-0.201833,0.971734,0.023757,0.00794,0.021976,0.004256,0.009851,-0.001974,0.134601,0.202402,-0.970008,0.13500949021907288
-0.085847,0.087229,-0.201595,0.971792,0.02029,0.015824,0.030355,0.004542,0.007889,-0.002612,0.134924,0.202021,-0.970043,0.1353369996962222
-0.085705,0.087438,-0.201358,0.971835,0.012405,0.019678,0.023308,0.002744,0.005185,-0.002284,0.135436,0.201795,-0.970018,0.1358533450837453
-0.085641,0.087562,-0.201257,0.971851,0.008298,0.010726,0.003847,0.00084,0.00357,0.000113,0.135722,0.201706,-0.969997,0.1361429091446804
-0.085663,0.08764,-0.201309,0.971831,-0.000982,0.001054,-0.006924,0.001865,0.006037,5.4e-05,0.135854,0.201785,-0.969962,0.13627446653456068
-0.085786,0.087746,-0.201401,0.971792,-0.013054,0.008864,-0.010936,0.003626,0.007905,-0.002627,0.135987,0.202077,-0.969883,0.13640959792504775
-0.085966,0.087869,-0.201497,0.971745,-0.014162,0.007481,-0.010176,0.00193,0.005732,0.001248,0.136128,0.202485,-0.969778,0.1365527201477907
-0.086098,0.087939,-0.201611,0.971703,-0.006557,-0.003356,-0.013753,0.000288,0.003852,0.00643,0.136186,0.202782,-0.969708,0.13660907685178078
-0.086196,0.087838,-0.201754,0.971674,-0.001325,-0.018715,-0.012805,-2.5e-05,0.006718,0.00648,0.13592,0.202951,-0.96971,0.1363410381312061
-0.086284,0.0877,-0.201831,0.971663,-0.002271,-0.015741,-0.003648,0.002234,0.008398,0.004011,0.135599,0.203078,-0.969728,0.13601915016654637
-0.08634,0.087495,-0.201839,0.971674,0.00387,-0.025941,-0.003882,0.00075,0.006544,0.005155,0.135179,0.203109,-0.96978,0.13559479945878966
-0.086361,0.087153,-0.201861,0.971699,0.011476,-0.035286,-0.007827,0.000545,0.005205,0.002078,0.134508,0.203019,-0.969892,0.13491605593955303
-0.086344,0.086791,-0.201925,0.971719,0.014205,-0.033138,-0.009049,0.00173,0.005067,-0.002293,0.133803,0.202855,-0.970024,0.13420540469723785
-0.086363,0.086608,-0.201961,0.971726,0.01278,-0.02703,-0.008435,0.000442,0.002882,-0.000503,0.133435,0.202826,-0.970081,0.13383374401544063
-0.086382,0.086425,-0.201996,0.971734,0.011356,-0.020921,-0.007821,-0.000846,0.000698,0.001286,0.133067,0.202797,-0.970137,0.1334624427151177
-0.086369,0.086177,-0.202077,0.97174,0.013407,-0.024336,-0.013386,-0.00082,0.000871,0.000844,0.132577,0.202684,-0.970228,0.13296837945881534
-0.086318,0.085938,-0.202213,0.971737,0.012346,-0.020023,-0.014656,0.00047,0.001371,-0.002434,0.13211,0.202513,-0.970327,0.1324963535170929
-0.086266,0.085856,-0.202364,0.971718,0.012642,-0.016394,-0.013477,-0.00109,0.001595,-0.001009,0.131942,0.2024,-0.970374,0.13232722343707076
-0.086213,0.085774,-0.202515,0.971698,0.012938,-0.012765,-0.012297,-0.002649,0.001819,0.000415,0.131775,0.202287,-0.97042,0.13215837067146557
-0.086139,0.085655,-0.202648,0.971688,0.008527,-0.009746,-0.010939,-0.002862,0.002197,-0.000992,0.131548,0.202116,-0.970487,0.13193046876014405
-0.086117,0.085575,-0.20277,0.971671,0.002405,-0.007062,-0.011107,-0.002191,0.003811,-0.003173,0.131378,0.202058,-0.970522,0.13175850059928262
-0.086193,0.085537,-0.202869,0.971647,-0.011615,-0.002124,-0.008198,-0.001557,0.006928,-0.004965,0.131251,0.202204,-0.970508,0.1316315613728597
-0.086404,0.085574,-0.202909,0.971617,-0.026753,0.00303,-0.003648,0.0006,0.006725,-0.005339,0.131226,0.202631,-0.970423,0.13160558106326056
-0.08671,0.085659,-0.202887,0.971587,-0.031262,0.00715,-0.000784,0.000785,0.002582,-0.002101,0.131265,0.203251,-0.970288,0.1316455974933131
-0.086997,0.085749,-0.202912,0.971548,-0.020391,0.003746,-0.004827,-0.000294,-0.002174,3.1e-05,0.131313,0.203842,-0.970157,0.13169340153086834
-0.087163,0.085792,-0.202986,0.971514,-0.006953,0.007965,-0.012002,0.001041,-0.003426,-0.000922,0.13131,0.20419,-0.970085,0.13169083164250878
-0.087183,0.085856,-0.203111,0.97148,0.006623,0.007003,-0.016879,0.000933,-0.002863,0.001016,0.131399,0.20427,-0.970056,0.13178020643172816
-0.087093,0.085871,-0.203305,0.971446,0.013091,0.004571,-0.013653,0.001033,0.00121,0.001225,0.131426,0.204128,-0.970082,0.1318065075881164
-0.086934,0.085871,-0.203439,0.971432,0.014841,0.003004,-0.008289,0.000939,0.002049,0.000499,0.131465,0.20384,-0.970137,0.1318457967703618
-0.086734,0.085839,-0.203526,0.971435,0.019203,0.002017,-0.006365,0.001932,0.002476,0.001607,0.131469,0.203453,-0.970218,0.13185046455382998
-0.086489,0.085762,-0.203584,0.971452,0.027175,-0.004795,-0.003479,0.001269,0.001269,0.001962,0.131413,0.202959,-0.970329,0.13179297571995316
-0.086232,0.085681,-0.203641,0.971469,0.028119,0.000165,-0.003047,0.002114,0.000848,-0.00065,0.131351,0.20244,-0.970446,0.13173280379702687
-0.086017,0.085589,-0.203738,0.971476,0.023822,0.00021,-0.006193,0.001921,0.001152,-0.002703,0.131246,0.202002,-0.970551,0.1316251985229344
-0.085801,0.085497,-0.203834,0.971483,0.019525,0.000255,-0.009339,0.001727,0.001455,-0.004756,0.13114,0.201564,-0.970657,0.1315182606481959
-0.085638,0.085476,-0.203959,0.971473,0.016314,-0.000105,-0.009974,0.00076,0.000996,-0.001496,0.131142,0.201257,-0.97072,0.13152081125382478
-0.085481,0.085391,-0.204096,0.971466,0.016812,-0.003464,-0.012313,0.00011,2.5e-05,-0.000189,0.131017,0.20094,-0.970802,0.1313939924983187
-0.085337,0.085238,-0.204212,0.971468,0.018989,-0.015102,-0.008227,0.000123,0.001294,0.001975,0.130759,0.200618,-0.970904,0.1311338080174083
-0.085176,0.085083,-0.204266,0.971484,0.018267,-0.006083,5.7e-05,0.002087,0.002907,-0.00281,0.130517,0.200253,-0.971012,0.13088984211446997
-0.084983,0.085075,-0.204251,0.971505,0.018294,0.007058,0.005461,0.002928,0.003094,-0.00595,0.130586,0.199875,-0.97108,0.13095986698898526
-0.0848,0.085173,-0.204185,0.971526,0.011912,0.015288,0.014079,0.001169,0.004301,-0.003777,0.130866,0.199553,-0.971109,0.1312422317988406
-0.08468,0.085235,-0.204071,0.971555,0.010106,-0.001041,0.011824,-0.002947,0.005472,0.003713,0.131059,0.199331,-0.971129,0.13143763907697414
-0.084649,0.085142,-0.204,0.971581,0.000196,-0.015888,0.00401,-0.002424,0.007863,0.005221,0.130909,0.199226,-0.97117,0.13128471225288504
-0.084771,0.085003,-0.203914,0.9716,-0.017047,-0.016438,0.007938,0.001071,0.010805,0.001559,0.130606,0.199395,-0.971177,0.13098003161310265
-0.085026,0.084923,-0.203772,0.971615,-0.022648,-0.012638,0.01032,0.000303,0.00738,1.4e-05,0.130373,0.199835,-0.971117,0.1307452672398004
-0.085289,0.08482,-0.203668,0.971623,-0.013525,-0.018452,0.004858,-0.001803,0.003533,0.001379,0.130086,0.200288,-0.971062,0.1304545519619332
-0.085458,0.084627,-0.203597,0.97164,-0.002918,-0.018648,0.002836,-0.001716,0.003494,-0.000572,0.129656,0.200529,-0.97107,0.1300220148836489
-0.08551,0.084547,-0.203467,0.971669,-0.002649,-0.014544,0.003179,-0.003093,0.00295,-0.000527,0.129506,0.20058,-0.97108,0.12987124353980842
-0.085562,0.084466,-0.203337,0.971699,-0.00238,-0.01044,0.003523,-0.004471,0.002406,-0.000482,0.129356,0.200632,-0.971089,0.12971870357633045
-0.085644,0.08431,-0.203131,0.971748,-0.001237,-0.004988,-0.001007,-0.002468,0.002575,-0.002862,0.129062,0.200702,-0.971114,0.12942325732484772
-0.085614,0.084386,-0.203206,0.971729,-0.00211,-0.006336,0.003867,-0.005849,0.001862,-0.000437,0.129206,0.200683,-0.971098,0.12956831667593383
-0.085724,0.084322,-0.203132,0.97174,-0.00644,0.007198,-4.6e-05,-3.4e-05,0.002477,-0.003613,0.129052,0.20086,-0.971082,0.12941246748346077
-0.085822,0.084435,-0.203141,0.97172,-0.009133,0.009466,-0.000513,-0.001722,0.003315,-0.001775,0.129226,0.201094,-0.971011,0.12958882135418573
-0.085863,0.084428,-0.203141,0.971717,-0.004738,0.005549,0.003037,-0.001263,0.003782,-0.001215,0.129195,0.20117,-0.970999,0.12955779303744813
-0.085904,0.08442,-0.203141,0.971714,-0.000342,0.001632,0.006587,-0.000804,0.004249,-0.000656,0.129164,0.201247,-0.970987,0.12952480508573527
-0.085882,0.084484,-0.203039,0.971731,0.006652,0.007324,0.013583,0.000783,0.002165,-0.001836,0.129316,0.201215,-0.970974,0.1296798150774142
-0.085743,0.084572,-0.202904,0.971764,0.015615,0.013706,0.017888,0.001782,-0.001013,-0.001678,0.129572,0.200964,-0.970992,0.12993819074684468
-0.085485,0.084656,-0.202786,0.971804,0.027809,0.015937,0.013108,0.001766,-0.002999,-0.000776,0.129867,0.200484,-0.971051,0.13023560547247623
-0.085159,0.084778,-0.202712,0.971838,0.034895,0.023196,0.009601,0.003151,-0.004221,-0.001927,0.130255,0.199892,-0.971121,0.13062663197171262
-0.084759,0.084913,-0.202658,0.971872,0.039064,0.023666,0.010339,0.003253,-0.003643,-0.001616,0.130695,0.199166,-0.971211,0.13106991526675013
-0.084241,0.085147,-0.202572,0.971915,0.054215,0.041909,0.019618,0.006202,-0.00529,-0.007038,0.131381,0.198248,-0.971307,0.1317624890062478
-0.083447,0.085566,-0.202482,0.971965,0.080346,0.067383,0.023604,0.002667,-0.006174,-0.008927,0.132541,0.196866,-0.97143,0.13293244669390952
-0.08227,0.086063,-0.202358,0.972047,0.091971,0.067015,0.026773,0.000624,-0.001508,-0.004421,0.134017,0.194773,-0.97165,0.1344230383817885
-0.081094,0.086559,-0.202234,0.972128,0.103596,0.066647,0.029942,-0.001419,0.003159,7.9e-05,0.135493,0.192678,-0.971863,0.1359109606031408
-0.079963,0.087042,-0.202077,0.972211,0.089046,0.060096,0.030297,-0.002572,0.008227,0.002862,0.13693,0.19066,-0.972059,0.13736055750187479
-0.079054,0.087449,-0.201939,0.972278,0.062686,0.049133,0.021523,-0.002445,0.009037,0.002298,0.138122,0.189044,-0.972206,0.1385642879047189
-0.078489,0.087839,-0.201823,0.972312,0.032754,0.04807,0.011497,-0.000463,0.006419,0.000339,0.139133,0.188087,-0.972248,0.13958489259617435
-0.078212,0.088185,-0.201883,0.972291,0.015656,0.03961,-0.004165,-0.000138,0.003753,-0.001252,0.139903,0.187695,-0.972213,0.1403640739912479
-0.078098,0.08855,-0.202053,0.972232,0.007091,0.04085,-0.019354,0.00196,-0.001103,-0.00179,0.140623,0.187642,-0.972119,0.1410900503414247
-0.078054,0.088891,-0.202335,0.972145,0.005389,0.038981,-0.022905,0.00225,-0.001376,5.8e-05,0.141244,0.187732,-0.972012,0.1417176679243797
-0.077996,0.089212,-0.202638,0.972057,0.011022,0.03437,-0.030117,0.002993,-0.002146,-0.000446,0.141829,0.187789,-0.971915,0.1423082341680955
-0.07789,0.089577,-0.202965,0.971964,0.009356,0.039419,-0.028408,0.003846,-0.002625,-0.000535,0.142513,0.187775,-0.971818,0.14300022279675023
-0.077766,0.089867,-0.203287,0.97188,0.008295,0.024885,-0.034097,0.000708,-0.003035,0.003775,0.143062,0.187695,-0.971753,0.14355480086538422
-0.077689,0.089988,-0.203626,0.971804,0.003042,0.011009,-0.03209,0.002382,-0.001365,0.003938,0.143262,0.187645,-0.971733,0.14375703386298233
-0.077683,0.090018,-0.203906,0.971743,0.000388,0.004289,-0.022518,0.003118,-0.001711,0.001404,0.14327,0.187687,-0.971724,0.1437633662621949
-0.077656,0.090082,-0.204144,0.971689,0.001652,0.01494,-0.02198,0.006264,-0.002327,-0.005717,0.143358,0.187694,-0.97171,0.14385299235140556
-0.077634,0.090233,-0.204331,0.971638,-0.004369,0.015439,-0.013718,0.004437,-0.000641,-0.002652,0.143621,0.187738,-0.971662,0.14411994838662737
-0.077714,0.090389,-0.20443,0.971596,-0.016791,0.007904,-0.004764,0.002036,0.001478,-9.4e-05,0.143869,0.18797,-0.971581,0.14437002353631218
-0.077908,0.090381,-0.204441,0.971579,-0.021374,-0.017107,-0.005754,0.000798,0.001437,0.005285,0.14377,0.188342,-0.971523,0.1442693253699945
-0.078201,0.090291,-0.204426,0.971567,-0.038274,-0.022028,-0.002403,0.002707,0.003433,0.001241,0.143474,0.188871,-0.971464,0.14397173250466266
-0.078663,0.0902,-0.204381,0.971548,-0.053258,-0.021781,3.1e-05,0.001924,0.003246,0.00273,0.143112,0.189719,-0.971352,0.143605894373664
-0.079243,0.090064,-0.204294,0.971531,-0.054578,-0.033317,0.001219,0.000484,0.002158,0.008071,0.142622,0.190773,-0.971218,0.14311019246027643
-0.079834,0.089778,-0.204231,0.971523,-0.050301,-0.050257,-0.004168,-0.001465,0.001782,0.00663,0.141833,0.191792,-0.971133,0.14231352486031035
-0.080429,0.089346,-0.204163,0.971528,-0.049815,-0.061604,-0.002402,-0.001961,0.006735,-0.000853,0.140763,0.192759,-0.971097,0.14123207573403024
-0.081075,0.088963,-0.204041,0.971535,-0.057007,-0.0501,0.00893,-0.00014,0.008782,-0.00684,0.139777,0.193838,-0.971025,0.14023527945529848
-0.081708,0.088611,-0.203828,0.971558,-0.054635,-0.048589,0.01837,-0.003369,0.007986,-0.004986,0.138873,0.194892,-0.970944,0.1393229888321033
-0.082247,0.088166,-0.203552,0.971611,-0.038411,-0.058821,0.021016,-0.002782,0.005711,-0.002605,0.137844,0.195717,-0.970924,0.13828332231940596
-0.082678,0.087775,-0.203236,0.971676,-0.02759,-0.046267,0.031875,-0.000776,0.004778,-0.004645,0.136972,0.19635,-0.97092,0.1374033773151258
-0.082976,0.0875,-0.202864,0.971753,-0.01896,-0.028338,0.03397,0.00049,0.002846,-0.003842,0.136392,0.196765,-0.970917,0.13681753793768078
-0.083183,0.087248,-0.202513,0.971832,-0.004196,-0.034411,0.028961,-0.003163,0.001163,0.002666,0.13589,0.197018,-0.970937,0.13631125465734437
-0.083251,0.086886,-0.202213,0.971921,0.003133,-0.042932,0.026027,-0.002198,0.003131,0.004721,0.135224,0.196966,-0.97104,0.135639320593747
-0.083277,0.086477,-0.201905,0.972019,0.008773,-0.038428,0.029645,0.001411,0.003209,0.000969,0.134486,0.196814,-0.971173,0.13489522517578842
-0.082963,0.086171,-0.201604,0.972135,0.026483,-0.033878,0.029023,0.001361,0.00239,0.000546,0.134087,0.196048,-0.971383,0.1344934421026485
-0.08265,0.085864,-0.201303,0.972252,0.044193,-0.029327,0.028402,0.001312,0.00157,0.000123,0.133688,0.195282,-0.971593,0.1340889610364195
-0.082336,0.085558,-0.201002,0.972368,0.061903,-0.024777,0.02778,0.001263,0.00075,-0.0003,0.133289,0.194516,-0.971801,0.1336861720377384
-0.081805,0.085252,-0.200727,0.972496,0.067222,-0.018156,0.02627,0.002903,0.002298,-0.002573,0.132974,0.193335,-0.97208,0.13336853676347
-0.081219,0.085028,-0.200499,0.972612,0.059894,-0.011848,0.023223,0.003968,0.0041,-0.003805,0.13283,0.192085,-0.972347,0.13322358714405097
-0.080697,0.084852,-0.200331,0.972705,0.047234,-0.007237,0.014065,0.004124,0.004314,-0.003783,0.13274,0.190986,-0.972576,0.1331326399934332
-0.080272,0.084761,-0.200254,0.972764,0.040247,-0.003809,0.005819,0.002513,0.002546,-0.00164,0.132755,0.190118,-0.972744,0.1331483921276091
-0.079926,0.084691,-0.200267,0.972796,0.038049,-0.000775,-0.002599,0.003267,6.5e-05,-0.00015,0.13276,0.189426,-0.972879,0.13315417426444132
-0.079594,0.084622,-0.200326,0.972817,0.034812,-0.001792,-0.002989,0.001928,0.00023,-0.000397,0.132754,0.188764,-0.973008,0.13314700427160267
-0.079268,0.084585,-0.200374,0.972837,0.036202,-0.0049,0.001096,0.002151,0.00054,7.2e-05,0.132809,0.188128,-0.973124,0.1332018880121794
-0.078944,0.084514,-0.200344,0.972876,0.037331,-0.00618,0.006299,0.002405,-0.000378,0.001235,0.132811,0.187469,-0.973251,0.13320494330740604
-0.078573,0.084366,-0.200251,0.972938,0.036988,-0.014098,0.013886,0.001113,0.001699,0.002226,0.132696,0.186682,-0.973418,0.13308968305098623
-0.078276,0.084157,-0.200079,0.973015,0.026737,-0.019197,0.022442,0.000664,0.001441,0.00075,0.13245,0.186004,-0.973581,0.13283962396491605
-0.078087,0.083975,-0.199824,0.973099,0.020194,-0.019878,0.021078,0.003035,-0.001906,-0.000592,0.132224,0.185533,-0.973701,0.13261301546596316
-0.077919,0.083737,-0.199681,0.973162,0.019033,-0.0185,0.009523,0.004034,-0.003579,-0.003313,0.131862,0.185096,-0.973834,0.13224658845833656
-0.077872,0.083457,-0.199626,0.973201,0.012682,-0.024989,0.010049,0.002176,-0.001278,-0.002737,0.13135,0.184891,-0.973942,0.13173097859932148
-0.077826,0.083177,-0.199572,0.97324,0.00633,-0.031478,0.010575,0.000317,0.001023,-0.002161,0.130838,0.184685,-0.97405,0.13121478987007795
-0.077779,0.082897,-0.199518,0.973279,-2.2e-05,-0.037967,0.011101,-0.001541,0.003323,-0.001585,0.130326,0.18448,-0.974157,0.130698984694182
-0.077817,0.082632,-0.199341,0.973334,-0.005607,-0.026299,0.025984,0.001184,0.005416,-0.006102,0.129832,0.184428,-0.974233,0.13020038382630283
-0.077869,0.08252,-0.199023,0.973405,-0.008917,-0.013164,0.033032,0.002433,0.003061,-0.00739,0.129654,0.184443,-0.974254,0.13002135483019206
-0.07798,0.082588,-0.198643,0.973468,-0.021153,0.004665,0.036731,0.000887,0.000981,-0.00711,0.129813,0.184633,-0.974197,0.13018057126220484
-0.07822,0.082685,-0.198311,0.973508,-0.028041,0.001701,0.020996,-0.001529,-0.001032,-0.002536,0.129965,0.18509,-0.97409,0.13033392744936015
-0.078515,0.082754,-0.198211,0.973498,-0.031554,-0.003733,-0.002044,-0.002217,-0.003199,-0.000476,0.129996,0.185675,-0.973974,0.13036558454657524
-0.078913,0.082802,-0.198259,0.973453,-0.044667,0.003405,-0.012791,0.000475,-0.000452,-0.001889,0.129917,0.186468,-0.973833,0.130285557915595
-0.079355,0.082914,-0.198381,0.973382,-0.045297,0.001556,-0.012682,0.000154,-0.000146,-0.000611,0.129929,0.187383,-0.973656,0.1302973136644812
-0.079745,0.082991,-0.198466,0.973327,-0.036447,0.002865,-0.0123,-0.001819,-0.002877,0.001079,0.129901,0.188178,-0.973506,0.13026955641285462
-0.080004,0.082983,-0.198522,0.973295,-0.02515,-0.0104,-0.005452,-0.00419,-0.000219,0.002131,0.129768,0.188683,-0.973426,0.13013577404542104
-0.080234,0.082905,-0.198476,0.973291,-0.023768,-0.00701,0.008382,-0.00409,0.003821,-0.004686,0.129533,0.189092,-0.973378,0.1298973256281673
-0.080468,0.082936,-0.198294,0.973307,-0.023219,-0.005967,0.020458,-0.004601,0.003313,-0.003059,0.129532,0.189532,-0.973293,0.1298967221217693
-0.080711,0.083017,-0.198081,0.973323,-0.02458,-0.000151,0.019044,-0.004892,0.000216,-0.003365,0.129629,0.190005,-0.973188,0.12999590260715702
-0.080952,0.083071,-0.197949,0.973325,-0.025646,0.007901,0.000994,-0.001549,-0.003904,-0.00469,0.129662,0.190473,-0.973092,0.13002751687369152
-0.081191,0.08323,-0.197961,0.973289,-0.027501,0.017937,-0.006304,-0.001505,-0.003381,-0.003923,0.129869,0.190998,-0.972961,0.13023623824121588
-0.081446,0.083551,-0.198059,0.973221,-0.026298,0.031496,-0.015565,-0.001568,-0.003688,-0.004147,0.130364,0.191627,-0.972772,0.13073706097174384
-0.081587,0.083805,-0.198257,0.973147,-0.012897,0.02644,-0.020821,-0.004161,-0.00493,0.000242,0.130759,0.192021,-0.972641,0.13113429325554432
-0.08158,0.08402,-0.198481,0.973083,0.002784,0.022021,-0.019611,-0.003591,-0.002783,0.00267,0.131133,0.19212,-0.972571,0.13151146730949057
-0.081457,0.084167,-0.198654,0.973045,0.00786,0.016564,-0.011301,-0.002522,-0.000401,0.001557,0.131432,0.191964,-0.972561,0.13181442130711177
-0.081309,0.084292,-0.198717,0.973034,0.006898,0.016699,0.001419,-0.000404,0.001254,0.000955,0.131724,0.191733,-0.972567,0.13210692788972664
-0.081198,0.084431,-0.198703,0.973034,0.002967,0.018958,0.005674,0.000387,0.000723,-0.002057,0.132039,0.191571,-0.972557,0.1324266123463299
-0.081128,0.084577,-0.198703,0.973027,-0.002229,0.017972,0.00163,0.00253,-7.5e-05,-0.002668,0.13235,0.191492,-0.97253,0.13274012409305713
-0.081112,0.084778,-0.198731,0.973006,-0.005554,0.022283,-0.005928,0.00281,-0.001706,-0.003331,0.13274,0.19154,-0.972467,0.13313300289074495
-0.081162,0.085013,-0.198869,0.972952,-0.006528,0.024616,-0.015106,0.003134,-0.000773,-0.002112,0.133145,0.191746,-0.972371,0.13354249528102666
-0.081241,0.085273,-0.199055,0.972885,-0.008865,0.022971,-0.01908,0.002941,-0.000393,0.000158,0.133578,0.192024,-0.972257,0.13397926227773693
-0.081292,0.085446,-0.19923,0.97283,-0.004789,0.013759,-0.014243,0.002112,0.000992,0.003594,0.133857,0.192214,-0.972181,0.13426024904287212
-0.081273,0.085552,-0.199353,0.972797,0.001187,0.006325,-0.006931,0.002912,0.000551,0.005329,0.134044,0.192235,-0.972151,0.1344501313898892
-0.081207,0.085566,-0.199381,0.972795,0.008861,-0.001959,0.000395,0.003192,0.001935,0.004315,0.134095,0.192117,-0.972168,0.13449923778348108
-0.081113,0.085496,-0.199368,0.972812,0.009334,-0.004107,-0.001567,0.003417,0.000772,0.00224,0.134,0.191905,-0.972222,0.1344046926380791
-0.081018,0.085426,-0.199355,0.972829,0.009808,-0.006256,-0.003529,0.003642,-0.000392,0.000165,0.133906,0.191694,-0.972277,0.1343105412991316
-0.080924,0.085355,-0.199342,0.972845,0.010281,-0.008405,-0.005491,0.003868,-0.001555,-0.00191,0.133812,0.191483,-0.972332,0.13421384345966444
-0.080877,0.085294,-0.19938,0.972847,0.003444,-0.005685,-0.010269,0.003371,-0.001201,-0.002157,0.133706,0.191373,-0.972368,0.13410713011252637
-0.080881,0.085255,-0.199483,0.972829,-0.003421,-0.001212,-0.010637,0.003076,-0.001048,-0.001268,0.133609,0.191381,-0.97238,0.13400904226335636
-0.080967,0.085291,-0.199574,0.9728,-0.008067,0.001315,-0.007261,0.003538,-0.00089,-0.001332,0.133624,0.191574,-0.97234,0.1340252372213417
-0.081053,0.085326,-0.199665,0.972771,-0.012714,0.003842,-0.003884,0.004,-0.000733,-0.001395,0.133638,0.191766,-0.9723,0.13403943326213313
-0.081155,0.085336,-0.199646,0.972766,-0.010069,-0.005015,-0.001802,0.000437,-0.003072,0.002601,0.13362,0.191963,-0.972263,0.1340202151937547
-0.081218,0.085223,-0.199704,0.972758,0.000478,-0.02119,-0.006964,-0.000682,-0.004243,0.003281,0.133364,0.192051,-0.972281,0.1337621198615285
-0.081253,0.085019,-0.199717,0.972771,-0.002292,-0.017733,-0.001803,0.000169,-0.00186,-0.002449,0.132953,0.192041,-0.972339,0.1333476624015791
-0.081308,0.084946,-0.199704,0.972775,-0.008395,-0.004594,0.002257,0.002299,0.001315,-0.005934,0.132793,0.192117,-0.972346,0.13318502042354602
-0.081511,0.08511,-0.199594,0.972766,-0.022002,0.0012,0.007245,0.000466,0.001667,-0.004222,0.133046,0.192557,-0.972225,0.13344168867618444
-0.081714,0.085273,-0.199483,0.972758,-0.035608,0.006993,0.012233,-0.001367,0.002018,-0.00251,0.1333,0.192996,-0.972103,0.13369682388852178
-0.082022,0.085399,-0.19942,0.972734,-0.037824,0.000812,-0.002731,-0.001164,-0.001256,0.000262,0.133428,0.193632,-0.971959,0.1338264711038599
-0.082376,0.085459,-0.199491,0.972684,-0.03594,-0.001773,-0.014587,0.00164,-0.001012,0.000409,0.133383,0.194348,-0.971822,0.13378136334078541
-0.082747,0.085559,-0.199615,0.972618,-0.035602,0.002789,-0.015219,0.00105,4e-05,0.001698,0.133397,0.19512,-0.971665,0.13379619531893577
-0.083001,0.085478,-0.199764,0.972573,-0.024141,-0.00881,-0.014128,-0.00082,0.001718,0.002441,0.133106,0.1956,-0.971609,0.13350217748147203
-0.083256,0.085397,-0.199912,0.972528,-0.01268,-0.020409,-0.013037,-0.002689,0.003397,0.003184,0.132815,0.196081,-0.971552,0.1332077978271906
-0.083389,0.085211,-0.199975,0.97252,-0.009532,-0.024692,-0.005613,-0.003296,0.006003,-0.000771,0.132388,0.196276,-0.97157,0.13277716775855242
-0.083559,0.085113,-0.199908,0.972528,-0.01516,-0.017225,0.001291,-0.003241,0.005455,-0.001632,0.132142,0.196556,-0.971547,0.13252894024364947
-0.083728,0.085016,-0.199842,0.972535,-0.020789,-0.009758,0.008196,-0.003186,0.004907,-0.002492,0.131896,0.196836,-0.971524,0.13228278869754528
-0.083953,0.084897,-0.199782,0.972539,-0.009527,-0.016189,-0.001734,-0.001467,0.001015,-0.002281,0.131586,0.197216,-0.971489,0.1319694186808686
-0.084062,0.084796,-0.199817,0.972531,-0.002153,-0.005613,-0.005433,-0.000579,-0.001778,-0.0036,0.13134,0.197393,-0.971486,0.13172000762889624
-0.084131,0.084789,-0.199879,0.972513,-0.000643,0.002741,-0.001696,0.000785,0.001328,-0.002961,0.131285,0.197531,-0.971466,0.1316648552405972
-0.084133,0.08478,-0.199911,0.972507,0.009478,-0.002479,-0.000858,-0.003,0.000896,0.001234,0.13126,0.197537,-0.971468,0.13163993294939855
-0.084033,0.084686,-0.199926,0.972521,0.015921,-0.005131,0.002046,-0.001545,0.001018,0.001714,0.131118,0.197309,-0.971533,0.1314956873995067
-0.083824,0.084624,-0.199916,0.972546,0.018237,0.00036,0.002607,6e-05,0.001182,-0.000539,0.131086,0.196881,-0.971625,0.13146430064284184
-0.083633,0.084555,-0.19988,0.972576,0.021434,-0.004369,0.002436,-0.000892,8.3e-05,0.000242,0.13104,0.19648,-0.971712,0.13141714532568383
-0.083451,0.084467,-0.19988,0.972599,0.01842,-0.003271,0.002707,-0.000671,0.000703,-0.000551,0.130944,0.196095,-0.971803,0.13132179213458894
-0.08333,0.084409,-0.199857,0.972619,0.013413,-0.002645,0.001086,-0.000696,0.00036,-0.001264,0.130887,0.195836,-0.971862,0.13126405422685314
-0.083256,0.084364,-0.199868,0.972627,0.003041,-0.00161,0.001289,0.000462,0.002027,-0.000329,0.130828,0.195678,-0.971902,0.13120510867761848
-0.083299,0.084355,-0.199874,0.972623,-0.004945,-0.000548,-0.000901,0.00063,0.001664,-0.001348,0.130792,0.195757,-0.971891,0.1311684230891991
-0.083342,0.084346,-0.199879,0.972619,-0.012932,0.000514,-0.003091,0.000797,0.001301,-0.002368,0.130757,0.195837,-0.97188,0.1311319049100913
-0.083473,0.084389,-0.199929,0.972594,-0.016594,0.00456,-0.005129,0.000955,-0.000452,-0.002014,0.130775,0.196115,-0.971821,0.1311507771464909
-0.083607,0.084483,-0.200006,0.972559,-0.008288,0.003606,-0.009333,0.002073,-0.003431,0.000448,0.130886,0.19642,-0.971745,0.1312622123700173
-0.083666,0.084547,-0.200138,0.972521,-0.002043,0.009579,-0.013219,0.000872,-0.003156,-0.001801,0.130958,0.196576,-0.971704,0.1313352141663976
-0.083637,0.084629,-0.200275,0.972488,0.004529,0.008363,-0.012271,0.000222,-0.000803,-0.000458,0.131101,0.19657,-0.971686,0.13147905367491275
-0.083559,0.084693,-0.200416,0.97246,0.00999,0.006786,-0.009295,0.000298,0.000261,-0.000625,0.131228,0.196463,-0.97169,0.1316075789684524
-0.083403,0.084708,-0.200505,0.972454,0.014996,0.004087,-0.006823,0.000473,0.000479,-0.001687,0.131304,0.19618,-0.971737,0.13168408229886952
-0.083197,0.084732,-0.200583,0.972453,0.021539,0.007096,-0.002427,0.000432,1.8e-05,-0.002466,0.131421,0.195803,-0.971797,0.13180123514525252
-0.082942,0.084769,-0.200636,0.972461,0.021907,0.005219,-0.00297,0.000206,0.000335,-0.000529,0.131588,0.195331,-0.97187,0.13196951988083666
-0.082686,0.084806,-0.200689,0.972468,0.022274,0.003343,-0.003513,-2.1e-05,0.000653,0.001408,0.131755,0.194859,-0.971942,0.13213809790971737
-0.082525,0.084809,-0.200767,0.972466,0.014816,0.003203,-0.004824,0.000238,0.000629,-0.000166,0.131811,0.19456,-0.971994,0.13219584507280913
-0.082396,0.08482,-0.200866,0.972455,0.011017,0.004925,-0.008704,0.001309,0.00029,-0.002496,0.131866,0.194328,-0.972033,0.13225134117782578
-0.082294,0.084866,-0.200997,0.972433,0.007085,0.009655,-0.01139,0.001861,-0.000443,-0.001404,0.131971,0.194165,-0.972051,0.1323574156035865
-0.082214,0.084927,-0.20112,0.972409,0.010488,0.003841,-0.014208,-0.000529,-0.001989,0.001723,0.132098,0.194053,-0.972056,0.13248502804194787
-0.08208,0.084856,-0.201253,0.972399,0.013542,0.004687,-0.010655,0.001247,-0.001643,-0.001176,0.131991,0.193784,-0.972125,0.1323763642489014
-0.081945,0.084786,-0.201386,0.972389,0.016596,0.005533,-0.007103,0.003023,-0.001297,-0.004076,0.131885,0.193514,-0.972193,0.13227014504534135
-0.081748,0.084852,-0.201489,0.972378,0.017809,0.021115,-0.006946,0.003767,-0.001318,-0.006849,0.132074,0.193174,-0.972235,0.13246080747026426
-0.081588,0.085082,-0.201554,0.972358,0.005643,0.028971,-0.00048,0.001513,0.00282,-0.003815,0.132571,0.192964,-0.972209,0.13296298390670938
-0.081551,0.085328,-0.201557,0.972339,-0.007544,0.016451,-0.004097,-0.002722,0.00336,-0.000968,0.133061,0.192986,-0.972137,0.13345694342650694
-0.081658,0.085442,-0.201637,0.972303,-0.017211,0.006771,-0.007765,-0.001981,0.004023,-5.8e-05,0.133221,0.19325,-0.972063,0.13361771776938333
-0.081861,0.085564,-0.201702,0.972262,-0.024741,0.0085,-0.007482,0.001337,0.004247,0.000634,0.133358,0.193698,-0.971955,0.13375667680969433
-0.082096,0.085704,-0.201778,0.972214,-0.02054,0.006918,-0.008556,0.00069,0.000849,0.002364,0.133516,0.194216,-0.97183,0.13391481825640728
-0.082262,0.08573,-0.20186,0.972181,-0.007583,-0.001933,-0.010854,-0.000912,-0.001137,0.004218,0.13348,0.194559,-0.971766,0.13387891255564047
-0.082387,0.085622,-0.201974,0.972156,-0.003309,-0.010019,-0.01196,-0.001444,0.001277,0.001774,0.133196,0.194773,-0.971762,0.13359283665900565
-0.082505,0.085493,-0.202022,0.972148,-0.00899,-0.017541,-0.003209,-0.00085,0.008355,-0.004411,0.132889,0.194957,-0.971768,0.13328230568454208
-0.08269,0.085473,-0.201961,0.972146,-0.017844,-0.00658,0.011078,0.002491,0.007761,-0.005211,0.132784,0.195299,-0.971713,0.1331774890291146
-0.082867,0.085463,-0.201804,0.972165,-0.013416,-0.008517,0.015503,-0.000154,0.001971,-0.001285,0.132722,0.195614,-0.971658,0.1331152690447528
-0.082936,0.085301,-0.201705,0.972194,0.005772,-0.010471,0.001947,0.001286,-0.001699,-0.002697,0.1324,0.19567,-0.971691,0.1327909451772039
-0.082901,0.085253,-0.201657,0.972211,0.010537,-0.000867,0.006142,0.002124,-0.000419,-0.001945,0.132333,0.195578,-0.971719,0.13272198419942652
-0.082808,0.0853,-0.201624,0.972221,0.013041,0.008734,0.00364,0.000465,-9.2e-05,-0.000426,0.13247,0.195412,-0.971733,0.132859260103065
-0.082616,0.085258,-0.201629,0.97224,0.028234,-0.003148,-0.004908,-0.001327,-0.002396,0.003638,0.132467,0.195027,-0.971811,0.13285741453463432
-0.082315,0.085132,-0.201679,0.972267,0.029547,-0.007365,0.001777,-0.001542,0.001041,0.001612,0.13234,0.194402,-0.971954,0.132729025998807
-0.082041,0.085095,-0.20166,0.972297,0.024738,0.002565,0.006295,-3.4e-05,0.002414,-0.001915,0.132386,0.193857,-0.972056,0.13277623698600063
-0.081791,0.085084,-0.201611,0.972329,0.021247,0.003226,0.009165,-0.001403,0.002701,-0.002383,0.13248,0.193364,-0.972142,0.13286996288631936
-0.081574,0.085104,-0.201553,0.972358,0.01972,0.003634,0.005232,-5.7e-05,-7.9e-05,-0.003192,0.13262,0.192943,-0.972206,0.13301200718504747
-0.0814,0.085087,-0.201535,0.972377,0.015637,0.001527,0.002826,-0.000116,-0.001703,-0.003365,0.132663,0.192599,-0.972269,0.13305563667126216
-0.081282,0.085121,-0.201553,0.972381,0.009255,0.007539,-0.001065,0.001121,-0.000159,-0.002197,0.132775,0.192388,-0.972295,0.13316807000332148
-0.081208,0.085196,-0.201577,0.972375,0.006218,0.007071,-0.001193,0.000127,7.7e-05,-0.000689,0.132945,0.192277,-0.972294,0.13334036408534725
-0.081134,0.08527,-0.201602,0.97237,0.003181,0.006603,-0.001322,-0.000867,0.000312,0.000818,0.133115,0.192166,-0.972292,0.13351071364672484
-0.081082,0.085357,-0.20161,0.972365,0.004011,0.006021,-0.0011,-0.000267,-0.000485,-0.000376,0.133302,0.192101,-0.97228,0.13370041233912722
-0.080998,0.085403,-0.201603,0.972369,0.004544,0.0081,0.001122,0.00139,-0.001738,-0.002004,0.133427,0.191955,-0.972291,0.13382668559572167
-0.080894,0.085471,-0.201578,0.972377,0.010315,0.005469,0.001477,0.002122,-0.002128,-3.1e-05,0.133608,0.191776,-0.972302,0.1340078959115033
-0.080768,0.085564,-0.201613,0.972372,0.007991,0.017762,-0.001866,0.000485,-0.002188,-0.003828,0.133833,0.191574,-0.972311,0.13423508664737135
-0.080651,0.085718,-0.201643,0.972362,0.008811,0.018624,-0.00338,0.000432,-0.000542,-0.002945,0.134173,0.191413,-0.972296,0.13457829665454343
-0.080541,0.08595,-0.201689,0.972341,0.000857,0.023844,-0.005178,0.001507,0.000592,-0.002643,0.134657,0.191298,-0.972251,0.13506725159908903
-0.080517,0.086186,-0.201762,0.972307,-0.010703,0.020001,-0.005697,1e-06,0.001971,-8.9e-05,0.135109,0.191353,-0.972178,0.13552242101442455
-0.080601,0.086375,-0.201787,0.972278,-0.018518,0.015225,-0.000808,0.000614,0.001939,-0.000565,0.135432,0.191591,-0.972086,0.13585002837068896
-0.080776,0.086573,-0.201812,0.972241,-0.023789,0.015561,-0.005024,0.002151,-0.001483,-0.000834,0.135737,0.19201,-0.971961,0.13615681272154845
-0.080917,0.086789,-0.201857,0.9722,-0.016783,0.017671,-0.009237,0.002881,-0.004646,0.001572,0.136085,0.192374,-0.97184,0.13650877647036103
-0.081045,0.086931,-0.201968,0.972154,-0.00413,0.010755,-0.011342,0.00138,-0.003524,0.005098,0.136284,0.192691,-0.971749,0.13670908238627041
-0.081086,0.086983,-0.202096,0.972119,-0.000372,0.003075,-0.012349,0.001745,-0.001155,0.001206,0.136341,0.192808,-0.971718,0.13676732181354373
-0.081087,0.087024,-0.202179,0.972098,-8.3e-05,-0.001617,-0.008501,0.001235,-0.000403,0.002266,0.136405,0.192838,-0.971703,0.1368301024489041
-0.081088,0.087066,-0.202261,0.972078,0.000206,-0.006309,-0.004654,0.000724,0.00035,0.003326,0.136468,0.192867,-0.971689,0.13689518181333463
-0.081116,0.086895,-0.202288,0.972085,-0.000972,-0.025814,-0.003204,5.4e-05,0.000683,0.002279,0.136121,0.192859,-0.971739,0.13654497276065544
-0.081177,0.086682,-0.202255,0.972106,-0.003727,-0.013026,0.003879,0.002896,0.000362,-0.006035,0.135692,0.192889,-0.971793,0.13611115868562904
-0.08121,0.086691,-0.202201,0.972113,-0.001517,0.005126,0.000191,0.005038,-0.002034,-0.006599,0.135705,0.192949,-0.971779,0.1361254240695711
-0.081221,0.086848,-0.202177,0.972103,-0.011472,0.022603,0.007589,0.003446,-9e-06,-0.005399,0.136009,0.193027,-0.971721,0.13643121593656324
-0.081315,0.087121,-0.202074,0.972093,-0.013483,0.01379,0.007155,-0.00046,-0.002049,0.001296,0.136517,0.193301,-0.971596,0.13694376401219627
-0.081403,0.087189,-0.202067,0.97208,-0.010118,0.001395,-0.005675,-0.000881,-0.001896,0.001913,0.136613,0.193497,-0.971543,0.1370401796568239
-0.081551,0.087269,-0.202117,0.972051,-0.015341,0.002056,-0.004039,-0.000162,-0.001144,0.001734,0.136693,0.19382,-0.971467,0.13712346522551708
-0.081699,0.087348,-0.202167,0.972021,-0.020563,0.002718,-0.002403,0.000557,-0.000392,0.001556,0.136774,0.194143,-0.971391,0.13720457366182848
-0.081872,0.087352,-0.202196,0.972,-0.009642,-0.010782,-0.006604,-0.000379,-0.001126,0.006055,0.136704,0.194484,-0.971333,0.13713331334549828
-0.081959,0.087197,-0.20221,0.972003,-0.005186,-0.017584,-0.000867,-0.000586,-1.9e-05,0.004419,0.136365,0.194594,-0.971359,0.13679184178399187
-0.082045,0.086954,-0.202189,0.972022,-0.00564,-0.026828,0.001483,-0.002499,0.003833,0.001923,0.135865,0.194661,-0.971415,0.13628671714017304
-0.08222,0.086786,-0.202076,0.972046,-0.021261,-0.015893,0.015235,-0.000177,0.006643,-0.004626,0.13549,0.194917,-0.971416,0.1359086026189265
-0.082474,0.086644,-0.201863,0.972081,-0.026635,-0.016818,0.018374,-0.002105,0.003605,-0.004126,0.135152,0.195323,-0.971382,0.1355679525464235
-0.082738,0.086465,-0.201665,0.972116,-0.01449,-0.028635,0.012073,-0.00216,-0.000643,-0.002643,0.134738,0.195736,-0.971356,0.13514834253363664
-0.082943,0.086337,-0.201572,0.972129,-0.013448,-0.009413,0.006334,0.001611,-0.002583,-0.006467,0.134423,0.196069,-0.971333,0.1348315887362011
-0.083109,0.086401,-0.201483,0.972128,-0.015188,0.010233,0.007836,0.001136,-0.000693,-0.006762,0.134495,0.196402,-0.971256,0.13490438096384644
-0.083214,0.086472,-0.201448,0.97212,-0.001136,0.003626,-0.001167,-0.00277,-0.002229,0.00164,0.134596,0.196627,-0.971196,0.1350054723215079
-0.083151,0.086421,-0.201464,0.972126,0.006639,-0.000498,-0.000269,-0.000955,-0.001386,0.001402,0.134521,0.196488,-0.971235,0.13492938276938798
-0.082999,0.086443,-0.201461,0.972138,0.012597,0.003523,0.00157,0.000549,-0.001051,-0.00025,0.134626,0.196203,-0.971278,0.1350369524930461
-0.082844,0.086493,-0.201472,0.972144,0.013814,0.003985,-0.000506,0.000765,-0.001002,-0.000488,0.134786,0.195925,-0.971311,0.13519729599232044
-0.082709,0.086463,-0.201498,0.972153,0.010448,0.00273,-0.003686,0.000745,0.000277,-0.003,0.13478,0.195657,-0.971367,0.13519055878270983
-0.082612,0.08652,-0.201541,0.972148,0.003504,0.005966,-0.001676,-9.4e-05,-0.00115,-0.00159,0.13492,0.195497,-0.971379,0.13533381349199444
-0.08259,0.086538,-0.201581,0.97214,0.00113,0.005631,-0.005204,0.000349,-0.000274,-0.002573,0.134958,0.195467,-0.97138,0.13537001794535178
-0.082594,0.086642,-0.201653,0.972115,-0.004971,0.008777,-0.007942,0.002786,-0.000948,-0.002302,0.135141,0.195524,-0.971343,0.13555608940037117
-0.082691,0.086744,-0.201756,0.972076,-0.013926,0.010653,-0.010846,0.00369,0.001296,-0.001079,0.135277,0.195767,-0.971275,0.13569273459992093
-0.082841,0.086863,-0.201826,0.972038,-0.016035,0.009938,-0.007671,0.002965,-2.9e-05,0.00086,0.13543,0.196111,-0.971184,0.13584678017436638
-0.082973,0.086934,-0.201944,0.971996,-0.007367,0.000522,-0.013961,0.002125,-0.001226,0.003489,0.135488,0.196411,-0.971116,0.13590518170622812
-0.083024,0.086936,-0.20209,0.971961,-0.005152,-0.007419,-0.013038,0.001266,0.000784,0.001768,0.135441,0.19653,-0.971098,0.1358577052510982
-0.083128,0.086902,-0.202184,0.971936,-0.008013,-0.002282,-0.003904,0.002757,0.003698,-0.002626,0.135311,0.19673,-0.971076,0.13572841379828698
-0.08321,0.086941,-0.202158,0.971931,-0.001911,-0.001249,0.003115,0.00199,0.001818,-0.001977,0.135359,0.196901,-0.971034,0.13577495229999775
-0.08318,0.086899,-0.20214,0.971941,0.00762,-0.00405,0.000541,0.001748,-0.000926,-0.000564,0.135294,0.196823,-0.971059,0.13570957059999575
-0.083054,0.086879,-0.202114,0.971959,0.013605,-0.006002,0.001056,0.001214,0.000838,0.001275,0.135314,0.196569,-0.971108,0.13572925974851355
-0.082937,0.086775,-0.2021,0.971981,0.010875,-0.006371,-0.000641,0.0013,0.003573,0.000152,0.135164,0.1963,-0.971183,0.13557914822425557
-0.082871,0.086696,-0.202068,0.972,0.005428,-0.007292,0.005859,0.00131,0.00389,2.2e-05,0.135046,0.196139,-0.971232,0.13545975594431403
-0.082832,0.086629,-0.202015,0.972021,0.004808,-0.007397,0.006599,0.000146,0.000434,2e-06,0.134944,0.19603,-0.971269,0.13535674492652935
-0.082785,0.086544,-0.201943,0.972047,0.010273,-0.013145,0.006572,1.6e-05,4.7e-05,0.0,0.134813,0.195896,-0.971314,0.13522571475282538
-0.082726,0.086437,-0.201853,0.97208,0.005804,-0.010788,0.009388,-0.000815,0.000278,-0.000139,0.13465,0.195728,-0.97137,0.135060616130043
-0.082722,0.08631,-0.20174,0.972116,0.001846,-0.010675,0.007912,0.00022,0.001879,0.001818,0.13443,0.195656,-0.971415,0.13483821004021113
-0.082782,0.086194,-0.201653,0.972139,-0.005844,-0.016071,0.00691,2.3e-05,0.000194,0.000187,0.134199,0.195713,-0.971435,0.13460472364826845
-0.08289,0.086128,-0.201585,0.97215,-0.011037,0.000553,0.000243,0.000738,-0.001525,-0.007337,0.134039,0.195886,-0.971423,0.1344445651073141
-0.08301,0.086171,-0.201587,0.972135,-0.005175,-0.001206,-0.00054,-0.000387,-0.004589,-0.001205,0.134072,0.196135,-0.971368,0.13447716670752852
-0.083048,0.08616,-0.20162,0.972126,0.001463,-0.006016,-0.012093,-0.00084,-0.007412,0.002003,0.134029,0.19621,-0.971359,0.1344330287110379
-0.083019,0.085923,-0.201778,0.972116,0.009049,-0.02066,-0.015239,-0.001749,-0.00476,0.002036,0.133552,0.196084,-0.97145,0.13395165478773458
-0.082962,0.085852,-0.201901,0.972102,0.004283,0.010165,-0.0091,0.003725,0.001577,-0.007569,0.133413,0.195962,-0.971494,0.13381255976181955
-0.082886,0.086059,-0.201989,0.972072,-0.009476,0.028049,-0.001144,0.002655,0.002031,-0.010603,0.133826,0.195907,-0.971448,0.1342296880232517
-0.082952,0.086481,-0.201962,0.972035,-0.021947,0.038716,0.005055,0.000127,0.002877,-0.006188,0.134618,0.196195,-0.97128,0.1350287647916487
-0.083089,0.086707,-0.201969,0.972001,-0.015857,0.013323,-0.009883,-0.001416,-0.000609,0.000571,0.134996,0.19655,-0.971156,0.1354092003829571
-0.083253,0.086845,-0.202134,0.971941,-0.020287,0.007454,-0.011746,-1.4e-05,0.00058,0.000673,0.13516,0.196942,-0.971054,0.13557485011872353
-0.08347,0.086981,-0.20224,0.971888,-0.024996,0.007068,-0.008718,0.000417,0.002579,0.002563,0.13531,0.197428,-0.970934,0.13572596448846613
-0.083701,0.087007,-0.202337,0.971845,-0.014952,-0.008506,-0.009959,-0.00202,0.002223,0.00494,0.135242,0.197899,-0.970848,0.13565872915525629
-0.083836,0.086873,-0.202335,0.971846,-0.00722,-0.020128,-0.003309,-0.001176,0.001851,0.004014,0.134928,0.198106,-0.970849,0.13534124268568004
-0.083905,0.086689,-0.202245,0.971875,-0.008326,-0.011027,0.00636,0.000376,0.00484,-0.001999,0.134564,0.198156,-0.97089,0.13497244866324237
-0.083974,0.086506,-0.202155,0.971904,-0.009433,-0.001925,0.01603,0.001928,0.007829,-0.008012,0.134199,0.198206,-0.97093,0.13460563818884322
-0.084103,0.086513,-0.20198,0.971929,-0.007274,-0.012838,0.015052,-0.001654,0.001821,0.00105,0.134195,0.198433,-0.970884,0.1346008068537535
-0.084192,0.086416,-0.201994,0.971927,-0.003061,-0.007566,0.001854,-0.00022,3e-05,-0.002017,0.133967,0.198568,-0.970888,0.1343715268305809
-0.08428,0.086319,-0.202008,0.971925,0.001151,-0.002293,-0.011345,0.001214,-0.001762,-0.005084,0.13374,0.198702,-0.970892,0.1341426573461133
-0.084299,0.086365,-0.20208,0.971905,-0.00058,0.013714,-0.004131,0.000717,0.001728,-0.006212,0.133807,0.198766,-0.97087,0.13420940441592577
-0.084295,0.086558,-0.202105,0.971883,0.006607,0.015025,6e-05,-0.002532,0.000965,-0.000818,0.134175,0.198838,-0.970804,0.13458150852900347
-0.084177,0.086606,-0.202152,0.971879,0.014478,0.001664,-0.000506,-0.005113,-0.001717,0.00257,0.134309,0.198635,-0.970827,0.13471510986972998
-0.083964,0.086648,-0.202134,0.971897,0.011879,0.012881,0.006312,-0.000181,0.000553,0.000789,0.134482,0.198237,-0.970885,0.134890598550313
-0.083777,0.086718,-0.202111,0.971912,0.01055,0.002894,0.004399,-0.000406,0.000159,0.002622,0.134701,0.197902,-0.970923,0.13511072036376592
-0.083691,0.086777,-0.202117,0.971913,0.003032,0.007604,0.000237,0.001135,-0.001064,-0.00295,0.134849,0.197759,-0.970931,0.13526070676197624
-0.083677,0.086792,-0.202154,0.971905,0.0017,0.00817,-0.005459,0.002647,-0.002298,-0.002296,0.134876,0.197742,-0.970931,0.13528819376950516
-0.083657,0.086952,-0.20225,0.971872,-0.001096,0.017435,-0.006621,0.002413,-0.002951,-0.001614,0.135173,0.197779,-0.970882,0.13558823626682945
-0.083653,0.087082,-0.202366,0.971837,-0.005298,0.009497,-0.010893,0.000981,-0.000423,7.7e-05,0.135402,0.197839,-0.970838,0.1358191607847902
-0.083766,0.087264,-0.202492,0.971784,-0.023047,0.023366,-0.009129,0.005093,0.001787,-0.002661,0.13568,0.198146,-0.970736,0.1360994018520316
-0.083986,0.08747,-0.202603,0.971724,-0.023743,0.017349,-0.013628,0.004333,-2.7e-05,-0.001385,0.135963,0.198666,-0.970591,0.13638417798572328
-0.084206,0.087677,-0.202713,0.971663,-0.02444,0.011331,-0.018126,0.003573,-0.00184,-0.000109,0.136245,0.199186,-0.970444,0.1366707713569389
-0.084392,0.087805,-0.202963,0.971583,-0.019099,0.010733,-0.026903,0.003435,-0.002573,-0.000721,0.136362,0.199631,-0.970336,0.13678896615811525
-0.084554,0.087887,-0.203181,0.971516,-0.012942,0.004522,-0.027326,0.001122,0.000269,0.000778,0.136408,0.200004,-0.970253,0.13683432721550287
-0.084655,0.087987,-0.203423,0.971448,-0.008406,0.004236,-0.017247,0.001343,0.000978,0.00018,0.136508,0.200272,-0.970184,0.13693559588146587
-0.084717,0.087992,-0.203557,0.971414,-0.002608,0.00093,-0.009093,0.001149,0.00107,0.001475,0.136463,0.200413,-0.970161,0.13689098078977355
-0.084704,0.088062,-0.2036,0.9714,-0.002074,-0.000713,-0.001914,0.00057,0.001969,0.00071,0.136595,0.200421,-0.970141,0.13702376433837804
-0.084681,0.088055,-0.203622,0.971398,0.002968,0.001797,-0.002397,-0.000667,0.000289,-0.001453,0.136587,0.200379,-0.970151,0.13701537351131957
-0.084681,0.088055,-0.203622,0.971398,0.001231,-0.001753,0.001562,0.000518,0.001952,0.000626,0.136587,0.200377,-0.970151,0.13701537351131957
-0.084669,0.088034,-0.203604,0.971404,0.000962,-0.003194,0.000339,0.000532,0.000588,-0.001978,0.136555,0.200344,-0.970162,0.13698326537044753
-0.084657,0.088012,-0.203586,0.971411,0.004753,-0.003076,0.002251,0.00232,-4.3e-05,-0.001738,0.136522,0.20031,-0.970174,0.1369493724958215
-0.084611,0.08796,-0.20357,0.971423,0.008833,-0.004404,0.000233,0.002623,-0.001573,-0.000246,0.136444,0.200199,-0.970208,0.13687116239855288
-0.084526,0.087829,-0.203593,0.971438,0.013446,-0.008803,0.001106,0.001526,-0.001238,0.00097,0.136223,0.199986,-0.970283,0.13664791871542853
-0.084423,0.087735,-0.2036,0.971454,0.008126,-0.007078,0.000202,0.002613,-0.001599,-0.000197,0.136084,0.199751,-0.970351,0.13650754695040784
-0.084364,0.087553,-0.203602,0.971475,0.010646,-0.017979,-0.000248,0.000824,-0.001002,-0.000523,0.135758,0.199568,-0.970434,0.13617824625264963
