timestamp,quat_x,quat_y,quat_z,quat_w,rot_x,rot_y,rot_z,acc_x,acc_y,acc_z,grav_x,grav_y,grav_z,pitch_rad
1760171774.50472,0.046117,0.053986,-0.0,0.997476,-0.009795,-0.002746,-0.013919,-0.000978,0.004128,0.0016,0.1077,-0.092002,-0.989917,-0.10790933816128577
1760171774.505065,0.046035,0.054002,-9.4e-05,0.997479,-0.012916,0.006177,-0.014755,-0.00035,0.004789,0.002776,0.107741,-0.091829,-0.989929,-0.10795053541776654
1760171774.537026,0.045941,0.054053,-0.000215,0.997481,-0.01529,0.007422,-0.020181,-0.000477,0.004481,0.000648,0.107854,-0.091628,-0.989935,-0.1080642320961035
1760171774.537341,0.045847,0.054104,-0.000336,0.997482,-0.017664,0.008667,-0.025607,-0.000604,0.004173,-0.001479,0.107967,-0.091427,-0.989942,-0.10817781696114154
1760171774.565375,0.044529,0.053895,-0.000873,0.997553,-0.008123,-0.003327,-0.02594,0.001606,-0.001522,0.000747,0.107605,-0.088745,-0.990225,-0.10781374294464333
1760171774.601385,0.044019,0.053853,-0.001194,0.997577,-0.002131,-0.017067,-0.013852,0.000643,-0.005791,-0.000682,0.107551,-0.087696,-0.990324,-0.10775946184914353
1760171774.601663,0.043891,0.053878,-0.001267,0.997582,0.001379,-0.009722,-0.004852,0.00075,-0.00679,0.002323,0.107606,-0.087433,-0.990342,-0.10781470570681165
1760171774.63344,0.043885,0.053907,-0.001274,0.99758,0.004725,-0.007825,0.001887,-0.000705,-0.005826,0.002878,0.107666,-0.087421,-0.990336,-0.10787511401664904
1760171774.664585,0.044361,0.054093,-0.001198,0.997549,0.012483,-0.002545,0.004652,-0.001277,-0.001594,0.000414,0.108026,-0.088375,-0.990212,-0.10823723850062601
1760171774.664923,0.044734,0.054028,-0.001147,0.997536,0.013175,0.001453,0.000731,-0.000525,0.000536,0.001096,0.107892,-0.089123,-0.99016,-0.1081024042258982
1760171774.694582,0.045063,0.054065,-0.001162,0.997519,0.009815,0.004183,-0.004055,-0.001259,0.002595,0.002398,0.107967,-0.089777,-0.990093,-0.10817781703254713
1760171774.725613,0.045575,0.054102,-0.00133,0.997494,-0.004789,0.00904,-0.021933,-0.000662,-0.001036,0.000936,0.108054,-0.090778,-0.989992,-0.10826535391338353
1760171774.725936,0.045585,0.054047,-0.001469,0.997496,-0.002301,-0.00147,-0.019975,-0.001429,-0.002239,0.002022,0.107957,-0.090784,-0.990002,-0.10816778663826382
1760171774.76092,0.045409,0.054029,-0.001639,0.997505,-0.004364,0.001434,-0.013775,-0.00078,-0.003522,0.00217,0.107936,-0.090415,-0.990038,-0.10814666944107422
1760171774.761256,0.045233,0.054011,-0.00181,0.997514,-0.006427,0.004338,-0.007576,-0.000131,-0.004806,0.002317,0.107916,-0.090045,-0.990074,-0.10812654125542422
1760171774.792444,0.045147,0.054064,-0.001863,0.997515,-0.007579,0.00519,-0.004399,-1.9e-05,-0.004153,0.000756,0.108027,-0.089867,-0.990078,-0.10823820123414434
1760171774.826072,0.045188,0.053998,-0.001866,0.997516,-0.002802,0.001675,0.000347,0.000527,-0.001857,-0.000543,0.107896,-0.089951,-0.990084,-0.10810650162772452
1760171774.826401,0.045286,0.054,-0.001858,0.997512,-0.003382,-0.000288,0.000534,0.000389,-0.001019,0.000286,0.1079,-0.090145,-0.990066,-0.10811051648460147
1760171774.857616,0.045518,0.053959,-0.001759,0.997504,8.5e-05,-0.000238,0.008917,-0.000565,-0.000718,0.001399,0.107809,-0.090619,-0.990033,-0.10801894404097394
1760171774.857949,0.045638,0.053986,-0.001675,0.997497,0.001156,0.003102,0.013373,-0.0005,-0.0002,0.002799,0.107854,-0.090867,-0.990005,-0.10806424744130987
1760171774.88822,0.045666,0.054014,-0.001591,0.997494,-0.001769,0.003154,0.011363,-0.0004,0.001223,0.002328,0.107903,-0.090931,-0.989994,-0.10811351191761455
1760171774.911138,0.04566,0.054081,-0.001433,0.997491,-0.004762,0.008784,0.00666,-0.000725,0.002668,0.000972,0.108021,-0.090936,-0.989981,-0.10823217046035592
1760171774.94044,0.045631,0.054118,-0.001403,0.99749,-0.005248,0.006544,0.002658,-0.000993,0.003245,0.00053,0.108093,-0.090881,-0.989978,-0.10830461515217382
1760171774.940717,0.045602,0.054156,-0.001373,0.99749,-0.005733,0.004304,-0.001345,-0.001261,0.003822,8.8e-05,0.108164,-0.090826,-0.989975,-0.10837606541470142
1760171774.972611,0.045559,0.054181,-0.001362,0.99749,-0.002898,0.002598,-0.001354,-0.000929,0.00319,0.000801,0.108215,-0.090741,-0.989978,-0.10842728262903548
1760171775.004523,0.04545,0.054209,-0.001371,0.997494,0.000242,0.002444,0.003162,-0.0001,0.000603,0.000598,0.108271,-0.090524,-0.989991,-0.10848369372112568
1760171775.00482,0.045419,0.054214,-0.001339,0.997495,0.003763,0.000868,0.00534,-2.8e-05,0.00017,0.000168,0.108278,-0.090466,-0.989996,-0.1084906851064002
1760171775.047171,0.045439,0.054223,-0.001231,0.997494,0.00958,0.001112,0.009449,0.000983,0.000174,-1.2e-05,0.108285,-0.090518,-0.98999,-0.10849777839934294
1760171775.047572,0.045471,0.054233,-0.001173,0.997492,0.010464,-0.000101,0.012265,0.00115,-0.000147,0.00034,0.108301,-0.090588,-0.989982,-0.10851385655118402
1760171775.077145,0.045622,0.054212,-0.000953,0.997486,0.011804,-0.00336,0.013744,0.000343,-0.000334,0.001363,0.108239,-0.09091,-0.989959,-0.10845151832428924
1760171775.077449,0.045725,0.05418,-0.000864,0.997483,0.011804,-0.00336,0.013744,0.000631,-0.001197,0.001362,0.108166,-0.091126,-0.989948,-0.10837799233289955
1760171775.109901,0.045805,0.054183,-0.000748,0.99748,0.010571,-0.0029,0.014748,-0.00017,-0.000622,0.001456,0.108161,-0.091297,-0.989932,-0.10837304798380688
1760171775.138834,0.045992,0.054193,-0.000542,0.997471,0.0121,-1.6e-05,0.009787,-0.001413,-0.000474,0.00164,0.108161,-0.091692,-0.989896,-0.1083729932116756
1760171775.139175,0.046069,0.054201,-0.000499,0.997467,0.01136,0.000752,0.006948,-0.000778,-0.000262,0.001532,0.108174,-0.09185,-0.98988,-0.10838606255875279
1760171775.175767,0.04613,0.054208,-0.000464,0.997463,0.008908,0.000739,0.005014,-0.000906,6.7e-05,0.001178,0.108183,-0.091976,-0.989867,-0.10839514982364339
1760171775.204227,0.046255,0.054248,-0.000425,0.997456,0.007962,0.0012,0.000117,0.000323,-0.000621,0.000681,0.108258,-0.092229,-0.989835,-0.10847062087491179
1760171775.206019,0.04636,0.054276,-0.000427,0.997449,0.007962,0.0012,0.000117,0.000109,-0.00021,0.00023,0.108315,-0.092438,-0.98981,-0.10852787911768931
1760171775.236874,0.04642,0.0543,-0.000425,0.997445,0.006621,0.002197,0.000273,-0.000636,-0.001059,0.00027,0.108362,-0.092557,-0.989793,-0.10857523667829688
1760171775.237039,0.04648,0.054324,-0.000422,0.997441,0.00528,0.003195,0.000429,-0.00138,-0.001908,0.000309,0.10841,-0.092676,-0.989777,-0.1086234789049737
1760171775.298546,0.046573,0.054345,-0.000397,0.997435,0.006295,0.004468,0.001102,-0.001251,-0.001868,0.001179,0.108448,-0.092863,-0.989755,-0.10866173772602117
1760171775.298903,0.046666,0.054365,-0.000372,0.99743,0.007309,0.005742,0.001775,-0.001121,-0.001829,0.002049,0.108486,-0.093051,-0.989733,-0.10869998254902147
1760171775.299274,0.046759,0.054386,-0.000347,0.997425,0.008324,0.007015,0.002448,-0.000991,-0.00179,0.002919,0.108524,-0.093239,-0.989712,-0.10873811543060204
1760171775.32898,0.046848,0.054404,-0.000327,0.997419,0.00744,0.005917,0.001866,-0.000598,0.000541,0.002392,0.108559,-0.093418,-0.989691,-0.10877335389346982
1760171775.360667,0.047019,0.054473,-0.000301,0.997408,0.005198,0.00725,-0.004259,6e-06,0.001298,0.002582,0.108692,-0.093761,-0.989644,-0.10890714183656584
1760171775.360949,0.047091,0.054515,-0.000339,0.997402,0.005343,0.006372,-0.005129,7.9e-05,0.000859,0.002147,0.108778,-0.093901,-0.989621,-0.10899368476031489
1760171775.390298,0.047155,0.054553,-0.000391,0.997397,0.009067,0.005794,-0.005792,0.000221,-3e-06,0.001293,0.108859,-0.094022,-0.989601,-0.10907512578634534
1760171775.39901,0.047293,0.054633,-0.000474,0.997386,0.014328,0.007679,-0.005562,-0.000758,-0.000264,0.000312,0.109025,-0.094287,-0.989557,-0.10924217518447829
1760171775.433912,0.04756,0.054648,-0.000545,0.997372,0.020796,-0.001266,0.00045,3.7e-05,-0.001513,-0.000509,0.109061,-0.094811,-0.989503,-0.10927838735073873
1760171775.468389,0.04774,0.05461,-0.000516,0.997366,0.029283,-0.010877,0.006807,-0.001346,-0.002782,-0.00028,0.108982,-0.095173,-0.989477,-0.10919890839774786
1760171775.46869,0.047921,0.054573,-0.000487,0.997359,0.037771,-0.020489,0.013165,-0.002729,-0.004051,-5e-05,0.108904,-0.095535,-0.989451,-0.10912040908285313
1760171775.496477,0.048522,0.054357,-0.000307,0.997342,0.031007,-0.007933,0.010564,0.000883,0.002662,0.007152,0.108455,-0.096752,-0.989382,-0.10866874036952437
1760171775.496809,0.048717,0.054345,-0.00028,0.997333,0.024928,0.003488,0.005958,0.001357,0.003344,0.002573,0.108427,-0.097143,-0.989347,-0.10864054783843421
1760171775.529537,0.048865,0.054416,-0.000244,0.997322,0.02056,0.007517,0.00299,0.001073,0.005433,0.001171,0.108565,-0.097442,-0.989302,-0.10877941713525822
1760171775.553168,0.049172,0.054496,-0.000344,0.997302,0.008732,0.000966,-0.013713,0.000649,0.00738,-9e-05,0.108733,-0.098042,-0.989224,-0.10894844651751905
1760171775.583906,0.049192,0.054494,-0.000492,0.997302,0.008517,-0.005605,-0.015224,0.000242,0.004546,-0.000338,0.108742,-0.098064,-0.989221,-0.10895748181238872
1760171775.584195,0.049211,0.054491,-0.000639,0.997301,0.008302,-0.012176,-0.016734,-0.000166,0.001712,-0.000586,0.108751,-0.098086,-0.989218,-0.10896651705035791
1760171775.615545,0.049266,0.054328,-0.000815,0.997307,0.011548,-0.011472,0.001003,0.000647,-0.002699,0.0023,0.108443,-0.098178,-0.989243,-0.10865665071044024
1760171775.644047,0.049311,0.054266,-0.000757,0.997308,0.012464,-0.009643,0.00802,0.000535,-0.002737,0.002541,0.108315,-0.098274,-0.989247,-0.10852794524630256
1760171775.645301,0.049356,0.054205,-0.000699,0.997309,0.013379,-0.007814,0.015037,0.000423,-0.002774,0.002783,0.108187,-0.09837,-0.989252,-0.10839913101819465
1760171775.679415,0.049628,0.054108,-0.000449,0.997301,0.02135,-0.002453,0.017215,-0.000276,0.000386,0.000483,0.107969,-0.09894,-0.989219,-0.1081798436130281
1760171775.679714,0.049791,0.054104,-0.000342,0.997293,0.022929,2.1e-05,0.014981,-0.001114,0.001563,0.001954,0.10795,-0.099276,-0.989187,-0.10816077594142551
1760171775.713915,0.049949,0.054113,-0.000292,0.997285,0.023436,0.001915,0.007238,-0.001199,0.002433,0.00353,0.107961,-0.099595,-0.989154,-0.10817181185013114
1760171775.744626,0.050361,0.054167,-0.000266,0.997261,0.024692,0.000261,-0.002309,-0.002126,-0.002366,0.000829,0.108064,-0.100416,-0.98906,-0.10827539039222865
1760171775.745038,0.050566,0.054096,-0.000299,0.997255,0.028105,-0.005425,-0.001613,-0.000368,-0.003734,0.004374,0.107925,-0.100822,-0.989033,-0.1081356665437981
1760171775.776832,0.050915,0.054122,-0.000361,0.997235,0.01774,0.003515,-0.002414,0.000591,-0.003447,0.003093,0.107982,-0.10151,-0.988957,-0.10819293734304758
1760171775.777158,0.050987,0.054138,-0.000388,0.997231,0.011887,0.002469,-0.000589,-0.001253,-0.004061,0.002533,0.108016,-0.10165,-0.988939,-0.10822712736604992
1760171775.806313,0.051065,0.054125,-0.000372,0.997228,0.009292,0.00163,-0.000123,-0.000162,-0.004176,0.000958,0.107988,-0.101807,-0.988926,-0.10819895272283198
1760171775.839496,0.051232,0.054103,-0.000325,0.99722,0.00502,-0.003124,0.005974,7.5e-05,-0.002677,0.001318,0.107939,-0.102144,-0.988896,-0.10814972889803025
1760171775.839792,0.051258,0.054114,-0.000302,0.997218,0.002945,-0.004696,0.005524,-0.00012,-0.002301,0.000906,0.107958,-0.102198,-0.988889,-0.108168770430261
1760171775.868658,0.051302,0.054059,-0.000233,0.997219,0.000751,-0.005523,0.007519,-0.001325,-0.002214,0.001468,0.107842,-0.102295,-0.988891,-0.1080521565957113
1760171775.900372,0.051321,0.053929,-7.6e-05,0.997225,-0.006021,-0.006375,0.007925,-0.001573,-0.000527,0.001979,0.107568,-0.102348,-0.988916,-0.10777648467761572
1760171775.900716,0.051289,0.053905,-1e-06,0.997228,-0.006327,0.001799,0.006681,-0.001441,-0.000484,0.00284,0.107512,-0.102294,-0.988927,-0.10772023044191596
1760171775.937247,0.051318,0.053999,0.000124,0.997221,0.001136,0.004645,0.0027,-0.001339,0.001316,0.000839,0.107685,-0.102364,-0.988901,-0.10789423358671092
1760171775.937566,0.051356,0.054039,0.00015,0.997217,0.004634,0.003161,-0.002017,-0.001871,0.00291,0.000842,0.107763,-0.102443,-0.988885,-0.10797261752188028
1760171775.967727,0.051387,0.054061,0.000109,0.997214,0.002673,0.003333,-0.006299,-0.001181,0.003205,0.001604,0.10781,-0.1025,-0.988873,-0.1080199969947174
1760171775.997742,0.051418,0.054093,-4.4e-05,0.997211,0.001855,-0.000426,-0.008906,6.3e-05,0.000349,0.001056,0.107889,-0.102544,-0.98886,-0.10809944144499695
1760171775.998117,0.051435,0.054108,-0.000102,0.99721,0.004434,0.001406,-0.006582,0.000496,-0.000483,0.001968,0.107925,-0.102572,-0.988853,-0.10813567088508187
1760171776.026988,0.051484,0.054135,-0.000118,0.997205,0.006773,0.002257,0.001913,0.000292,-0.000562,0.000616,0.10798,-0.102667,-0.988838,-0.10819090150819519
1760171776.057071,0.051515,0.054129,-8.2e-05,0.997204,0.004615,-0.000601,0.004307,0.000149,-0.000287,0.000315,0.107964,-0.102732,-0.988833,-0.10817480702155957
1760171776.05737,0.051546,0.054122,-4.6e-05,0.997203,0.002457,-0.003459,0.006702,7e-06,-1.3e-05,1.4e-05,0.107947,-0.102798,-0.988828,-0.10815770675575742
1760171776.091746,0.051634,0.054057,0.000102,0.997202,0.003682,-0.004604,0.006625,-0.0,0.0,-0.0,0.107801,-0.10299,-0.988824,-0.10801084433996502
1760171776.122076,0.051684,0.054017,0.000159,0.997202,0.004363,-0.004379,0.008345,-2.6e-05,-0.000642,0.00125,0.107716,-0.103095,-0.988822,-0.10792538095023295
1760171776.122382,0.051733,0.053978,0.000216,0.997201,0.005045,-0.004154,0.010066,-5.1e-05,-0.001284,0.0025,0.107631,-0.103201,-0.98882,-0.10783990514891433
1760171776.159474,0.051871,0.05391,0.000367,0.997198,0.007591,-0.004219,0.007289,-0.001533,-0.000244,0.000506,0.107479,-0.10349,-0.988806,-0.10768705338539963
1760171776.159778,0.051919,0.05389,0.000399,0.997196,0.007999,-0.0033,0.004933,-0.001105,0.000289,0.000788,0.107437,-0.10359,-0.988801,-0.10764471185197233
1760171776.180667,0.05207,0.053886,0.000465,0.997188,0.004596,-0.000581,0.001354,-0.000247,-0.001376,0.001979,0.10742,-0.103897,-0.98877,-0.10762768090738678
1760171776.210723,0.052132,0.053868,0.000472,0.997186,0.004428,-0.000258,0.000999,-0.00038,-0.001514,0.000925,0.107384,-0.104022,-0.988761,-0.10759144665956889
1760171776.239356,0.052174,0.053874,0.000468,0.997184,0.00606,0.000415,0.000591,-0.000328,-0.00153,0.001199,0.107395,-0.104105,-0.988751,-0.10760251809498747
1760171776.239747,0.052216,0.053879,0.000464,0.997181,0.007692,0.001089,0.000184,-0.000277,-0.001545,0.001472,0.107406,-0.104188,-0.988741,-0.10761358877707526
1760171776.270843,0.052325,0.053872,0.000497,0.997176,0.003808,-0.000194,0.003626,-0.001376,-0.00228,0.002772,0.107387,-0.104409,-0.98872,-0.10759445166542658
1760171776.299891,0.05236,0.053879,0.000521,0.997174,0.00198,0.000518,0.002602,-0.001581,-0.001524,0.001657,0.107398,-0.10448,-0.988711,-0.1076055482248776
1760171776.300237,0.052395,0.053886,0.000544,0.997171,0.000152,0.00123,0.001578,-0.001786,-0.000768,0.000543,0.10741,-0.104551,-0.988702,-0.10761763845309114
1760171776.33111,0.052422,0.053915,0.00056,0.997168,-0.001179,0.003206,-0.000639,0.00044,-0.002039,0.001473,0.107466,-0.104609,-0.98869,-0.10767394095125837
1760171776.361358,0.052412,0.053917,0.000571,0.997169,-0.003172,0.001598,0.000652,-0.000533,-0.002364,0.001929,0.10747,-0.104588,-0.988692,-0.10767794147796295
1760171776.361681,0.052401,0.05392,0.000582,0.997169,-0.005165,-1.1e-05,0.001943,-0.001506,-0.002689,0.002384,0.107473,-0.104568,-0.988694,-0.10768093644360283
1760171776.392415,0.052353,0.053933,0.000607,0.997171,-0.007513,-0.000238,-0.001013,-0.001059,-0.000761,0.001829,0.107497,-0.104475,-0.988701,-0.10770510006850084
1760171776.397824,0.052307,0.053942,0.000629,0.997173,-0.003551,0.001667,-0.002275,-0.000103,-7.4e-05,0.000179,0.107513,-0.104387,-0.988708,-0.10772125269365328
1760171776.428043,0.05229,0.053962,0.000607,0.997173,-0.001576,0.00053,-0.00256,-0.000411,-0.000612,0.000593,0.107555,-0.10435,-0.988708,-0.10776342683481262
1760171776.456491,0.052309,0.053964,0.000577,0.997172,0.000438,-0.001467,-0.00347,5.4e-05,-0.000583,0.001308,0.107562,-0.104384,-0.988703,-0.10777053715158327
1760171776.456992,0.052328,0.053965,0.000546,0.997171,0.002452,-0.003464,-0.004379,0.000519,-0.000554,0.002023,0.107568,-0.104419,-0.988699,-0.10777653488032135
1760171776.491179,0.052365,0.053946,0.00051,0.99717,-0.001065,5.1e-05,-0.005051,-0.000156,-5.5e-05,0.002315,0.107533,-0.104488,-0.988696,-0.10774127909621695
1760171776.497917,0.052358,0.053912,0.000494,0.997172,0.003404,-0.006733,0.006902,-0.003136,-0.006308,-0.002779,0.107468,-0.104474,-0.988704,-0.10767595869916519
1760171776.5279,0.052447,0.053779,0.000573,0.997174,0.007607,-0.015861,0.013625,-0.001931,-0.002632,0.001694,0.107195,-0.10466,-0.988714,-0.10740136868445038
1760171776.565051,0.052488,0.053705,0.000629,0.997176,0.001787,-0.010897,0.009133,-0.001096,0.000532,0.002888,0.107042,-0.104748,-0.988721,-0.10724751061922436
1760171776.565658,0.052529,0.053632,0.000685,0.997178,-0.004034,-0.005932,0.004641,-0.000261,0.003696,0.004082,0.106889,-0.104836,-0.988729,-0.10709354537678223
1760171776.603654,0.052424,0.053553,0.000712,0.997188,-0.008499,0.00196,-0.003397,-0.000558,0.004367,0.002124,0.10673,-0.10463,-0.988768,-0.10693363028192
1760171776.603945,0.052398,0.053582,0.000702,0.997188,-0.008271,0.00594,-0.007376,0.000136,0.00499,0.000862,0.10679,-0.104578,-0.988767,-0.1069939775614277
1760171776.633903,0.052303,0.053664,0.000468,0.997188,-0.003303,0.003052,-0.018841,-0.000891,0.003686,0.001994,0.106977,-0.104362,-0.988769,-0.10718211951272118
1760171776.635803,0.052298,0.053681,0.000144,0.997188,0.009829,-0.003955,-0.01113,-0.000841,-0.003899,-0.000368,0.107044,-0.104316,-0.988767,-0.10724946420269611
1760171776.679849,0.052333,0.053651,9.7e-05,0.997187,0.010086,-0.005875,-0.007879,-0.000572,-0.003487,-0.000752,0.10699,-0.104382,-0.988766,-0.10719513946859564
1760171776.680096,0.052368,0.053622,5e-05,0.997187,0.010343,-0.007795,-0.004628,-0.000303,-0.003075,-0.001135,0.106936,-0.104448,-0.988765,-0.10714081428280127
1760171776.713249,0.05253,0.053482,0.00013,0.997186,0.013918,-0.007649,0.012459,0.000947,-0.003524,0.002129,0.106649,-0.104778,-0.988761,-0.10685217253535852
1760171776.744003,0.052764,0.053361,0.000348,0.99718,0.01245,-0.004602,0.015105,-0.000268,-0.001547,0.001517,0.106385,-0.105268,-0.988737,-0.10658670375557232
1760171776.775129,0.052829,0.053389,0.000407,0.997175,0.007343,0.002005,0.010396,-0.000625,-0.000448,0.00363,0.106433,-0.105403,-0.988717,-0.10663502564112357
1760171776.77546,0.052893,0.053417,0.000467,0.99717,0.002237,0.008613,0.005687,-0.000983,0.000651,0.005742,0.106481,-0.105537,-0.988698,-0.10668325100092876
1760171776.777389,0.052922,0.053565,0.000537,0.997161,-0.000453,-0.003388,-0.000434,-0.003531,-0.00108,-0.005233,0.106769,-0.105601,-0.98866,-0.106972913532083
1760171776.804216,0.052942,0.053531,0.000542,0.997162,-0.000664,0.002838,-0.004131,-0.000539,-0.001168,0.004187,0.106701,-0.105642,-0.988663,-0.10690451871307557
1760171776.834495,0.052911,0.053591,0.000479,0.99716,-0.003965,0.008381,-0.009686,-0.000321,-0.000217,0.002392,0.106827,-0.105573,-0.988657,-0.10703121795317601
1760171776.862728,0.05279,0.05377,0.000274,0.997157,-0.006464,0.01242,-0.013617,0.00076,-0.001931,0.000679,0.107205,-0.105309,-0.988644,-0.10741142670796425
1760171776.89351,0.052753,0.053829,0.000158,0.997156,-0.004327,0.010162,-0.013832,-1.1e-05,-0.001693,0.000786,0.107334,-0.105224,-0.988639,-0.1075411811016909
1760171776.893814,0.052717,0.053887,4.2e-05,0.997155,-0.002191,0.007903,-0.014048,-0.000782,-0.001455,0.000892,0.107464,-0.105138,-0.988634,-0.10767194031801346
1760171776.895447,0.052687,0.053991,-0.000178,0.99715,0.001762,0.003762,-0.006428,0.0008,-0.002568,3.6e-05,0.107693,-0.105055,-0.988618,-0.1079022668604526
1760171776.937728,0.052696,0.054016,-0.000182,0.997149,0.00062,0.003936,-0.001513,-0.000126,-0.002234,0.000801,0.107744,-0.105071,-0.988611,-0.10795353778187658
1760171776.93804,0.052704,0.054041,-0.000185,0.997147,-0.000522,0.00411,0.003402,-0.001052,-0.0019,0.001565,0.107794,-0.105088,-0.988604,-0.10800380308004226
1760171776.970534,0.052743,0.054091,-5.5e-05,0.997142,0.000648,0.006079,0.00939,-0.000196,0.00109,0.000988,0.107878,-0.105178,-0.988585,-0.10808832429351023
1760171776.974643,0.05282,0.054192,9.4e-05,0.997133,0.003202,0.003978,0.00211,-0.001197,0.003241,-0.000677,0.108063,-0.105347,-0.988547,-0.10827439054396229
1760171777.008828,0.052846,0.054207,8.6e-05,0.99713,0.002328,0.004549,-0.001904,-0.001331,0.004052,0.000127,0.108093,-0.105399,-0.988538,-0.10830458633871143
1760171777.015485,0.052863,0.054299,-1e-06,0.997124,0.000942,0.00467,-0.009817,-0.000911,0.004066,0.002623,0.108286,-0.105423,-0.988514,-0.10849876006363919
1760171777.047386,0.052853,0.054329,-9.1e-05,0.997123,-0.000143,0.00611,-0.013364,-0.000855,0.001853,0.002365,0.108354,-0.105392,-0.98851,-0.10856714684148883
1760171777.08444,0.052848,0.05444,-0.000286,0.997118,0.006449,0.012358,-0.0114,0.001238,-0.000316,0.000525,0.108597,-0.105359,-0.988487,-0.10881157323177422
1760171777.114431,0.052879,0.05449,-0.000359,0.997113,0.007992,0.010451,-0.010146,0.000826,-0.000211,0.000351,0.108703,-0.105413,-0.988469,-0.10891826841652083
1760171777.114791,0.05291,0.05454,-0.000431,0.997109,0.009535,0.008545,-0.008893,0.000415,-0.000106,0.000176,0.10881,-0.105467,-0.988452,-0.10902584925401528
1760171777.115104,0.052941,0.05459,-0.000504,0.997104,0.011078,0.006638,-0.00764,3e-06,-1e-06,1e-06,0.108916,-0.105521,-0.988434,-0.10913254388971863
1760171777.142861,0.053183,0.05467,-0.000579,0.997087,0.018826,0.003233,0.001825,0.000338,-0.002514,0.001325,0.109084,-0.105993,-0.988365,-0.1093015476851807
1760171777.173388,0.053315,0.054685,-0.000555,0.997079,0.018101,0.002312,0.004494,0.000884,-0.002851,0.001691,0.109111,-0.106257,-0.988334,-0.10932867428320671
1760171777.174738,0.053589,0.054736,-0.000486,0.997062,0.014799,0.003409,0.007284,-0.000551,-0.000979,0.00086,0.109203,-0.106809,-0.988264,-0.1094212638419566
1760171777.20398,0.053683,0.054752,-0.000429,0.997056,0.011043,0.002197,0.007966,-0.000578,-0.000944,0.000844,0.109228,-0.107002,-0.988241,-0.10944634470476915
1760171777.234774,0.053772,0.05475,-0.000393,0.997051,0.0092,0.002319,0.00341,-0.000753,8.7e-05,0.001853,0.10922,-0.107185,-0.988222,-0.10943830227825806
1760171777.235089,0.053862,0.054749,-0.000356,0.997046,0.007356,0.00244,-0.001145,-0.000929,0.001118,0.002862,0.109212,-0.107367,-0.988203,-0.1094302679282905
1760171777.27708,0.053917,0.054855,-0.000415,0.997037,0.000353,0.003672,-0.004519,-0.001828,0.000117,0.000974,0.10943,-0.107468,-0.988168,-0.10964957195844305
1760171777.277239,0.053927,0.054902,-0.000447,0.997034,-0.002343,0.003484,-0.008843,-0.002715,-0.000179,0.001125,0.109526,-0.107484,-0.988155,-0.10974622041059805
1760171777.307134,0.053887,0.054951,-0.000648,0.997034,-0.003451,0.004865,-0.010733,0.000377,-0.001422,0.002112,0.109647,-0.107383,-0.988153,-0.10986790588412539
1760171777.314249,0.053846,0.055058,-0.000809,0.99703,-0.003878,0.007449,-0.008173,-0.000267,-0.001547,0.001518,0.109877,-0.107283,-0.988138,-0.11009933831852768
1760171777.344164,0.053815,0.055099,-0.000857,0.997029,-0.003016,0.005795,-0.006356,2.4e-05,-0.002421,0.001516,0.109963,-0.107217,-0.988136,-0.11018581857781069
1760171777.380269,0.053799,0.055121,-0.000883,0.997029,-0.00157,0.00522,-0.004317,0.000625,-0.002748,0.001745,0.11001,-0.107181,-0.988135,-0.11023306981427985
1760171777.380676,0.053782,0.055144,-0.00091,0.997029,-0.000123,0.004644,-0.002277,0.001227,-0.003076,0.001973,0.110057,-0.107145,-0.988133,-0.11028043029483633
1760171777.411168,0.053851,0.05519,-0.000928,0.997022,0.002249,0.001581,-0.00122,-0.000462,-0.001711,5.9e-05,0.110152,-0.107279,-0.988108,-0.11037599778718973
1760171777.429829,0.053908,0.055262,-0.000923,0.997015,-0.001169,0.002797,-0.000225,0.000143,4.6e-05,0.001507,0.110294,-0.107393,-0.98808,-0.11051884377628003
1760171777.458791,0.053897,0.05531,-0.000954,0.997013,-0.002589,0.006122,-0.002564,0.00036,0.000117,0.002666,0.110393,-0.107366,-0.988072,-0.11061843868199381
1760171777.459111,0.053885,0.055358,-0.000984,0.997011,-0.004009,0.009447,-0.004904,0.000578,0.000188,0.003825,0.110491,-0.107339,-0.988064,-0.11071703961093973
1760171777.493898,0.053892,0.05548,-0.001053,0.997004,-0.001088,0.003178,-0.005397,-0.001543,-0.000718,-0.001731,0.110742,-0.107344,-0.988035,-0.1109696286395981
1760171777.52387,0.053854,0.055511,-0.001159,0.997004,-0.002871,0.003181,-0.012169,-0.001302,-0.000498,0.002597,0.110814,-0.107257,-0.988037,-0.11104200575308555
1760171777.530522,0.053844,0.055524,-0.001228,0.997004,0.004402,-0.006622,-0.004957,-0.004354,-0.005082,-0.001862,0.110848,-0.10723,-0.988036,-0.11107622936688719
1760171777.560768,0.053947,0.055388,-0.001231,0.997006,0.007423,-0.009194,0.002983,-0.001577,-0.002094,0.005034,0.110578,-0.107435,-0.988044,-0.11080455768105997
1760171777.592547,0.053978,0.055321,-0.00122,0.997008,-0.002293,-0.003027,0.000539,-0.001168,0.002815,0.003873,0.110442,-0.107498,-0.988052,-0.11066775900114226
1760171777.608647,0.053904,0.055316,-0.001236,0.997012,-0.008404,0.002861,-0.002874,-0.000491,0.00178,0.002066,0.110435,-0.10735,-0.988069,-0.11066070200602811
1760171777.608998,0.053832,0.055376,-0.001281,0.997013,-0.009568,0.005759,-0.007019,-0.000808,0.003959,-0.001019,0.11056,-0.107201,-0.988071,-0.11078649392796446
1760171777.6407,0.053732,0.055418,-0.001389,0.997015,-0.005843,0.003685,-0.016794,7.4e-05,0.004884,-3e-06,0.110654,-0.10699,-0.988083,-0.11088111246577947
1760171777.670916,0.053679,0.05543,-0.001564,0.997017,0.000384,-0.001542,-0.015939,6e-06,0.002368,0.001996,0.110698,-0.106864,-0.988092,-0.11092535219640089
1760171777.67125,0.053689,0.055402,-0.001727,0.997018,0.006964,-0.005608,-0.010153,0.000239,0.000169,0.001028,0.11066,-0.106866,-0.988096,-0.11088712170432205
1760171777.698882,0.053747,0.055342,-0.001808,0.997018,0.012516,-0.006502,-0.004035,-0.000136,-0.0011,0.00139,0.110548,-0.106974,-0.988097,-0.11077441383358298
1760171777.729674,0.053884,0.05527,-0.001794,0.997015,0.016886,-0.005777,0.007473,9.1e-05,-0.002407,0.001484,0.110404,-0.107247,-0.988083,-0.11062958256153436
1760171777.73178,0.054053,0.055228,-0.001715,0.997008,0.02106,-0.004575,0.012013,-0.000491,-0.001866,-0.00053,0.11031,-0.107594,-0.988056,-0.11053498002988196
1760171777.76053,0.054298,0.055225,-0.001598,0.996995,0.025271,-0.001026,0.010416,-0.000122,-0.000463,-0.000132,0.110292,-0.108093,-0.988004,-0.1105168194793465
1760171777.791182,0.054563,0.055238,-0.001513,0.99698,0.026412,0.002096,0.005663,0.001094,0.00191,0.00128,0.110307,-0.108629,-0.987943,-0.1105319704283209
1760171777.793102,0.054817,0.055283,-0.001502,0.996964,0.019665,0.009382,-0.005381,-0.000547,0.002948,0.005091,0.110395,-0.109136,-0.987878,-0.11062043344156051
1760171777.847388,0.054992,0.055337,-0.001573,0.996951,0.020755,0.00789,-0.005259,-3e-05,-0.000457,0.005678,0.11051,-0.109475,-0.987827,-0.11073621074234224
1760171777.847878,0.055167,0.055391,-0.001644,0.996938,0.021846,0.006399,-0.005137,0.000487,-0.003863,0.006264,0.110625,-0.109815,-0.987777,-0.11085185295390078
1760171777.849203,0.055331,0.055475,-0.001717,0.996924,0.015274,0.007148,-0.005196,0.001166,-0.00559,0.003119,0.110799,-0.110131,-0.987722,-0.11102696383168026
1760171777.877489,0.055434,0.05559,-0.001739,0.996912,0.007556,0.008634,-0.001061,0.001071,-0.005503,0.001871,0.111029,-0.110332,-0.987674,-0.11125836300040082
1760171777.908581,0.055472,0.055654,-0.001742,0.996907,-0.000459,0.003459,1.4e-05,3.9e-05,-0.003542,-0.000537,0.111156,-0.110408,-0.987651,-0.1113861785206003
1760171777.909689,0.055464,0.055661,-0.001758,0.996907,-0.002551,0.002213,-0.001892,0.000441,-0.00233,-0.000653,0.111172,-0.110389,-0.987651,-0.11140231398441154
1760171777.938895,0.055445,0.055655,-0.001777,0.996908,-0.008092,-0.002055,-0.001322,0.000603,-0.00147,0.000939,0.111163,-0.11035,-0.987657,-0.11139318838567845
1760171777.96963,0.055352,0.055638,-0.001789,0.996914,-0.011835,-0.003818,0.00146,-0.001286,-0.00251,0.002187,0.11113,-0.110163,-0.987681,-0.1113600477076414
1760171777.971709,0.055223,0.055606,-0.001772,0.996923,-0.017082,-0.00218,-0.000733,0.000244,-0.000341,0.003708,0.111065,-0.10991,-0.987717,-0.11129458730623679
1760171778.002397,0.055066,0.055622,-0.00175,0.996931,-0.017557,0.001855,-0.000326,9.2e-05,-0.00181,0.002494,0.111095,-0.1096,-0.987748,-0.11132478215266389
1760171778.007176,0.05494,0.055668,-0.001737,0.996935,-0.01306,0.005357,0.002308,-0.000199,-0.001598,0.001704,0.111185,-0.109349,-0.987765,-0.11141541966782323
1760171778.035931,0.054874,0.055715,-0.001708,0.996936,-0.005873,0.005776,-0.000418,0.000614,0.00051,0.000747,0.111277,-0.109222,-0.987769,-0.11150796001961316
1760171778.065976,0.05484,0.055776,-0.001703,0.996935,-0.002655,0.004099,-0.003418,-0.000261,0.002348,0.002369,0.111398,-0.109155,-0.987763,-0.1116296913105727
1760171778.068034,0.054796,0.055838,-0.001761,0.996934,-0.005421,0.002675,-0.005699,0.000425,0.002368,0.001977,0.111527,-0.10906,-0.987759,-0.11175949318806794
1760171778.096777,0.054755,0.055839,-0.001848,0.996936,-0.005536,0.00014,-0.008365,0.00083,0.00066,0.000211,0.111539,-0.108968,-0.987768,-0.11177154619484737
1760171778.127207,0.054713,0.055863,-0.001954,0.996936,-0.002889,0.003013,-0.007072,0.000677,-0.000924,0.001169,0.111598,-0.108872,-0.987772,-0.11183090816221133
1760171778.128498,0.054687,0.055893,-0.002002,0.996936,-0.000819,0.000375,-0.003431,-0.000561,-0.000983,-0.000252,0.111663,-0.108815,-0.987771,-0.1118963097505191
1760171778.159705,0.054664,0.05589,-0.002027,0.996937,-0.00167,-0.000456,-0.000277,-0.000859,-0.000412,9.2e-05,0.11166,-0.108768,-0.987776,-0.11189334810093686
1760171778.166672,0.054601,0.055889,-0.002005,0.996941,-0.00429,0.002286,0.001647,-0.000358,-0.001375,0.001301,0.111654,-0.108645,-0.98779,-0.11188733415131463
1760171778.197085,0.054553,0.055867,-0.001991,0.996945,-0.00476,-0.002288,0.0022,0.000126,-0.000144,0.001354,0.111609,-0.108551,-0.987806,-0.1118419867349246
1760171778.227126,0.054486,0.055862,-0.001963,0.996949,-0.00715,-0.001237,0.002552,0.000295,-0.000554,0.000776,0.111598,-0.10842,-0.987821,-0.11183098744154443
1760171778.229197,0.054416,0.055861,-0.001933,0.996953,-0.006272,-0.000678,-2.2e-05,-0.000157,0.001115,0.001285,0.111591,-0.108284,-0.987837,-0.11182391107504995
1760171778.257679,0.054369,0.055844,-0.001963,0.996956,-0.004925,-0.000189,-0.003016,-0.001211,0.002276,0.002677,0.111563,-0.108188,-0.987851,-0.11179569977386584
1760171778.287987,0.054304,0.055847,-0.001987,0.99696,-0.003515,0.000291,-0.006067,-0.000952,1.8e-05,0.000471,0.111571,-0.108055,-0.987864,-0.11180382249897648
1760171778.288679,0.054279,0.055846,-0.002054,0.996961,-0.001358,0.001008,-0.004325,-0.001255,-0.001022,0.00213,0.111575,-0.107998,-0.98787,-0.11180782338265968
1760171778.318862,0.054255,0.055872,-0.002094,0.996961,-0.002517,-0.000667,-0.005049,-0.000667,-0.000937,0.000984,0.111633,-0.107947,-0.987869,-0.11186619041766528
1760171778.323749,0.054232,0.055903,-0.002131,0.99696,-0.001661,0.005951,0.003108,-0.00055,-0.002861,0.002813,0.111697,-0.107896,-0.987867,-0.11193063065905769
1760171778.35264,0.054245,0.055944,-0.002085,0.996957,0.002018,0.002639,0.006159,-0.001408,-0.001399,0.001179,0.111774,-0.107927,-0.987855,-0.11200810527720893
1760171778.382907,0.054305,0.055973,-0.002027,0.996952,0.000368,0.001623,0.004292,-0.001254,0.00015,-0.00036,0.111825,-0.108051,-0.987836,-0.11205939065958789
1760171778.383771,0.054328,0.055978,-0.001955,0.996951,-0.0,0.002777,0.005351,-0.000217,0.00064,0.000588,0.111827,-0.108105,-0.98783,-0.11206138833156196
1760171778.417604,0.054349,0.055987,-0.001931,0.996949,0.002057,0.000919,0.002664,-0.000264,-0.001362,0.001438,0.111842,-0.108151,-0.987823,-0.11207651266522309
1760171778.423635,0.054391,0.056005,-0.001892,0.996946,-0.000258,0.002612,0.002725,-0.00067,-0.000326,0.001513,0.111873,-0.108237,-0.98781,-0.11210771625616485
1760171778.453438,0.05439,0.056037,-0.001856,0.996944,-1.9e-05,0.00019,0.000198,-0.001002,0.000332,0.000887,0.111932,-0.10824,-0.987803,-0.1121670877963054
1760171778.492669,0.054357,0.05606,-0.001873,0.996945,-0.002408,0.00071,-0.000916,-0.000203,-0.000431,0.001117,0.111981,-0.108171,-0.987805,-0.11221639834700638
1760171778.493003,0.054323,0.056083,-0.001891,0.996945,-0.004798,0.00123,-0.00203,0.000595,-0.001193,0.001347,0.112029,-0.108102,-0.987807,-0.11226471465907331
1760171778.523305,0.054299,0.056113,-0.001927,0.996945,-0.000257,6.6e-05,-0.000109,-0.000781,-0.002405,0.0023,0.112093,-0.10805,-0.987806,-0.11232905671714438
1760171778.524733,0.054337,0.05617,-0.001907,0.99694,0.00213,0.000715,0.002297,-0.000275,-0.002966,-0.001046,0.112204,-0.108127,-0.987785,-0.11244075827623111
1760171778.556989,0.054385,0.056121,-0.001887,0.99694,0.000715,-0.001152,0.001405,0.00142,-0.002441,0.00385,0.112104,-0.108225,-0.987785,-0.11234019265973447
1760171778.587204,0.054385,0.056112,-0.001835,0.996941,0.004374,-0.008395,0.009209,-0.002582,-0.006563,-0.004493,0.112081,-0.108231,-0.987787,-0.11231704149942087
1760171778.587517,0.054524,0.055909,-0.001709,0.996945,0.012354,-0.021568,0.01843,-0.001396,-0.002773,0.004914,0.111662,-0.108523,-0.987803,-0.11189532973161759
1760171778.615247,0.054621,0.05575,-0.001598,0.996948,0.000434,-0.004792,0.004767,-0.001145,0.006635,0.006775,0.111335,-0.108731,-0.987817,-0.11156628209132158
1760171778.649698,0.054582,0.055728,-0.001634,0.996952,-0.008395,-0.002889,-0.006705,-0.000786,0.003441,0.002142,0.111295,-0.108649,-0.98783,-0.11152609057483687
1760171778.651054,0.054492,0.055763,-0.001693,0.996955,-0.01424,0.006759,-0.009303,-0.000554,0.002018,0.000703,0.111372,-0.108462,-0.987842,-0.11160355808445771
1760171778.680439,0.054333,0.055805,-0.001776,0.996961,-0.013446,0.004278,-0.00934,-0.000343,0.002067,0.00204,0.111464,-0.108137,-0.987867,-0.1116961626197452
1760171778.716625,0.054194,0.055856,-0.001839,0.996965,-0.004415,0.004358,-0.005135,0.000687,0.001683,0.001209,0.111573,-0.107854,-0.987886,-0.11180580615047332
1760171778.745361,0.054153,0.055754,-0.001818,0.996973,0.001618,-0.006105,0.003618,-0.00012,0.000682,0.000679,0.111368,-0.107776,-0.987918,-0.11159948107180624
1760171778.747087,0.054168,0.055613,-0.001709,0.99698,0.008474,-0.011509,0.01164,0.000509,0.000526,0.000946,0.111076,-0.107819,-0.987946,-0.11130567819650249
1760171778.776607,0.054268,0.055486,-0.001587,0.996982,0.014738,-0.01323,0.009459,-0.00137,0.003043,-0.000488,0.11081,-0.108033,-0.987952,-0.11103808022889994
1760171778.783065,0.054451,0.055357,-0.001545,0.99698,0.019757,-0.011953,0.00513,-0.002069,0.001028,-2e-06,0.110549,-0.108402,-0.987941,-0.11077544691312524
1760171778.813276,0.054659,0.055233,-0.001481,0.996975,0.020794,-0.005864,0.011522,-0.002027,-0.002815,0.003179,0.110293,-0.108825,-0.987923,-0.11051788362849212
1760171778.843217,0.054845,0.055243,-0.001331,0.996965,0.014395,0.006759,0.018108,-0.00092,-0.001354,0.005124,0.110296,-0.109211,-0.98788,-0.11052090958383728
1760171778.843535,0.054937,0.055358,-0.001163,0.996954,0.004916,0.013069,0.015818,-0.000917,-0.000814,0.002568,0.110506,-0.10941,-0.987835,-0.11073214752551538
1760171778.871427,0.054977,0.055424,-0.001008,0.996948,0.004873,0.004139,0.011709,0.000175,-0.002068,0.001591,0.110621,-0.109506,-0.987811,-0.11084791090672245
1760171778.901465,0.055044,0.055441,-0.000929,0.996943,0.002583,0.000565,0.004224,0.001061,-0.001803,0.001745,0.110645,-0.109649,-0.987793,-0.11087199855488226
1760171778.902393,0.055092,0.05542,-0.000919,0.996942,0.000544,-0.002986,-0.002072,0.001191,-0.00291,0.000834,0.110602,-0.109746,-0.987787,-0.11082873778600176
1760171778.9411,0.055095,0.055383,-0.000953,0.996944,-0.001869,-0.002135,-0.002089,0.000496,-0.005218,0.002062,0.110532,-0.109748,-0.987795,-0.1107582634522755
1760171778.943102,0.055085,0.05536,-0.00098,0.996945,-0.004443,-0.000674,-0.001932,0.000752,-0.00613,0.003284,0.11049,-0.109725,-0.987802,-0.11071603251504256
1760171778.974457,0.05502,0.05536,-0.001007,0.996949,-0.008277,0.000688,-0.002962,0.001125,-0.005715,0.003786,0.110492,-0.109593,-0.987816,-0.11071809204864717
1760171779.003031,0.054908,0.055364,-0.001082,0.996955,-0.017121,-0.00023,-0.008945,-0.000458,-0.006491,0.004714,0.11051,-0.109361,-0.98784,-0.11073616980362135
1760171779.003959,0.054676,0.055363,-0.001197,0.996967,-0.033225,-0.002322,-0.013575,-0.001293,-0.013061,0.005476,0.110521,-0.108889,-0.987891,-0.11074722761246655
1760171779.034999,0.054254,0.055373,-0.001342,0.99699,-0.059158,0.002201,-0.021406,-0.000457,-0.021567,0.012243,0.110558,-0.108034,-0.987981,-0.11078442575786575
1760171779.039493,0.053565,0.055367,-0.001601,0.997027,-0.087944,-0.003537,-0.03335,-0.001666,-0.044378,0.021464,0.110577,-0.106634,-0.988131,-0.11080353833795219
1760171779.085824,0.052597,0.055421,-0.001905,0.997075,-0.115123,0.005584,-0.030669,0.004898,-0.078424,0.025099,0.110717,-0.104674,-0.988324,-0.11094449939222231
1760171779.086124,0.051409,0.055446,-0.002133,0.997135,-0.146503,-0.001117,-0.029011,0.013001,-0.104342,0.023509,0.110794,-0.102288,-0.988566,-0.11102188397858775
1760171779.124369,0.04984,0.055405,-0.002379,0.997216,-0.205655,-0.021449,-0.039427,0.019589,-0.127994,0.019896,0.110738,-0.099139,-0.988893,-0.11096554119266845
1760171779.125665,0.047749,0.055102,-0.002716,0.997335,-0.278724,-0.048456,-0.055295,0.025274,-0.150663,0.020688,0.110171,-0.094944,-0.989368,-0.11039503736694864
1760171779.161431,0.045094,0.054633,-0.003161,0.997483,-0.362672,-0.067365,-0.064427,0.028698,-0.167547,0.023159,0.109277,-0.089616,-0.989963,-0.10949570719092908
1760171779.163225,0.04168,0.054017,-0.003699,0.997663,-0.466898,-0.0892,-0.086125,0.028653,-0.170634,0.02393,0.108089,-0.082766,-0.99069,-0.10830057931991943
1760171779.19155,0.037386,0.053299,-0.004334,0.997869,-0.571185,-0.088553,-0.093178,0.025605,-0.166264,0.027922,0.106694,-0.07415,-0.991523,-0.10689748772374459
1760171779.199158,0.032235,0.05259,-0.005039,0.998083,-0.668613,-0.104967,-0.120198,0.018393,-0.145374,0.025843,0.105304,-0.063816,-0.99239,-0.1054996314300079
1760171779.229202,0.026315,0.051793,-0.005949,0.998293,-0.750022,-0.114395,-0.139679,0.010678,-0.127785,0.02829,0.103722,-0.051924,-0.99325,-0.10390888839025403
1760171779.259566,0.019801,0.050974,-0.006905,0.99848,-0.801505,-0.107469,-0.132708,0.007568,-0.111294,0.03474,0.102067,-0.038837,-0.994019,-0.10224506518002309
1760171779.259896,0.012909,0.050326,-0.007688,0.99862,-0.827395,-0.081839,-0.109224,0.003568,-0.091006,0.037383,0.100712,-0.025008,-0.994601,-0.10088306140426148
1760171779.290225,0.005654,0.049819,-0.008241,0.998708,-0.836383,-0.063102,-0.090147,-0.000822,-0.073081,0.033826,0.099602,-0.010472,-0.994972,-0.09976744906685392
1760171779.319447,-0.001803,0.049446,-0.008526,0.998739,-0.823132,-0.048283,-0.057177,-0.002909,-0.050479,0.029189,0.098736,0.004444,-0.995104,-0.09889710842862943
1760171779.319744,-0.009261,0.049135,-0.008577,0.998712,-0.804605,-0.04163,-0.043837,-0.003467,-0.022756,0.022655,0.097984,0.019341,-0.995,-0.09814147282359664
1760171779.348903,-0.016688,0.048829,-0.008604,0.998631,-0.78877,-0.038601,-0.047902,-0.004297,-0.00216,0.019064,0.097237,0.034171,-0.994675,-0.09739083436206455
1760171779.38263,-0.024014,0.048481,-0.008699,0.998498,-0.763166,-0.041796,-0.053115,-0.003868,0.007901,0.017321,0.096398,0.048798,-0.994146,-0.09654792109797444
1760171779.383754,-0.031136,0.048168,-0.008779,0.998315,-0.72706,-0.029036,-0.041553,-0.003549,0.014793,0.018809,0.095628,0.063013,-0.993421,-0.09577432097584886
1760171779.413861,-0.037934,0.04799,-0.00876,0.998089,-0.685935,-0.02086,-0.028603,-0.002009,0.023239,0.01735,0.095133,0.076563,-0.992516,-0.0952770752911917
1760171779.414989,-0.044406,0.047818,-0.008685,0.997831,-0.650073,-0.021327,-0.022434,-0.002726,0.03059,0.015938,0.094656,0.08945,-0.991483,-0.09479794112061103
1760171779.4468,-0.05062,0.047587,-0.00858,0.997547,-0.622096,-0.034118,-0.019507,-0.003714,0.032652,0.016297,0.094072,0.101807,-0.990346,-0.09421133253064773
1760171779.477368,-0.056591,0.047269,-0.008412,0.997242,-0.59804,-0.040556,-0.005478,-0.003981,0.030192,0.021458,0.093326,0.113665,-0.989126,-0.09346202117833782
1760171779.478597,-0.062363,0.046937,-0.008086,0.996917,-0.579978,-0.043186,0.01144,-0.004499,0.034531,0.024646,0.092577,0.1251,-0.987815,-0.0927097983472499
1760171779.507649,-0.068032,0.046581,-0.007651,0.996566,-0.573079,-0.047065,0.016317,-0.004219,0.04291,0.020256,0.091802,0.136309,-0.986404,-0.0919314089364575
1760171779.538266,-0.073704,0.046158,-0.007179,0.996186,-0.575576,-0.050474,0.019264,-0.002557,0.047345,0.018553,0.090906,0.147508,-0.984874,-0.09103170591682916
1760171779.540299,-0.079431,0.045735,-0.006675,0.995768,-0.580592,-0.057512,0.022202,-0.004147,0.050572,0.014415,0.090022,0.1588,-0.983198,-0.09014404789250419
1760171779.569035,-0.085186,0.045195,-0.0061,0.995321,-0.580678,-0.066658,0.03005,-0.006292,0.050542,0.012178,0.088927,0.170126,-0.981402,-0.08904459141190117
1760171779.577216,-0.090949,0.044583,-0.005435,0.994842,-0.571585,-0.073434,0.044495,-0.007669,0.049489,0.017217,0.087717,0.181444,-0.979482,-0.08782982548188653
1760171779.608288,-0.09661,0.044007,-0.004572,0.994338,-0.555528,-0.06773,0.058936,-0.010491,0.055267,0.021814,0.086633,0.192529,-0.97746,-0.0867417027253912
1760171779.639876,-0.102114,0.043466,-0.003674,0.993816,-0.536319,-0.057676,0.059063,-0.010702,0.060097,0.022979,0.085644,0.203284,-0.975367,-0.08574904262754739
1760171779.640304,-0.107424,0.042914,-0.002805,0.993283,-0.512522,-0.073738,0.055114,-0.01483,0.061138,0.012716,0.084648,0.213646,-0.973237,-0.08474940856726862
1760171779.677611,-0.112513,0.042126,-0.001998,0.992755,-0.496814,-0.089513,0.042035,-0.011687,0.0627,0.01673,0.083191,0.223565,-0.971132,-0.08328728182387009
1760171779.679447,-0.117547,0.041292,-0.001347,0.992208,-0.491587,-0.090769,0.033355,-0.012347,0.058698,0.016713,0.081624,0.233373,-0.968955,-0.08171494083550385
1760171779.717395,-0.122572,0.040497,-0.000683,0.991633,-0.48468,-0.074541,0.046316,-0.011052,0.052301,0.020127,0.080148,0.243149,-0.966672,-0.08023406107838359
1760171779.722446,-0.127479,0.039825,0.000129,0.991041,-0.475337,-0.058853,0.063629,-0.010389,0.053878,0.019084,0.078969,0.252665,-0.964326,-0.07905129420904894
1760171779.751407,-0.132308,0.039324,0.000995,0.990428,-0.464382,-0.04941,0.059566,-0.00872,0.059002,0.016942,0.078158,0.262004,-0.961897,-0.07823776933224613
1760171779.753438,-0.137008,0.03883,0.001745,0.989807,-0.450802,-0.05345,0.04482,-0.00961,0.061367,0.015465,0.077347,0.271088,-0.959442,-0.07742432224218304
1760171779.783173,-0.141546,0.03828,0.002325,0.989189,-0.436439,-0.057353,0.027449,-0.010616,0.060692,0.015513,0.07639,0.279853,-0.956999,-0.07646448213424982
1760171779.839908,-0.145908,0.037692,0.002757,0.988576,-0.426067,-0.057055,0.024399,-0.010431,0.059537,0.016094,0.075328,0.288275,-0.95458,-0.0753994306414458
1760171779.840269,-0.150268,0.037104,0.003188,0.987944,-0.415694,-0.056757,0.021349,-0.010252,0.058403,0.016599,0.074271,0.296676,-0.952086,-0.07433943044013158
1760171779.840889,-0.154571,0.036593,0.003646,0.987297,-0.413531,-0.041623,0.02413,-0.009171,0.065198,0.017594,0.073383,0.304947,-0.949538,-0.07344901659597909
1760171779.870829,-0.158854,0.036161,0.004001,0.986632,-0.412485,-0.039582,0.004047,-0.009331,0.074915,0.013261,0.072626,0.313171,-0.946916,-0.07268997774415785
1760171779.872912,-0.163104,0.035705,0.004103,0.985954,-0.40478,-0.037292,-0.019681,-0.009912,0.078783,0.013063,0.071746,0.321333,-0.944245,-0.07180765880636664
1760171779.903557,-0.167221,0.035176,0.003951,0.985284,-0.384631,-0.036234,-0.043542,-0.009776,0.07659,0.015797,0.070638,0.329241,-0.9416,-0.07069687907409582
1760171779.943423,-0.171151,0.034741,0.003653,0.984625,-0.359597,-0.033682,-0.046048,-0.009411,0.072169,0.011532,0.069664,0.336785,-0.939001,-0.06972046778247878
1760171779.943685,-0.174872,0.034329,0.003338,0.983987,-0.334198,-0.020726,-0.045557,-0.007047,0.069438,0.016926,0.068726,0.343915,-0.936482,-0.06878024033979768
1760171779.971651,-0.178384,0.034058,0.003056,0.983367,-0.313653,-0.004742,-0.035025,-0.005499,0.069173,0.01644,0.068074,0.350626,-0.934038,-0.06812669860057302
1760171779.972771,-0.181685,0.033943,0.002836,0.982767,-0.294233,0.006859,-0.027998,-0.004898,0.071475,0.00931,0.067747,0.356914,-0.931677,-0.06779895394246613
1760171780.006143,-0.184762,0.033845,0.002652,0.982197,-0.273881,-0.003585,-0.030545,-0.005035,0.072645,0.005471,0.067465,0.362765,-0.929435,-0.06751630382768356
1760171780.013253,-0.187637,0.033666,0.002418,0.981658,-0.252617,-0.011086,-0.036173,-0.004948,0.070702,0.008365,0.067004,0.368228,-0.927318,-0.06705423538531823
1760171780.05127,-0.190288,0.033423,0.002111,0.981157,-0.231912,-0.01401,-0.041073,-0.004481,0.06585,0.011812,0.06639,0.373263,-0.925347,-0.06643886844549123
1760171780.053024,-0.19271,0.033168,0.001769,0.980694,-0.206502,-0.014688,-0.040013,-0.003543,0.059146,0.011729,0.065737,0.377861,-0.923526,-0.0657844192868207
1760171780.081798,-0.194941,0.032953,0.001463,0.98026,-0.191274,-0.010775,-0.033422,-0.0031,0.054009,0.010892,0.065175,0.38209,-0.921824,-0.06522122877437694
1760171780.11238,-0.197016,0.032813,0.001264,0.97985,-0.179534,-0.003365,-0.021297,-0.003064,0.0542,0.009596,0.064802,0.386009,-0.920216,-0.06484744838918406
1760171780.114264,-0.199011,0.03278,0.001129,0.979448,-0.17307,0.002882,-0.011265,-0.002422,0.055949,0.003809,0.064662,0.389768,-0.91864,-0.06470715465629613
1760171780.142696,-0.200913,0.032738,0.001093,0.979061,-0.16307,-0.000312,-0.00513,-0.001747,0.057663,0.002722,0.064545,0.39334,-0.917125,-0.06458987865121467
1760171780.173405,-0.202685,0.032735,0.001124,0.978696,-0.151637,0.000385,-0.001623,-0.001604,0.058689,0.002831,0.064532,0.396661,-0.915694,-0.06457687893720189
1760171780.174737,-0.204341,0.032685,0.001158,0.978353,-0.138232,-0.003102,-0.000845,-0.00156,0.056531,0.006332,0.064427,0.39976,-0.914353,-0.06447164463896922
1760171780.20685,-0.205856,0.032667,0.001157,0.978036,-0.124418,-0.004026,-0.003029,-0.002093,0.057662,0.003604,0.064375,0.402593,-0.913113,-0.06441952646047953
1760171780.210754,-0.207197,0.032605,0.00113,0.977755,-0.105119,-0.004344,-0.008903,-0.001279,0.054836,0.002269,0.064228,0.405102,-0.912013,-0.06427222283511949
1760171780.240843,-0.208355,0.032505,0.001033,0.977513,-0.084059,-0.011525,-0.012693,-0.00203,0.051599,0.00406,0.063979,0.407271,-0.911064,-0.06402270929186932
1760171780.274607,-0.209328,0.03236,0.000926,0.977309,-0.066918,-0.011209,-0.014649,-0.001418,0.044798,0.006721,0.063639,0.409097,-0.910269,-0.06368203620422525
1760171780.276231,-0.210152,0.032192,0.000787,0.977138,-0.052408,-0.010051,-0.018681,-0.000648,0.038841,0.007637,0.063244,0.410645,-0.909599,-0.06328625376098365
1760171780.305381,-0.210859,0.032031,0.000621,0.976991,-0.043873,-0.008318,-0.018638,-0.000686,0.032349,0.005732,0.06285,0.411974,-0.909025,-0.06289147802788358
1760171780.310071,-0.21153,0.0319,0.000436,0.976851,-0.039415,-0.00922,-0.018848,-0.000474,0.023285,0.005484,0.062507,0.413239,-0.908475,-0.06254776230169733
1760171780.338921,-0.212156,0.031781,0.000273,0.976719,-0.036885,-0.011153,-0.01504,-0.001509,0.017659,0.006223,0.062197,0.414417,-0.907959,-0.06223718789302584
1760171780.369146,-0.212715,0.031613,0.000183,0.976603,-0.032698,-0.014729,-0.008319,-0.001394,0.009926,0.00568,0.061825,0.415465,-0.907506,-0.061864434106612284
1760171780.369905,-0.213223,0.031486,0.000158,0.976496,-0.026983,-0.012175,0.000771,-0.001034,0.005723,0.003566,0.061559,0.416413,-0.907089,-0.061597953876285354
1760171780.403912,-0.21361,0.031377,0.00024,0.976415,-0.022727,-0.015828,0.010229,-0.001853,0.002647,0.002696,0.061377,0.417129,-0.906772,-0.06141562602791554
1760171780.408716,-0.213928,0.031244,0.000431,0.97635,-0.023216,-0.013202,0.019041,-0.00087,0.000606,0.002831,0.061195,0.41771,-0.906517,-0.06123327262932307
1760171780.437596,-0.214216,0.031183,0.000709,0.976288,-0.024266,-0.009611,0.030649,-0.00247,-5e-05,0.000613,0.061191,0.418229,-0.906278,-0.06122926190595457
1760171780.467796,-0.214479,0.031139,0.001064,0.976232,-0.02338,-0.007174,0.034589,-0.001248,-0.000742,-0.000222,0.061253,0.418696,-0.906058,-0.06129138697970089
1760171780.468645,-0.214701,0.03113,0.001458,0.976183,-0.019638,-0.008563,0.034184,-0.001562,0.001001,-0.000444,0.061404,0.419084,-0.905869,-0.06144263717586068
1760171780.500896,-0.214906,0.031111,0.001797,0.976137,-0.021716,-0.008867,0.025228,-0.000996,0.003829,0.00342,0.06151,0.419444,-0.905695,-0.061548847547249326
1760171780.53012,-0.215136,0.031041,0.001998,0.976089,-0.026789,-0.00611,0.010952,-0.001342,0.006569,0.005447,0.061458,0.419859,-0.905506,-0.06149676131786039
1760171780.532225,-0.215444,0.030987,0.00205,0.976022,-0.032397,-0.006822,-0.002454,-0.000619,0.008093,0.003188,0.061371,0.420428,-0.905248,-0.06140958869726167
1760171780.561564,-0.215784,0.030885,0.001994,0.975951,-0.036138,-0.007768,-0.011769,-0.001526,0.005923,0.005014,0.061145,0.421066,-0.904967,-0.06118314771930767
1760171780.569166,-0.216188,0.030738,0.001877,0.975866,-0.040324,-0.007989,-0.014651,0.000291,0.003863,0.005231,0.060804,0.421826,-0.904636,-0.060841511082670115
1760171780.608791,-0.216655,0.030684,0.001784,0.975764,-0.044679,-0.00363,-0.007625,0.000664,0.002782,0.00373,0.060653,0.4227,-0.904238,-0.06069023665850805
1760171780.610532,-0.217157,0.030587,0.001747,0.975656,-0.046375,-0.008361,-0.002335,0.000782,0.001969,0.007132,0.060444,0.423635,-0.903814,-0.06048087070711193
1760171780.64235,-0.217673,0.030502,0.001792,0.975543,-0.047218,-0.009639,0.005444,0.000415,0.00109,0.004272,0.060293,0.42459,-0.903376,-0.060329586505069574
1760171780.647243,-0.218095,0.030366,0.001961,0.975453,-0.036155,-0.02419,0.017046,-0.001287,0.002036,0.001095,0.060096,0.425365,-0.903025,-0.06013219999055224
1760171780.680839,-0.218434,0.030165,0.002189,0.975383,-0.038234,-0.021135,0.014657,0.000398,0.010283,0.004535,0.059801,0.425982,-0.902753,-0.05983670637130453
1760171780.71904,-0.2188,0.030082,0.00234,0.975303,-0.033566,-0.011419,0.013131,0.00026,0.010892,0.00474,0.059702,0.426651,-0.902444,-0.059737505989771726
1760171780.71937,-0.219165,0.029999,0.002491,0.975223,-0.028898,-0.001703,0.011606,0.000122,0.011502,0.004945,0.059604,0.42732,-0.902134,-0.05963932535130928
1760171780.74761,-0.219434,0.030006,0.002604,0.975162,-0.021153,0.001508,0.004666,0.001072,0.014263,0.001395,0.059664,0.427811,-0.901897,-0.05969944813736472
1760171780.749804,-0.219635,0.030017,0.002627,0.975117,-0.013162,0.000845,-0.001043,0.000711,0.011765,0.005879,0.059694,0.428182,-0.901719,-0.05972949839673876
1760171780.778843,-0.21982,0.030034,0.00259,0.975075,-0.005366,-0.004212,-0.005158,-0.001234,0.010047,0.003249,0.059709,0.428526,-0.901554,-0.05974455634525267
1760171780.809717,-0.219912,0.029975,0.002518,0.975056,-0.001796,-0.005746,-0.005151,-0.000975,0.006407,0.005024,0.059562,0.428703,-0.90148,-0.05959727116293116
1760171780.810931,-0.220028,0.029895,0.002449,0.975032,-0.003856,-0.008148,-0.005749,-0.000831,0.005129,0.004825,0.059374,0.428922,-0.901388,-0.05940894987390648
1760171780.840295,-0.220193,0.029798,0.002433,0.974998,-0.009789,-0.005737,-0.002887,3.1e-05,0.004569,0.004106,0.059178,0.42923,-0.901255,-0.0592125653768429
1760171780.845978,-0.220411,0.029724,0.002424,0.974951,-0.01673,-0.006038,0.002012,-0.001206,0.003402,0.003667,0.059028,0.429635,-0.901071,-0.05906234767366287
1760171780.878699,-0.220645,0.029709,0.002475,0.974899,-0.015127,0.000847,0.003276,-0.000418,0.002928,0.004017,0.059019,0.430066,-0.900866,-0.05905332983602075
1760171780.907819,-0.220861,0.029743,0.002498,0.974849,-0.013674,0.002476,0.000993,0.000592,0.006137,0.005516,0.059094,0.430464,-0.900671,-0.059128459512430766
1760171780.909757,-0.221033,0.029858,0.002477,0.974806,-0.013542,0.008768,0.001476,-0.000578,0.004444,-0.001459,0.059307,0.43078,-0.900506,-0.059341828492518456
1760171780.942395,-0.221167,0.029797,0.002505,0.974777,-0.010351,-0.011009,-0.000227,-0.001381,0.005167,0.000906,0.059199,0.431028,-0.900394,-0.05923366125374089
1760171780.943581,-0.221293,0.029711,0.002496,0.974751,-0.008435,0.000886,-0.003831,0.00079,0.002989,0.005175,0.059026,0.431264,-0.900293,-0.05906032327263169
1760171780.976991,-0.221424,0.029748,0.002471,0.974721,-0.00568,0.002371,-0.001212,-0.000667,0.001425,0.003237,0.059085,0.431507,-0.900173,-0.05911940966984384
1760171781.007044,-0.221514,0.029807,0.002477,0.974698,-0.001427,0.003872,0.003305,-0.000471,0.001327,0.000483,0.059202,0.431672,-0.900086,-0.059236625422211475
1760171781.007347,-0.221572,0.029808,0.002488,0.974685,-0.001218,-0.00103,0.001908,0.000473,0.003489,-0.000777,0.05921,0.431778,-0.900034,-0.059244673087637895
1760171781.035452,-0.221626,0.029802,0.0025,0.974673,-0.000238,-0.005183,0.000526,0.000183,0.003656,0.001524,0.059202,0.431876,-0.899988,-0.059236632641530444
1760171781.066115,-0.221676,0.029726,0.002541,0.974664,-0.001884,-0.005097,0.001787,0.000505,0.003797,0.004208,0.059072,0.431968,-0.899952,-0.05910642544248323
1760171781.067453,-0.221684,0.029677,0.002607,0.974663,-0.003534,-0.004297,0.005796,-0.000333,0.002889,0.002919,0.059006,0.43198,-0.899951,-0.05904028721316139
1760171781.096446,-0.221732,0.029624,0.002687,0.974654,-0.003946,-0.002985,0.00751,0.001448,0.002763,0.003078,0.058938,0.432065,-0.899914,-0.05897220324933486
1760171781.127435,-0.22179,0.029635,0.002786,0.97464,-0.004969,0.000708,0.00893,0.000273,0.004852,0.004442,0.059003,0.432166,-0.899862,-0.059037276250998465
1760171781.129325,-0.221898,0.029716,0.002869,0.974613,-0.008236,0.002686,0.00453,-0.00044,0.006202,0.003392,0.059196,0.432359,-0.899757,-0.059230593221002985
1760171781.163418,-0.222029,0.029739,0.002915,0.974582,-0.010034,0.001129,0.003095,-0.000231,0.005797,0.003883,0.05926,0.432597,-0.899638,-0.059294726135766924
1760171781.164754,-0.222184,0.029754,0.002938,0.974546,-0.010397,-0.000399,-0.000741,-0.001613,0.006598,0.00285,0.059298,0.432883,-0.899498,-0.059332788512305015
1760171781.194809,-0.222292,0.029745,0.002914,0.974522,-0.004292,-0.001144,0.000494,-0.001167,0.005553,0.00398,0.05927,0.433083,-0.899403,-0.05930476953550245
1760171781.224009,-0.222372,0.029736,0.002905,0.974504,-0.003506,-0.002471,-0.000633,-0.001108,0.004136,0.001599,0.059247,0.433232,-0.899333,-0.059281715879000246
1760171781.225856,-0.222449,0.029726,0.002897,0.974487,-0.001967,-0.000764,0.000233,0.000522,0.003212,0.003745,0.059224,0.433375,-0.899265,-0.0592587081907954
1760171781.256323,-0.222529,0.029711,0.002937,0.974469,-0.002124,-0.004754,0.001847,-0.000381,0.002791,0.002808,0.059212,0.433521,-0.899196,-0.059246655894500906
1760171781.263264,-0.22261,0.029732,0.002967,0.97445,-0.002273,0.001661,0.002958,0.00095,0.003904,0.001813,0.059266,0.433669,-0.899121,-0.059300754809351236
1760171781.296088,-0.222642,0.029727,0.002999,0.974442,0.000425,0.001651,0.006571,-0.000579,0.00412,0.003949,0.05927,0.433725,-0.899094,-0.05930474711683304
1760171781.3242,-0.222724,0.029781,0.003062,0.974422,-0.002633,-0.000799,0.006105,-0.001072,0.004005,0.001518,0.059402,0.433871,-0.899015,-0.05943697165720306
1760171781.325243,-0.222757,0.029772,0.003146,0.974414,-0.005451,-0.004585,0.006665,-0.000379,0.002167,0.00202,0.059423,0.433928,-0.898986,-0.05945801423437627
1760171781.358309,-0.222861,0.029751,0.003225,0.974391,-0.003451,-0.004068,0.009001,-0.000343,0.002072,0.002046,0.059415,0.434116,-0.898896,-0.0594499872141954
1760171781.36379,-0.222898,0.029733,0.003361,0.974382,0.003158,-0.004672,0.010827,-0.000342,0.002067,0.002048,0.059441,0.434176,-0.898865,-0.05947604939812133
1760171781.400423,-0.222881,0.029723,0.003488,0.974386,0.004744,-0.001436,0.01324,0.000341,0.002297,0.000577,0.059478,0.434137,-0.898881,-0.059513135833817614
1760171781.40117,-0.222862,0.029713,0.003614,0.97439,0.00453,-0.008512,0.009625,-0.000657,0.004088,0.004007,0.059516,0.434094,-0.898899,-0.05955121675627064
1760171781.431327,-0.222864,0.029708,0.003669,0.97439,0.001987,-0.003814,0.004187,0.000327,0.003757,0.003271,0.05953,0.434095,-0.898898,-0.05956521965227327
1760171781.461367,-0.222839,0.02967,0.003707,0.974397,0.000662,-0.001272,0.001394,-0.000221,0.001405,0.001387,0.059474,0.434047,-0.898925,-0.05950911410981672
1760171781.462451,-0.22289,0.029662,0.003719,0.974385,3e-06,-6e-06,6e-06,-1.9e-05,0.001446,0.002722,0.059462,0.434141,-0.89888,-0.059497114243464724
1760171781.504235,-0.222889,0.029623,0.003736,0.974386,0.000646,-0.001242,0.001362,0.000191,0.001514,0.004092,0.059394,0.434139,-0.898886,-0.05942896503387692
1760171781.53268,-0.222918,0.029636,0.00376,0.974379,9.2e-05,0.000771,0.002051,-7.7e-05,0.001793,0.003063,0.059429,0.43419,-0.898859,-0.059464029805451034
1760171781.564023,-0.222946,0.029658,0.003781,0.974372,-0.000994,0.000769,0.001862,-0.000211,0.001931,0.00255,0.059482,0.434241,-0.898831,-0.05951711606853876
1760171781.564842,-0.223001,0.029682,0.003805,0.974359,-0.00223,-0.000939,0.000541,-0.000277,0.002,0.002295,0.059538,0.434341,-0.898779,-0.05957321405884017
1760171781.598427,-0.223056,0.029709,0.003815,0.974345,-0.00154,0.000873,0.000267,-0.000145,0.001718,0.002516,0.059595,0.43444,-0.898727,-0.05963033544740508
1760171781.628723,-0.22311,0.029758,0.003809,0.974331,-0.0012,0.001765,0.000132,0.000631,0.00256,0.002466,0.059688,0.43454,-0.898672,-0.05972352718023771
1760171781.629027,-0.223163,0.029781,0.003785,0.974319,-0.003123,0.001508,-0.001013,0.001187,0.001914,0.001392,0.059721,0.434637,-0.898623,-0.05975658068978994
1760171781.659153,-0.223212,0.02975,0.00377,0.974308,-0.00234,-0.000292,-0.001034,0.001428,0.000837,0.002349,0.059654,0.434731,-0.898583,-0.059689406189420216
1760171781.659448,-0.223266,0.029768,0.003779,0.974296,-0.004284,-0.005707,0.001707,0.001163,0.000562,0.001055,0.059694,0.434829,-0.898532,-0.059729527275071956
1760171781.686845,-0.223345,0.029728,0.003813,0.974279,-0.007158,-0.002188,0.003752,0.001803,-7.4e-05,0.003961,0.059631,0.434973,-0.898467,-0.059666387077285936
1760171781.719858,-0.223451,0.029697,0.003859,0.974255,-0.007645,-0.013064,0.004502,-0.000553,-0.001264,0.000723,0.05959,0.435168,-0.898375,-0.05962532956603898
1760171781.722005,-0.223528,0.029553,0.003967,0.974241,-0.005413,-0.01824,0.006673,-0.000333,0.000511,0.002127,0.059357,0.435305,-0.898324,-0.059391919093862724
1760171781.75305,-0.223604,0.029394,0.004077,0.974228,-0.007354,-0.015618,0.006455,-0.000517,0.002411,0.003159,0.059096,0.435442,-0.898275,-0.05913044993610699
1760171781.782575,-0.223708,0.029265,0.004177,0.974208,-0.008981,-0.011537,0.00779,-0.000403,0.00377,0.002494,0.058889,0.435631,-0.898197,-0.05892308629630205
1760171781.782893,-0.223789,0.029214,0.004278,0.97419,-0.00653,-0.003903,0.006167,-0.000378,0.005561,0.001017,0.058835,0.435776,-0.89813,-0.05886900302825154
1760171781.811339,-0.223855,0.029186,0.004332,0.974176,-0.004037,-0.002157,0.003062,-0.000741,0.006284,0.001123,0.058804,0.435895,-0.898075,-0.05883791124250875
1760171781.842123,-0.223883,0.029134,0.004348,0.974171,0.000767,-0.003221,-0.000354,-0.000335,0.005266,0.001896,0.05871,0.435947,-0.898055,-0.0587437966328417
1760171781.844194,-0.22388,0.029072,0.004355,0.974173,0.005157,-0.006121,-0.000671,-0.00046,0.004293,0.002707,0.058591,0.435943,-0.898065,-0.058624576288530454
1760171781.873944,-0.22385,0.029005,0.00437,0.974182,0.008127,-0.008736,0.002104,-0.000836,0.003342,0.003534,0.058468,0.435887,-0.8981,-0.058501375456486315
1760171781.879186,-0.223794,0.028913,0.004436,0.974197,0.008114,-0.011206,0.005932,-0.001123,0.002862,0.003185,0.05832,0.435782,-0.898161,-0.05835310019008267
1760171781.90964,-0.223756,0.028848,0.004515,0.974208,0.005106,-0.006272,0.008619,-0.000885,0.00355,0.003677,0.058228,0.435708,-0.898202,-0.05826098914535661
1760171781.945815,-0.223741,0.028812,0.004609,0.974212,0.003615,-0.004817,0.007639,-0.00059,0.002745,0.002793,0.058199,0.435677,-0.89822,-0.05823188313287246
1760171781.94609,-0.223752,0.02881,0.004689,0.974209,0.001978,-0.001294,0.007192,0.000365,0.003047,0.001847,0.058232,0.435692,-0.89821,-0.0582649698510961
1760171781.976786,-0.223774,0.028823,0.004764,0.974203,0.000876,0.000995,0.006243,-0.000437,0.003567,0.001585,0.058291,0.435728,-0.898189,-0.05832405502272049
1760171781.978844,-0.223829,0.028864,0.004804,0.974189,-0.001568,0.00299,0.002991,-0.000552,0.002291,-3.2e-05,0.058389,0.435826,-0.898135,-0.05842222673368259
1760171782.011453,-0.223866,0.028839,0.004829,0.974181,0.001579,-0.005117,0.002086,-0.001203,0.001109,0.001284,0.058351,0.435894,-0.898105,-0.058384133964390524
1760171782.040551,-0.223853,0.028811,0.004843,0.974185,0.004753,-0.000935,0.000243,-0.000907,-3.5e-05,0.00414,0.058302,0.43587,-0.898119,-0.05833509397138721
1760171782.042224,-0.223822,0.028843,0.004853,0.974191,0.005797,0.003237,0.001691,-0.000403,-1.6e-05,0.00184,0.058369,0.43581,-0.898144,-0.05840219592263814
1760171782.060764,-0.223823,0.028875,0.004867,0.97419,-0.001216,0.001796,-0.00025,-0.000359,0.000339,0.000435,0.058438,0.435812,-0.898139,-0.058471289860190366
1760171782.089728,-0.223881,0.028883,0.004857,0.974176,-0.004865,-0.000653,-0.000939,2.3e-05,-0.000198,0.000572,0.058449,0.435918,-0.898086,-0.058482352917907224
1760171782.120342,-0.223948,0.028884,0.004818,0.974161,-0.003221,0.001808,-0.002707,0.000373,-0.000785,0.001016,0.058434,0.436044,-0.898026,-0.0584673170680062
1760171782.120631,-0.223992,0.028906,0.004781,0.974151,0.000296,0.002178,-0.002299,0.000281,-0.000304,0.001212,0.058459,0.436127,-0.897984,-0.058492363393353786
1760171782.149086,-0.223995,0.028919,0.004746,0.97415,2e-05,8.6e-05,-0.003315,-0.000278,-0.000266,0.001386,0.05847,0.436136,-0.897979,-0.05850337765304532
1760171782.340105,-0.223995,0.028906,0.00471,0.97415,-0.000727,0.00145,-0.002978,-0.000348,0.00022,0.003401,0.058428,0.436137,-0.897982,-0.05846126619976512
1760171782.340492,-0.224026,0.02894,0.004682,0.974142,-0.00181,0.005112,-0.001271,0.000122,-0.001067,0.004272,0.058482,0.436194,-0.89795,-0.058515400666872386
1760171782.340547,-0.224072,0.029014,0.004679,0.974129,-0.004264,0.006856,0.002168,0.000107,-2.1e-05,0.002995,0.058624,0.436279,-0.897899,-0.05865766820876355
1760171782.340624,-0.22414,0.029105,0.004675,0.974111,-0.00661,0.007173,0.002249,-0.000327,0.000706,0.000486,0.058798,0.436403,-0.897828,-0.05883193519261832
1760171782.340683,-0.224245,0.029155,0.004666,0.974086,-0.008403,0.005362,0.000885,-0.000401,0.001892,0.001784,0.058893,0.436595,-0.897729,-0.05892706954538833
1760171782.34075,-0.224348,0.029193,0.004636,0.974061,-0.009648,0.004436,-0.002859,-0.000488,0.001954,0.001145,0.058952,0.436787,-0.897631,-0.0589862106814946
1760171782.340816,-0.224466,0.029225,0.004586,0.974033,-0.011239,0.003691,-0.004254,-0.000469,0.002422,0.002069,0.058991,0.437006,-0.897522,-0.05902527014781191
1760171782.340881,-0.224575,0.029255,0.004539,0.974007,-0.006865,0.003354,-0.003973,-0.00045,0.001771,0.000859,0.059027,0.43721,-0.89742,-0.059061347636197574
1760171782.34097,-0.22465,0.029265,0.004495,0.97399,-0.003209,0.002112,-0.002438,-0.000253,0.001135,0.000755,0.059028,0.43735,-0.897352,-0.05906233424681612
1760171782.347003,-0.224698,0.029312,0.004477,0.973977,-0.001583,0.002492,0.000613,-4.7e-05,0.000912,0.001517,0.05911,0.43744,-0.897303,-0.05914446345906118
1760171782.37472,-0.224704,0.029355,0.004471,0.973975,0.000688,0.001457,0.001682,-8.7e-05,0.00078,0.001022,0.059191,0.43745,-0.897292,-0.05922564729672952
1760171782.387814,-0.224692,0.029373,0.004481,0.973977,0.000912,-6.9e-05,0.003115,-3.5e-05,0.000315,0.000414,0.059231,0.437427,-0.897301,-0.059265694893639864
1760171782.393067,-0.224675,0.029402,0.004519,0.97398,0.001004,-0.000689,0.003697,-0.00015,0.000951,0.000983,0.059304,0.437392,-0.897313,-0.059338836231898055
1760171782.42186,-0.22467,0.029433,0.004556,0.97398,0.000516,0.000634,0.003934,-0.000139,0.001662,0.002441,0.059382,0.437381,-0.897314,-0.05941693144120926
1760171782.45181,-0.224703,0.029461,0.0046,0.973971,-0.002001,-0.000485,0.001937,-0.000193,0.001491,0.001792,0.059456,0.437437,-0.897282,-0.059491051767970884
1760171782.452698,-0.224779,0.029486,0.004622,0.973953,-0.007386,0.001134,0.001711,0.000536,0.001231,0.001852,0.059514,0.437576,-0.89721,-0.059549174785655794
1760171782.496674,-0.224875,0.029534,0.004626,0.973929,-0.00813,0.00047,-0.000229,0.00021,0.000482,0.000725,0.059608,0.43775,-0.897118,-0.05964338893677559
1760171782.497652,-0.224973,0.029522,0.00462,0.973907,-0.007166,-0.000261,-0.002016,1.2e-05,0.000609,0.000699,0.059582,0.437933,-0.897031,-0.0596173109912279
1760171782.529007,-0.225074,0.029511,0.0046,0.973884,-0.008051,-7.5e-05,-0.001686,0.000426,0.001268,0.001012,0.059551,0.43812,-0.896942,-0.05958624197101871
1760171782.533954,-0.225176,0.0295,0.004575,0.973861,-0.008983,-0.001994,-0.001368,-3.6e-05,0.000869,-3.1e-05,0.059518,0.43831,-0.896851,-0.059553202501233776
1760171782.565247,-0.225278,0.029489,0.004548,0.973838,-0.010615,-0.002259,-0.000208,-1.4e-05,0.000331,-1.2e-05,0.059485,0.438499,-0.896761,-0.05952013305769418
1760171782.573219,-0.225365,0.029452,0.004576,0.973818,-0.007167,-0.001909,0.002197,-5e-06,0.000125,-4e-06,0.059424,0.43866,-0.896686,-0.05945904101671931
1760171782.609256,-0.225419,0.029454,0.004629,0.973806,-0.002856,0.00195,0.005085,-0.000215,0.001338,0.001277,0.059452,0.438755,-0.896638,-0.059487072645708426
1760171782.610311,-0.225459,0.029496,0.004682,0.973795,-0.000397,3.3e-05,0.00446,-0.000294,0.001795,0.00176,0.059558,0.438826,-0.896596,-0.059593272509635836
1760171782.640482,-0.225492,0.029508,0.004722,0.973787,-0.002715,-0.000843,0.000324,-0.000528,0.002358,0.001512,0.059599,0.438883,-0.896565,-0.05963436556979168
1760171782.67139,-0.225532,0.029465,0.004699,0.973779,-0.005673,-0.000941,-0.005329,-0.000277,0.002217,0.002714,0.059504,0.438959,-0.896535,-0.059539148693305864
1760171782.672651,-0.22561,0.02947,0.004629,0.973761,-0.005746,0.000287,-0.006744,-0.000283,0.000743,0.003688,0.059482,0.439107,-0.896463,-0.05951716209466155
1760171782.703386,-0.225686,0.02947,0.004564,0.973744,-0.00536,-5.7e-05,-0.006392,0.000104,-0.000128,0.001767,0.059452,0.439251,-0.896395,-0.05948707907918157
1760171782.73493,-0.225961,0.029387,0.004466,0.973683,-0.016155,-0.007591,-0.002943,0.000442,-0.001144,0.000535,0.059246,0.439767,-0.896156,-0.059280694491618775
1760171782.734923,-0.225792,0.02944,0.004486,0.97372,-0.01062,0.000817,-0.004587,0.000452,-0.000843,0.001507,0.059359,0.439451,-0.896303,-0.05939392159692496
1760171782.76698,-0.22614,0.029352,0.00447,0.973642,-0.014574,-0.001874,0.003909,0.00135,-0.003306,0.001509,0.059179,0.440096,-0.895999,-0.059213571647896854
1760171782.795268,-0.226257,0.029298,0.00458,0.973616,-0.004291,-0.017448,0.013,-0.001215,-0.004081,-0.003162,0.059122,0.440307,-0.895898,-0.05915652972741072
1760171782.795587,-0.226301,0.029141,0.004776,0.97361,-0.003863,-0.018269,0.014622,0.00075,0.000875,0.002267,0.058905,0.440379,-0.895878,-0.058939092868178666
1760171782.833903,-0.226366,0.029,0.004906,0.973598,-0.00999,-0.015858,0.007746,-3e-06,0.003082,0.000679,0.05869,0.440494,-0.895835,-0.0587237505158921
1760171782.834057,-0.226439,0.028865,0.005013,0.973585,-0.010213,-0.00863,0.004765,0.000491,0.003135,-0.000872,0.058475,0.440625,-0.895785,-0.05850836142751912
1760171782.862828,-0.226497,0.028787,0.005069,0.973573,-0.008292,-0.004528,0.002431,-0.000134,0.005302,-0.001851,0.058349,0.440732,-0.895741,-0.05838212379403329
1760171782.895125,-0.226568,0.028755,0.005082,0.973558,-0.005029,-0.00517,-0.003318,-0.000779,0.004434,0.000294,0.058292,0.440862,-0.89568,-0.0583250651248501
1760171782.896361,-0.226638,0.028693,0.005033,0.973543,-0.001638,-0.003645,-0.00475,-0.000498,0.003818,0.003294,0.058149,0.440995,-0.895624,-0.058181812739102175
1760171782.929907,-0.226675,0.028649,0.004979,0.973536,7.6e-05,-0.004901,-0.005228,-0.000356,0.001182,0.003934,0.058039,0.441068,-0.895595,-0.05807163641175641
1760171782.932126,-0.22672,0.028607,0.004944,0.973527,0.000769,-0.004291,-0.00262,0.000232,0.000987,0.004501,0.057941,0.441153,-0.895559,-0.057973496133089254
1760171782.968921,-0.226734,0.028566,0.004945,0.973525,0.001125,-0.003064,0.001009,0.000217,0.000363,0.00237,0.057862,0.44118,-0.895552,-0.057894301411609096
1760171782.972143,-0.226793,0.028543,0.004975,0.973512,-0.002946,-0.003071,0.001887,-9e-06,0.000585,0.001219,0.057831,0.441287,-0.895501,-0.05786326409524926
1760171783.000057,-0.226849,0.028527,0.005029,0.973499,-0.003958,-0.002979,0.004037,0.000403,0.000819,-0.000191,0.057824,0.441388,-0.895451,-0.05785628731969975
1760171783.031054,-0.226922,0.028512,0.005077,0.973482,-0.003751,-0.001768,0.001684,0.000927,0.002528,0.000668,0.057816,0.44152,-0.895387,-0.0578482448071242
1760171783.032407,-0.226998,0.028501,0.005087,0.973465,-0.004739,0.001285,9e-06,-0.000254,0.003116,0.001625,0.057798,0.441659,-0.895319,-0.057830246132036536
1760171783.062406,-0.22706,0.028546,0.005075,0.973449,-0.002499,0.003078,-0.000943,-0.001496,0.000475,-0.000238,0.057881,0.441772,-0.895258,-0.05791337943131445
1760171783.092335,-0.22704,0.028511,0.005086,0.973455,0.008007,-0.006338,0.002648,-0.000411,-0.001374,0.001466,0.057817,0.441736,-0.89528,-0.05784926682296722
1760171783.121524,-0.226974,0.02851,0.005117,0.97347,0.005307,-0.004116,0.004373,-0.000619,-0.000931,0.000923,0.05783,0.441613,-0.89534,-0.05786228025090161
1760171783.121861,-0.226908,0.028509,0.005147,0.973485,0.002606,-0.001894,0.006098,-0.000828,-0.000489,0.000381,0.057842,0.44149,-0.8954,-0.057874294264386256
1760171783.151578,-0.226873,0.028478,0.00522,0.973494,5.2e-05,-0.000789,0.005862,-0.00047,0.000299,-0.000373,0.057816,0.441421,-0.895436,-0.057848234986037056
1760171783.152825,-0.226882,0.028465,0.005264,0.973492,-0.00412,-0.004725,0.003537,-0.000596,0.000972,-0.001078,0.057809,0.441436,-0.895429,-0.05784122623135741
1760171783.186871,-0.226938,0.028398,0.005295,0.973481,-0.006086,-0.005065,-6.5e-05,-0.001098,-0.00056,0.001384,0.057694,0.441539,-0.895385,-0.057726066731698146
1760171783.191025,-0.226991,0.028346,0.005324,0.97347,-0.002387,-0.003743,0.000204,-0.001832,-0.000669,0.003672,0.057605,0.441635,-0.895343,-0.05763693828341739
1760171783.220739,-0.227006,0.028331,0.005332,0.973467,-0.000822,-3.2e-05,0.001045,-0.001444,-0.001027,0.002718,0.05758,0.441663,-0.895332,-0.05761183455089389
1760171783.251046,-0.22703,0.028322,0.005358,0.973461,-0.003856,0.003018,0.002729,-8.7e-05,-0.00018,0.002724,0.057574,0.441706,-0.895311,-0.05760583351003547
1760171783.251422,-0.227115,0.028365,0.005359,0.97344,-0.010821,0.002872,0.001106,-0.000553,0.000837,0.00384,0.057658,0.441861,-0.895229,-0.057689978791845606
1760171783.27981,-0.227254,0.028417,0.005362,0.973406,-0.012301,0.005111,-0.001564,9.2e-05,-0.000236,0.001515,0.057759,0.442117,-0.895096,-0.05779115192691863
1760171783.309001,-0.227368,0.028451,0.005329,0.973379,-0.007819,0.004102,-0.003976,-0.000737,0.000222,0.001014,0.057811,0.442326,-0.894989,-0.0578432586652408
1760171783.309592,-0.227474,0.02851,0.005275,0.973352,-0.006166,0.002914,-0.003594,-0.000189,5.7e-05,0.00026,0.057901,0.442525,-0.894885,-0.05793339946359615
1760171783.340252,-0.227559,0.028519,0.005255,0.973332,-0.006795,0.002253,-0.001224,0.000436,-0.000914,0.001084,0.057909,0.442682,-0.894807,-0.05794140397605367
1760171783.370384,-0.22766,0.028538,0.005256,0.973308,-0.010594,-0.000225,0.001103,0.000594,-0.001161,0.001293,0.057947,0.442868,-0.894713,-0.05797944176876202
1760171783.371066,-0.227768,0.028557,0.005302,0.973282,-0.012463,-5.8e-05,0.007073,-0.000302,-0.000984,0.000948,0.058003,0.443062,-0.894613,-0.0580355526107543
1760171783.401399,-0.227898,0.02857,0.005384,0.973251,-0.01185,0.000344,0.00623,-7.2e-05,-0.000236,0.000228,0.058066,0.443295,-0.894493,-0.05809868393640272
1760171783.431371,-0.227993,0.028588,0.005466,0.973228,-0.010305,0.000908,0.005788,-0.000104,0.000471,0.000575,0.058137,0.443466,-0.894404,-0.058169784440523446
1760171783.432458,-0.22808,0.028607,0.005547,0.973206,-0.008008,-0.001666,0.002298,-0.00036,0.001116,0.000135,0.058211,0.443621,-0.894322,-0.05824392649532447
1760171783.467344,-0.228163,0.02863,0.005588,0.973186,-0.006912,0.001295,0.002301,0.001155,0.00179,0.000845,0.058275,0.44377,-0.894244,-0.05830803041604111
1760171783.46921,-0.228223,0.02863,0.005607,0.973172,-0.005982,-6.3e-05,0.0023,0.000791,0.001707,0.001128,0.058282,0.443879,-0.89419,-0.058315013311924
1760171783.499695,-0.228277,0.028623,0.00562,0.973159,-0.002738,-0.000491,0.000747,0.000173,0.000374,0.000247,0.058276,0.443978,-0.894141,-0.058309015642526114
1760171783.528924,-0.22831,0.028617,0.005649,0.973151,-0.003132,-0.000958,0.002791,-0.000142,0.001163,0.001125,0.058277,0.444038,-0.894111,-0.05831002464298715
1760171783.530205,-0.228319,0.028581,0.00571,0.97315,0.000874,-0.003144,0.003813,-0.000842,0.000547,0.000898,0.058234,0.444051,-0.894107,-0.05826696951730226
1760171783.561146,-0.228304,0.02857,0.005781,0.973154,0.002566,-0.004485,0.007277,-0.000593,0.005173,0.002775,0.058245,0.444019,-0.894122,-0.058277997367507044
1760171783.568026,-0.228285,0.02856,0.005896,0.973157,0.002523,-0.00025,0.014534,-0.001569,0.015675,0.001168,0.058279,0.443979,-0.89414,-0.058312036822145044
1760171783.596905,-0.228357,0.028592,0.006098,0.973138,-0.015148,-0.002956,0.023387,-0.002991,0.037274,0.002307,0.058433,0.444098,-0.894071,-0.05846629185032011
1760171783.627409,-0.228593,0.028582,0.006344,0.973082,-0.032678,-0.006984,0.015033,-0.005902,0.064197,0.001805,0.058525,0.444517,-0.893857,-0.05855843567526115
1760171783.628406,-0.228936,0.028536,0.006461,0.973002,-0.025939,-0.0091,0.000562,-0.007584,0.083219,0.002328,0.058489,0.445142,-0.893548,-0.05852238808919351
1760171783.660603,-0.22908,0.028459,0.006444,0.97297,0.010305,-0.000215,0.001152,-0.00631,0.091494,0.00595,0.058332,0.445408,-0.893425,-0.05836515619360243
1760171783.690982,-0.228857,0.028534,0.006483,0.97302,0.064044,0.014716,0.011772,-0.00873,0.102904,0.005379,0.058497,0.444995,-0.89362,-0.058530438084871315
1760171783.691473,-0.228209,0.02871,0.006587,0.973167,0.108433,0.016933,0.024552,-0.00985,0.112547,0.000953,0.058885,0.443793,-0.894193,-0.05891905993535241
1760171783.722985,-0.227196,0.028956,0.006879,0.973394,0.151519,0.018181,0.052727,-0.010928,0.119985,0.001195,0.059497,0.441905,-0.895087,-0.05953213854621603
1760171783.723411,-0.22579,0.029373,0.007333,0.973706,0.18668,0.039864,0.068529,-0.010477,0.13668,0.004467,0.060513,0.439275,-0.896312,-0.06055000594297129
1760171783.752647,-0.224014,0.029796,0.007858,0.974099,0.231885,0.028389,0.066994,-0.012549,0.142993,0.004566,0.06157,0.435954,-0.89786,-0.06160898762500206
1760171783.783831,-0.221697,0.03026,0.008384,0.97461,0.298763,0.027966,0.07766,-0.01435,0.139193,0.002086,0.062701,0.431628,-0.89987,-0.06274215168953629
1760171783.785504,-0.218596,0.030594,0.009111,0.975293,0.385033,0.012281,0.098219,-0.013135,0.1391,0.006221,0.06366,0.425833,-0.90256,-0.06370304815836268
1760171783.843585,-0.214342,0.031018,0.009861,0.976216,0.451668,0.016116,0.091745,-0.013943,0.141805,0.009508,0.064787,0.417877,-0.906191,-0.0648323863823919
1760171783.843909,-0.210084,0.03144,0.010611,0.97712,0.518303,0.019951,0.085271,-0.014737,0.144543,0.012727,0.0659,0.409887,-0.909753,-0.06594776940749784
1760171783.845514,-0.204905,0.031895,0.011151,0.978198,0.58125,0.032107,0.071903,-0.012838,0.134215,0.014614,0.06697,0.400165,-0.913993,-0.06702015404461342
1760171783.874739,-0.199267,0.032395,0.011494,0.979342,0.64178,0.033344,0.054805,-0.012547,0.119496,0.021024,0.068033,0.389556,-0.918487,-0.06808556620473079
1760171783.90536,-0.193064,0.032877,0.011685,0.980566,0.702445,0.044783,0.052529,-0.009048,0.099603,0.028348,0.068988,0.377856,-0.923291,-0.06904281379468374
1760171783.906449,-0.186403,0.033508,0.01188,0.98183,0.754796,0.056005,0.064636,-0.01043,0.079836,0.027922,0.070228,0.365236,-0.928262,-0.07028586796355786
1760171783.946063,-0.179351,0.034207,0.012154,0.983115,0.795882,0.050854,0.073452,-0.008046,0.062845,0.019511,0.071618,0.351815,-0.933326,-0.07167935211841224
1760171783.948017,-0.172049,0.034845,0.012498,0.984393,0.82814,0.04257,0.079336,-0.004261,0.050397,0.018555,0.072902,0.337856,-0.93837,-0.07296674365727743
1760171783.976748,-0.164511,0.035417,0.012865,0.985655,0.84813,0.043282,0.081116,-0.00603,0.034587,0.021398,0.07405,0.323391,-0.943363,-0.07411788302967219
1760171783.984182,-0.156705,0.036,0.013301,0.986899,0.861904,0.041988,0.09223,-0.005027,0.020862,0.021475,0.075226,0.308347,-0.948295,-0.07529712263468201
1760171784.01463,-0.148588,0.036655,0.013834,0.988123,0.875819,0.047391,0.099999,-0.004299,0.007823,0.024522,0.07655,0.292633,-0.953156,-0.07662494754546015
1760171784.044431,-0.140297,0.037356,0.0145,0.989298,0.879078,0.044516,0.117235,-0.001798,-0.00655,0.024436,0.077982,0.276507,-0.957843,-0.07806123375837777
1760171784.057869,-0.131922,0.038189,0.015348,0.990405,0.874578,0.068212,0.137584,-0.001014,-0.012926,0.023306,0.079695,0.26014,-0.962276,-0.07977963454389689
1760171784.088292,-0.123531,0.039009,0.016337,0.991439,0.871344,0.044701,0.140855,-0.004477,-0.014583,0.017314,0.081387,0.243672,-0.966437,-0.08147710321226788
1760171784.088581,-0.115165,0.039769,0.017344,0.992398,0.855929,0.043434,0.132924,-0.002209,-0.015228,0.019148,0.082928,0.2272,-0.970311,-0.08302333167660203
1760171784.142818,-0.106944,0.040425,0.018036,0.993279,0.844457,0.039052,0.113448,-0.004353,-0.021685,0.020685,0.084164,0.210992,-0.973858,-0.08426365615720824
1760171784.143175,-0.098715,0.041078,0.018727,0.994091,0.832984,0.03467,0.093972,-0.006463,-0.028084,0.021953,0.085367,0.194725,-0.977136,-0.08547102236164253
1760171784.143454,-0.090545,0.041677,0.019209,0.994835,0.82891,0.04721,0.074157,-0.003044,-0.027939,0.026128,0.086402,0.178553,-0.980129,-0.08650989443679957
1760171784.17159,-0.082416,0.042331,0.019417,0.995509,0.835618,0.052905,0.053113,-0.00154,-0.03449,0.033162,0.087482,0.162447,-0.982832,-0.08759393267074099
1760171784.20141,-0.074269,0.043127,0.019478,0.996115,0.826342,0.071097,0.043384,0.000673,-0.038253,0.033278,0.088812,0.14628,-0.985248,-0.08892921137601563
1760171784.205728,-0.066198,0.044031,0.019472,0.996644,0.815318,0.078042,0.04031,0.001038,-0.04324,0.031433,0.090345,0.130237,-0.987358,-0.09046836915035114
1760171784.244855,-0.058275,0.044976,0.019413,0.997098,0.792646,0.080759,0.033931,0.000709,-0.047048,0.028188,0.091953,0.114465,-0.989162,-0.09208312181647418
1760171784.246735,-0.05064,0.045899,0.01934,0.997474,0.758415,0.079612,0.026619,0.004543,-0.047274,0.026162,0.093525,0.099248,-0.990658,-0.09366186507396589
1760171784.278539,-0.043332,0.046787,0.019111,0.997782,0.720209,0.069913,0.004972,0.004683,-0.046523,0.028174,0.095023,0.084683,-0.991867,-0.0951665491428383
1760171784.311364,-0.036413,0.04761,0.018736,0.998026,0.686706,0.073332,-0.012568,0.006031,-0.051172,0.033104,0.096397,0.070898,-0.992815,-0.09654689493274404
1760171784.341408,-0.029993,0.048365,0.018059,0.998216,0.647468,0.06247,-0.036269,0.006761,-0.057154,0.028798,0.097641,0.058132,-0.993522,-0.09779686330964077
1760171784.342476,-0.023856,0.049023,0.017246,0.998364,0.611417,0.053032,-0.053831,0.008448,-0.065947,0.029203,0.098708,0.045943,-0.994055,-0.0988690278287152
1760171784.372621,-0.018009,0.049634,0.016331,0.998472,0.573971,0.049206,-0.063854,0.009796,-0.075673,0.024977,0.099704,0.034341,-0.994424,-0.09986997030024902
1760171784.402525,-0.012467,0.050213,0.015352,0.998543,0.54044,0.046755,-0.070754,0.010917,-0.082554,0.021488,0.100662,0.023356,-0.994646,-0.100832828760372
1760171784.403755,-0.00724,0.050759,0.01438,0.998581,0.502356,0.042067,-0.069962,0.011498,-0.088162,0.015582,0.101583,0.013,-0.994742,-0.10175853655118124
1760171784.44257,-0.002292,0.05125,0.013416,0.998593,0.470545,0.033904,-0.070135,0.01265,-0.092491,0.011545,0.102418,0.003203,-0.994736,-0.10259793192467075
1760171784.443613,0.002478,0.051668,0.012497,0.998583,0.449645,0.028872,-0.065754,0.01134,-0.097856,0.011093,0.103128,-0.006239,-0.994649,-0.10331163256685766
1760171784.474812,0.00719,0.052015,0.011656,0.998552,0.443575,0.018017,-0.055889,0.010483,-0.102425,0.012085,0.103712,-0.015572,-0.994485,-0.10389887776337424
1760171784.479508,0.011989,0.05229,0.010914,0.9985,0.449761,0.012771,-0.048154,0.010834,-0.105146,0.016098,0.104162,-0.025084,-0.994244,-0.10435127721100253
1760171784.507941,0.016942,0.052559,0.010258,0.998421,0.461903,0.011764,-0.03862,0.009399,-0.105864,0.019349,0.104604,-0.03491,-0.993901,-0.10479571334884838
1760171784.537531,0.02205,0.052777,0.009675,0.998316,0.470295,0.007566,-0.032771,0.007327,-0.104389,0.019579,0.104949,-0.045048,-0.993457,-0.10514259523020268
1760171784.539595,0.027265,0.052945,0.009129,0.998183,0.475401,0.00515,-0.030841,0.007529,-0.103667,0.023536,0.1052,-0.055398,-0.992907,-0.10539499958885015
1760171784.569128,0.032511,0.053119,0.008607,0.998022,0.473694,0.002604,-0.0248,0.006075,-0.101922,0.022287,0.105468,-0.065807,-0.992243,-0.10566450186300189
1760171784.599781,0.037693,0.053274,0.008118,0.997835,0.462712,0.001841,-0.022599,0.005775,-0.099422,0.020808,0.105705,-0.076087,-0.991482,-0.10590288172799799
1760171784.601807,0.042737,0.053439,0.0077,0.997626,0.441754,0.009323,-0.014343,0.005109,-0.096483,0.020468,0.105967,-0.086093,-0.990636,-0.1061662891966499
1760171784.620577,0.047508,0.053634,0.007404,0.997402,0.407719,0.013305,-0.001554,0.002966,-0.088738,0.018777,0.106287,-0.095564,-0.989733,-0.10648810002750109
1760171784.650396,0.051835,0.053871,0.007244,0.997175,0.352889,0.011546,0.004629,0.000327,-0.078256,0.015271,0.106686,-0.104159,-0.988822,-0.10688942807042338
1760171784.68112,0.055563,0.054035,0.007134,0.996966,0.289245,0.005856,0.004605,-0.000578,-0.068559,0.011833,0.10695,-0.111561,-0.987986,-0.10715491775651868
1760171784.681442,0.058661,0.05417,0.007096,0.996782,0.229023,0.007092,0.010596,-0.000834,-0.060467,0.014908,0.107159,-0.117713,-0.987249,-0.10736515299308234
1760171784.742881,0.060879,0.054323,0.007145,0.99664,0.189666,0.010641,0.01058,-0.000607,-0.052544,0.013312,0.10741,-0.122124,-0.986686,-0.10761758564736063
1760171784.743308,0.063096,0.054475,0.007194,0.996494,0.150309,0.01419,0.010565,-0.000378,-0.044623,0.011696,0.10766,-0.126533,-0.986103,-0.10786904587577062
1760171784.745095,0.06494,0.054608,0.007263,0.996367,0.130466,0.013659,0.009411,-9.4e-05,-0.039334,0.008558,0.107876,-0.130202,-0.985601,-0.10808638055728427
1760171784.773987,0.066589,0.054723,0.00732,0.996252,0.121461,0.009468,0.008304,7.9e-05,-0.033718,0.006954,0.10806,-0.13348,-0.985143,-0.10827138206664305
1760171784.775166,0.068099,0.054806,0.007358,0.996145,0.113641,0.007916,0.006818,-0.000236,-0.028497,0.005767,0.108187,-0.13648,-0.984718,-0.10839912266473894
1760171784.806014,0.069447,0.054866,0.007369,0.996049,0.099738,0.006164,0.003937,0.000672,-0.022573,0.004888,0.108274,-0.139155,-0.984334,-0.10848663453867395
1760171784.835157,0.070599,0.054895,0.007328,0.995966,0.081235,0.004519,-0.003172,-0.000117,-0.019094,0.005794,0.108313,-0.141433,-0.984005,-0.10852586290703099
1760171784.837168,0.071494,0.054948,0.007271,0.9959,0.058997,0.002359,-0.002606,0.000217,-0.015683,0.003675,0.108406,-0.143201,-0.983738,-0.10861952274287404
1760171784.870632,0.072136,0.055001,0.007206,0.995851,0.035438,0.003338,-0.003475,-0.000716,-0.014114,0.00328,0.108505,-0.144465,-0.983543,-0.10871903032795471
1760171784.877682,0.072551,0.054989,0.007156,0.995822,0.018949,0.000955,-0.003581,-0.000662,-0.013264,0.006153,0.108481,-0.145283,-0.983425,-0.10869490397539201
1760171784.908028,0.07281,0.055002,0.007151,0.995802,0.011389,-0.002647,0.003606,-0.002797,-0.012375,0.002626,0.108501,-0.145795,-0.983347,-0.10871502472717084
1760171784.948462,0.073008,0.054913,0.007226,0.995792,0.006995,-0.002311,0.003893,-0.002337,-0.007823,0.003022,0.108309,-0.146195,-0.983309,-0.10852186279790196
1760171784.948794,0.073205,0.054824,0.007302,0.995782,0.002601,-0.001974,0.00418,-0.001877,-0.003271,0.003418,0.108116,-0.146594,-0.983271,-0.10832770525588192
1760171784.976806,0.073306,0.054772,0.007325,0.995777,-0.000632,-0.001431,-0.002672,-0.002238,0.000593,0.00398,0.108007,-0.146795,-0.983253,-0.10821806236749237
1760171784.982916,0.073377,0.054771,0.007268,0.995773,-0.001983,0.00631,-0.011613,-0.001155,0.001435,0.002877,0.108012,-0.146931,-0.983232,-0.10822310642073595
1760171785.057835,0.07344,0.054882,0.007026,0.995764,0.00374,0.006751,-0.016529,-0.000944,-0.000545,0.003326,0.108267,-0.14703,-0.983189,-0.10847962705926056
,0.073503,0.054993,0.006784,0.995755,0.009462,0.007192,-0.021445,-0.000733,-0.002526,0.003774,0.108522,-0.147129,-0.983146,-0.10873614657171113
1760171785.05894,0.073717,0.055213,0.006275,0.99573,0.022562,0.011153,-0.021251,0.000263,-0.007226,0.004806,0.109029,-0.147497,-0.983035,-0.10924614686373406
1760171785.058385,0.073566,0.055104,0.006541,0.995745,0.015184,0.007633,-0.026361,-0.000521,-0.004506,0.004223,0.108777,-0.147228,-0.983103,-0.10899266491586129
1760171785.088498,0.073953,0.055317,0.006086,0.995708,0.025667,0.008384,-0.013178,-0.00047,-0.006603,0.002273,0.109259,-0.147945,-0.982942,-0.10947754402243577
1760171785.117786,0.074172,0.055384,0.005974,0.995688,0.020146,0.0075,-0.006306,-0.000698,-0.004186,0.00232,0.109405,-0.148366,-0.982862,-0.10962445711584848
1760171785.119748,0.07434,0.055455,0.005936,0.995672,0.008172,0.003902,-0.001798,-0.000478,-0.001361,0.000557,0.109547,-0.148696,-0.982797,-0.10976724120120841
1760171785.148818,0.074437,0.055476,0.005921,0.995664,0.002339,0.002985,-0.003953,-0.000397,0.000662,0.001437,0.109589,-0.148886,-0.982763,-0.10980955537939238
1760171785.156668,0.074465,0.055529,0.005853,0.995659,-0.001346,0.005633,-0.006452,0.000402,2.3e-05,0.003413,0.109705,-0.148933,-0.982743,-0.10992625211468798
1760171785.186657,0.074501,0.055642,0.005756,0.995651,-0.000103,0.013707,-0.014074,-0.000336,0.001139,0.004316,0.109942,-0.148994,-0.982707,-0.11016472353272456
1760171785.217136,0.074544,0.055758,0.005625,0.995642,0.009503,0.009581,-0.014856,-0.001092,-0.000731,0.001106,0.110191,-0.149065,-0.982669,-0.11041517414726514
1760171785.217406,0.07466,0.055822,0.005485,0.99563,0.01688,0.005583,-0.013913,0.000238,-6.8e-05,0.001167,0.110337,-0.14928,-0.98262,-0.11056206747236284
1760171785.245107,0.074817,0.055918,0.005332,0.995614,0.014449,0.007448,-0.016252,2.6e-05,0.000388,0.000875,0.110548,-0.149574,-0.982551,-0.11077442879443293
1760171785.281128,0.074938,0.056,0.005159,0.995601,0.01041,0.007165,-0.014969,0.000148,-0.000681,-0.000481,0.110734,-0.149795,-0.982497,-0.11096151062677775
1760171785.287938,0.075031,0.056042,0.005008,0.995593,0.009292,0.001902,-0.014278,-0.000985,-0.001057,-0.000414,0.110838,-0.149963,-0.982459,-0.11106622530526618
1760171785.342898,0.075118,0.056065,0.004896,0.995585,0.009672,0.004144,-0.008003,-3.9e-05,-0.001574,0.001297,0.1109,-0.150122,-0.982428,-0.11112857924138335
1760171785.343213,0.075204,0.056089,0.004783,0.995578,0.010051,0.006385,-0.001727,0.000906,-0.00209,0.003008,0.110963,-0.15028,-0.982397,-0.11119194082125941
1760171785.343479,0.075276,0.056141,0.004765,0.99557,0.003578,0.004149,0.001019,-0.000191,0.000812,0.001157,0.111067,-0.15042,-0.982363,-0.11129667775047236
1760171785.371394,0.075262,0.056163,0.004744,0.99557,-0.006154,0.002683,-0.003706,-0.000118,0.002546,0.000769,0.111114,-0.15039,-0.982363,-0.11134389121736323
1760171785.372565,0.075159,0.056195,0.004686,0.995576,-0.011939,0.002344,-0.009558,0.000583,0.001624,0.001466,0.111188,-0.15018,-0.982386,-0.111418435394502
1760171785.402692,0.075066,0.056232,0.004593,0.995581,-0.008049,0.005152,-0.008497,-0.000116,-0.001322,0.002445,0.111277,-0.149985,-0.982406,-0.11150795966040546
1760171785.432525,0.075014,0.056315,0.004515,0.995581,-0.003619,0.006284,-0.005923,0.00016,-0.000882,0.001339,0.111454,-0.149874,-0.982403,-0.11168605389557176
1760171785.433725,0.07498,0.056389,0.004452,0.99558,-0.00052,0.005356,-0.006875,-0.000695,0.001715,6.9e-05,0.111613,-0.149799,-0.982396,-0.11184609494718324
1760171785.463855,0.074955,0.056415,0.004383,0.99558,-0.000721,0.001795,-0.005976,0.000179,0.001695,0.000791,0.111674,-0.149743,-0.982398,-0.11190743513863423
1760171785.501977,0.074948,0.056429,0.004324,0.99558,-0.004231,0.003036,-0.005244,0.000502,0.001688,0.001057,0.111711,-0.149721,-0.982397,-0.11194468428857993
1760171785.538596,0.074879,0.056414,0.004263,0.995587,-0.006062,0.000118,-0.00312,-5.2e-05,0.000909,0.000705,0.111692,-0.149577,-0.982421,-0.11192557519171564
1760171785.538867,0.074809,0.0564,0.004203,0.995593,-0.007893,-0.0028,-0.000996,-0.000605,0.00013,0.000353,0.111673,-0.149434,-0.982445,-0.11190644690403646
1760171785.540378,0.074685,0.056337,0.004194,0.995606,-0.01312,-0.006313,-0.000308,-1.9e-05,0.000578,0.002322,0.111553,-0.149186,-0.982497,-0.11178561760568514
1760171785.57221,0.074527,0.056226,0.004203,0.995624,-0.020019,-0.007365,0.002511,-0.000611,0.000942,0.002686,0.111334,-0.148875,-0.982569,-0.11156524632303276
1760171785.573468,0.074266,0.056145,0.004235,0.995648,-0.02883,-0.008915,0.003636,-0.000882,0.000579,0.001484,0.111173,-0.14836,-0.982665,-0.11140325393868221
1760171785.638599,0.073958,0.056075,0.004298,0.995674,-0.030632,-0.008645,0.005498,-0.001492,-0.000259,0.001351,0.11103,-0.147758,-0.982772,-0.11125934843547428
1760171785.638922,0.07365,0.056005,0.00436,0.995701,-0.032433,-0.008375,0.007359,-0.002101,-0.001098,0.001218,0.110887,-0.147155,-0.982878,-0.11111552737308414
1760171785.639714,0.073363,0.055952,0.004437,0.995725,-0.027324,-0.004451,0.008776,-0.001997,-0.000322,0.00107,0.110775,-0.146595,-0.982974,-0.11100286675652317
1760171785.677209,0.07313,0.055881,0.00451,0.995745,-0.021186,-0.006461,0.004119,-0.001506,0.001059,0.001821,0.110627,-0.146141,-0.983059,-0.11085387109788512
1760171785.677532,0.072918,0.055781,0.004558,0.995766,-0.020475,-0.006631,0.003656,-0.00233,-0.000256,0.00092,0.110425,-0.145726,-0.983143,-0.11065066015418204
1760171785.705396,0.072727,0.055678,0.00461,0.995786,-0.023681,-0.011737,0.006154,-0.003255,0.000549,-0.00075,0.110216,-0.145354,-0.983222,-0.11044032407353276
1760171785.73592,0.072469,0.055532,0.004668,0.995813,-0.028662,-0.010825,0.005574,-0.003141,0.000954,0.001445,0.109922,-0.14485,-0.983329,-0.11014455802083353
1760171785.737125,0.072171,0.055415,0.004729,0.99584,-0.032437,-0.007305,0.00744,-0.00255,0.000782,0.00068,0.109686,-0.144267,-0.983441,-0.10990712810662653
1760171785.766291,0.071872,0.055336,0.004828,0.995866,-0.029012,-0.002629,0.009057,-0.003716,-0.000225,0.003061,0.109521,-0.143684,-0.983545,-0.10974109928051336
1760171785.770713,0.071615,0.055322,0.004932,0.995885,-0.020422,0.001379,0.008305,-0.003533,-0.000858,0.002328,0.109482,-0.143187,-0.983621,-0.1097019520968208
1760171785.79932,0.071452,0.055321,0.00502,0.995896,-0.014571,0.001701,0.007636,-0.00307,-0.000425,0.00152,0.10947,-0.142874,-0.983668,-0.10968986311512804
1760171785.842336,0.071306,0.055311,0.005129,0.995907,-0.016714,8.8e-05,0.00523,-0.002857,0.001485,0.000686,0.109438,-0.142595,-0.983712,-0.10965767442731614
1760171785.842662,0.071159,0.055302,0.005238,0.995917,-0.018857,-0.001526,0.002825,-0.002644,0.003396,-0.000149,0.109406,-0.142316,-0.983756,-0.10962547695729509
1760171785.871506,0.070942,0.055257,0.005281,0.995935,-0.026912,-0.003474,-0.001577,-0.002539,0.002479,0.001122,0.109316,-0.14189,-0.983828,-0.10953488385979629
1760171785.872682,0.070669,0.055239,0.005291,0.995955,-0.03105,0.000461,-0.003871,-0.001976,0.000849,0.001985,0.109283,-0.14135,-0.983909,-0.10950172765969485
1760171785.903615,0.070378,0.055257,0.005278,0.995975,-0.028608,0.003906,-0.004262,-0.002608,0.001109,0.003315,0.109326,-0.140772,-0.983987,-0.10954499623884166
1760171785.910673,0.070081,0.055286,0.005259,0.995994,-0.026265,0.003422,-0.006526,-0.001493,0.000597,0.001566,0.109392,-0.140182,-0.984064,-0.10961138280567832
1760171785.948459,0.069833,0.05532,0.005217,0.99601,-0.018245,0.006759,-0.009487,-0.000447,0.0012,0.002391,0.10947,-0.139685,-0.984126,-0.1096898538089217
1760171785.950526,0.069681,0.055348,0.005148,0.996019,-0.011645,-0.000191,-0.009612,-0.000861,0.000618,0.001284,0.109537,-0.139377,-0.984163,-0.10975717381835301
1760171785.979062,0.069575,0.055356,0.00506,0.996027,-0.007668,-0.00255,-0.00694,-0.000573,-0.00202,-0.001482,0.109568,-0.139158,-0.98419,-0.1097884200180683
1760171786.012107,0.069539,0.055218,0.005004,0.996037,0.004083,-0.021743,0.002196,-0.002348,-0.005493,-0.00084,0.109302,-0.139079,-0.984231,-0.10952078499116107
1760171786.012429,0.069536,0.05504,0.005011,0.996047,-0.004405,-0.010993,0.002717,0.000694,-0.000543,0.005093,0.108948,-0.139073,-0.984271,-0.10916466868833308
1760171786.040408,0.069454,0.054946,0.005018,0.996058,-0.009663,-0.004746,0.001106,-0.00084,-0.000493,0.003596,0.108763,-0.138912,-0.984314,-0.10897858375434222
1760171786.076287,0.069313,0.054939,0.005037,0.996068,-0.017845,0.004303,0.002361,-0.001648,-7.4e-05,0.00169,0.108749,-0.138635,-0.984355,-0.10896445701937826
1760171786.081718,0.069123,0.054937,0.005069,0.996082,-0.023473,-0.002982,-0.000411,-0.000881,0.00305,-0.00067,0.108743,-0.138261,-0.984408,-0.10895844964774878
1760171786.112124,0.068857,0.054908,0.005047,0.996102,-0.033731,-0.000284,-0.007281,0.000663,0.0054,0.000495,0.108693,-0.137731,-0.984488,-0.10890813161205982
1760171786.113535,0.068469,0.054907,0.004964,0.996129,-0.039984,-0.00402,-0.011427,-0.000169,0.003432,0.002159,0.10871,-0.136953,-0.984594,-0.10892530323765282
1760171786.138863,0.068088,0.054849,0.004852,0.996159,-0.037887,-0.005926,-0.010921,-0.001255,0.000458,0.001797,0.108616,-0.136185,-0.984711,-0.1088307318071601
1760171786.170479,0.067738,0.054786,0.004803,0.996186,-0.030824,-0.007526,-0.002268,-0.000684,-1.4e-05,0.002614,0.108504,-0.135486,-0.98482,-0.10871804062411548
1760171786.170849,0.067462,0.054756,0.004789,0.996207,-0.020876,0.000315,-0.000724,-0.000958,0.001381,0.003335,0.108451,-0.134937,-0.984901,-0.10866474856172498
1760171786.20131,0.067236,0.054779,0.004801,0.996221,-0.01844,0.002235,-0.000345,-0.000662,0.002951,0.003394,0.108498,-0.13449,-0.984957,-0.10871202347283011
1760171786.208147,0.067057,0.054834,0.004809,0.99623,-0.017123,0.005168,-0.00049,-0.001566,0.004123,-0.00076,0.10861,-0.134135,-0.984993,-0.10882469625367278
1760171786.242584,0.066891,0.054872,0.004789,0.996239,-0.01728,0.004593,-0.005767,-0.002116,0.005407,-0.001742,0.108691,-0.133805,-0.985029,-0.10890617307257937
1760171786.247487,0.066731,0.054911,0.004721,0.996248,-0.015988,0.008284,-0.010633,-0.001184,0.005489,0.003827,0.10878,-0.133479,-0.985063,-0.10899574752487334
1760171786.282582,0.066552,0.054969,0.004654,0.996257,-0.009303,0.001068,-0.009059,-0.002022,0.004601,-0.002854,0.108906,-0.133118,-0.985098,-0.10912249283588063
1760171786.287116,0.066447,0.054921,0.004591,0.996267,-0.002535,0.001204,-0.003041,-0.001512,0.00292,0.001634,0.108821,-0.132903,-0.985137,-0.10903692231069975
1760171786.318293,0.066332,0.054951,0.004585,0.996273,-0.010452,0.003823,-0.003706,-0.000858,0.006743,-0.000424,0.108883,-0.132673,-0.985161,-0.10909930921800338
1760171786.348095,0.066164,0.054975,0.004545,0.996283,-0.012909,0.001832,-0.003606,-0.001785,0.008359,-0.000742,0.10894,-0.132336,-0.9852,-0.10915665295193876
1760171786.348476,0.066002,0.054975,0.004526,0.996294,-0.008794,-0.001675,-0.001917,-0.002816,0.005528,-0.002191,0.108944,-0.132013,-0.985243,-0.10916066507387875
1760171786.376618,0.065918,0.054952,0.004475,0.996301,-0.00027,-0.00216,-0.004997,-0.002176,0.004061,0.00078,0.108906,-0.131841,-0.98527,-0.10912246267172476
1760171786.406739,0.065941,0.054941,0.004425,0.9963,0.011284,0.001017,-0.00054,-0.002139,0.004319,0.001928,0.108891,-0.131879,-0.985267,-0.1091073267667894
1760171786.40754,0.066019,0.054948,0.004407,0.996295,0.018953,0.004623,-0.001772,-0.002349,0.003118,0.003381,0.108907,-0.132032,-0.985245,-0.1091233944470579
1760171786.441474,0.066185,0.054941,0.004357,0.996284,0.022005,0.002284,0.001316,-0.001367,0.001454,0.001867,0.108898,-0.132357,-0.985202,-0.10911438239815682
1760171786.444932,0.066401,0.054942,0.004377,0.99627,0.023358,0.004489,0.001642,-7.7e-05,0.00032,0.001455,0.108894,-0.132788,-0.985144,-0.10911040632589596
1760171786.473899,0.066605,0.054997,0.00441,0.996253,0.024392,0.007552,0.001449,-0.000107,0.000624,0.000819,0.108994,-0.133195,-0.985078,-0.10921100463291226
1760171786.503855,0.066829,0.055047,0.004387,0.996235,0.022556,0.006224,-0.003975,0.000283,0.002016,0.000579,0.109094,-0.133637,-0.985007,-0.10931161155109857
1760171786.542179,0.067007,0.05509,0.004326,0.996221,0.020088,0.004007,-0.005307,0.000474,-0.000458,0.001938,0.109184,-0.133983,-0.98495,-0.10940215496335377
1760171786.542523,0.067184,0.055133,0.004265,0.996207,0.017621,0.001789,-0.006639,0.000665,-0.002932,0.003297,0.109275,-0.13433,-0.984893,-0.1094936641165744
1760171786.544165,0.067391,0.055112,0.004193,0.996195,0.019305,0.000896,-0.005971,0.001467,-0.003078,0.003387,0.10924,-0.134732,-0.984842,-0.1094584501130601
1760171786.57299,0.06756,0.055121,0.004147,0.996183,0.017634,0.002575,-0.003286,0.000995,-0.003302,0.00469,0.10926,-0.135062,-0.984795,-0.10947852498387178
1760171786.603936,0.067705,0.055126,0.004089,0.996173,0.013279,-0.00226,-0.005573,0.000826,-0.0046,-0.00339,0.109276,-0.135343,-0.984754,-0.10949469122848932
1760171786.619516,0.067851,0.055068,0.004012,0.996167,0.012801,-0.001674,-0.002398,0.001798,-0.005091,0.000686,0.109168,-0.135624,-0.984728,-0.10938596742414475
1760171786.649837,0.067988,0.055052,0.004041,0.996158,0.009274,-0.00401,0.004749,0.00047,-0.007534,-0.001413,0.109131,-0.135899,-0.984694,-0.10934876528033861
1760171786.650175,0.068104,0.055028,0.004113,0.996151,0.007731,-0.003427,0.011926,0.000984,-0.007003,-0.001242,0.109073,-0.136136,-0.984668,-0.1092903833507303
1760171786.677727,0.068194,0.054984,0.004267,0.996147,0.002131,-0.001335,0.017269,7.2e-05,-0.002171,0.002364,0.108962,-0.136331,-0.984653,-0.10917875132883978
1760171786.684617,0.068176,0.054982,0.00444,0.996147,-0.010846,-0.002589,0.007588,-0.001902,0.001022,0.00236,0.108934,-0.136316,-0.984658,-0.10915060252678681
1760171786.738726,0.068014,0.054945,0.004488,0.99616,-0.01674,-0.001607,0.002416,-0.001426,0.002457,0.002535,0.108858,-0.136,-0.98471,-0.10907415864574249
1760171786.739099,0.067853,0.054908,0.004536,0.996173,-0.022633,-0.000626,-0.002755,-0.00095,0.003892,0.002711,0.108781,-0.135684,-0.984762,-0.10899670946840626
1760171786.745338,0.067631,0.054937,0.004494,0.996187,-0.022591,0.001022,-0.007267,-0.00076,0.006055,0.001981,0.108848,-0.13524,-0.984816,-0.1090640742149583
1760171786.775464,0.067448,0.054931,0.004413,0.9962,-0.01478,-0.001457,-0.011327,-0.002704,0.00234,-0.000755,0.108849,-0.134868,-0.984867,-0.10906506971538174
1760171786.803898,0.067375,0.05491,0.004303,0.996206,0.002012,-0.001652,-0.006558,-0.000887,-2e-06,0.001312,0.108823,-0.134711,-0.984891,-0.10903895316985691
1760171786.805851,0.067451,0.054919,0.004284,0.996201,0.017878,0.004433,0.000334,-0.000321,-0.001416,0.0015,0.108842,-0.134861,-0.984869,-0.10905799899894501
1760171786.842313,0.067645,0.05495,0.004281,0.996186,0.029161,0.000216,0.004791,-0.002447,-0.00159,-8e-05,0.108901,-0.135244,-0.984809,-0.10911745494956586
1760171786.843368,0.067957,0.054893,0.004335,0.996168,0.031046,-0.001145,0.008936,-0.000832,-0.000336,0.001402,0.108775,-0.135868,-0.984737,-0.10899070523344404
1760171786.875432,0.068254,0.054851,0.004409,0.996149,0.025674,-0.003081,0.007567,-0.000162,0.000621,0.000731,0.108677,-0.136467,-0.984666,-0.10889201193543695
1760171786.905829,0.068468,0.054805,0.004444,0.996137,0.015507,-0.003746,0.006379,-0.001442,0.000239,0.00354,0.108577,-0.136894,-0.984617,-0.10879149837556518
1760171786.906109,0.06859,0.054747,0.004487,0.996132,0.006134,-0.002572,0.003621,-0.00161,-0.0005,0.001776,0.108455,-0.13714,-0.984596,-0.10866879647958287
1760171786.93404,0.068618,0.054715,0.004524,0.996131,-0.000833,-0.001887,0.001766,-0.002144,0.001363,0.002331,0.108387,-0.1372,-0.984596,-0.10860029971727365
1760171786.967504,0.068599,0.054705,0.004507,0.996133,-0.001274,0.002304,-0.002538,-0.002719,-0.000822,0.000544,0.108368,-0.137161,-0.984603,-0.10858124350877787
1760171786.968517,0.068601,0.05471,0.004455,0.996133,0.005069,0.000386,-0.00494,-0.002948,-0.0045,0.004057,0.108387,-0.137158,-0.984601,-0.10860039114113185
1760171786.999931,0.068803,0.054672,0.004433,0.996121,0.029982,-0.007027,0.006512,-0.006437,-0.005783,-0.000669,0.10831,-0.137558,-0.984554,-0.108522899690412
1760171787.002206,0.069127,0.054537,0.004471,0.996106,0.030271,-0.007368,0.004164,-0.002073,0.002787,0.006301,0.108032,-0.138203,-0.984494,-0.10824328164500416
1760171787.031437,0.069339,0.054496,0.004451,0.996094,0.014889,0.00186,-0.007776,-0.001923,0.004427,0.003609,0.107949,-0.138622,-0.984444,-0.10815981420391714
1760171787.062194,0.069478,0.054579,0.004358,0.99608,0.015392,0.006567,-0.006896,-0.000601,-0.000888,0.000856,0.108124,-0.138887,-0.984388,-0.10833578489436387
1760171787.064353,0.069641,0.05464,0.004248,0.996066,0.010863,0.008,-0.006264,-0.000323,0.000621,-0.000681,0.108258,-0.139197,-0.984329,-0.10847062798683124
1760171787.140885,0.069711,0.054688,0.004149,0.996058,0.003893,0.007138,-0.012146,0.000573,0.002372,0.001892,0.108367,-0.139327,-0.984299,-0.10858023158567011
1760171787.143058,0.069653,0.054687,0.004102,0.996063,-0.002506,0.002063,-0.006213,0.000272,0.001784,0.001028,0.108371,-0.139205,-0.984316,-0.10858423606868613
1760171787.143409,0.069594,0.054685,0.004056,0.996067,-0.008905,-0.003012,-0.000281,-2.9e-05,0.001196,0.000165,0.108376,-0.139084,-0.984332,-0.10858932515327695
1760171787.171445,0.069474,0.054632,0.00406,0.996078,-0.013166,-0.00811,0.003669,-0.000942,0.00028,0.000239,0.108272,-0.138847,-0.984377,-0.10848469912164486
1760171787.202187,0.069345,0.054563,0.00411,0.996091,-0.011896,-0.007283,0.007073,-0.000133,-0.000495,0.000811,0.10813,-0.138597,-0.984428,-0.10834184313076836
1760171787.204173,0.069269,0.054497,0.004187,0.9961,-0.006929,-0.004681,0.007259,-0.00024,0.000814,0.001443,0.10799,-0.138455,-0.984464,-0.10820094886905034
1760171787.232729,0.069242,0.054467,0.004262,0.996103,-0.000837,-0.002928,0.004614,-0.000682,0.002447,0.001405,0.107919,-0.138408,-0.984478,-0.10812957369811912
1760171787.263474,0.069263,0.054473,0.004274,0.996101,0.002187,0.004695,-0.002064,-0.00087,0.002129,0.002518,0.10793,-0.138452,-0.98447,-0.10814070321347888
1760171787.265502,0.069332,0.054511,0.004249,0.996094,0.009655,-0.00012,-0.005812,-0.001523,0.000288,-0.000383,0.108008,-0.138586,-0.984443,-0.1082191181391463
1760171787.293788,0.069465,0.054487,0.004198,0.996087,0.012472,0.001046,-0.005505,-0.000487,-0.000915,0.002369,0.107965,-0.138843,-0.984412,-0.10817581210750872
1760171787.300323,0.06954,0.054526,0.004138,0.996079,0.008282,0.00203,-0.005254,-0.000373,-0.001244,0.001926,0.108048,-0.138985,-0.984382,-0.10825939193170223
1760171787.330343,0.069575,0.054565,0.004101,0.996075,0.003142,0.004498,-0.000368,0.000138,-0.002771,0.001711,0.10813,-0.139051,-0.984364,-0.10834184043854841
1760171787.360108,0.069566,0.054587,0.004109,0.996074,-0.002299,0.003927,0.000318,-0.000414,-0.001478,0.000895,0.108174,-0.139035,-0.984362,-0.10838603854554173
1760171787.361312,0.069538,0.054605,0.004111,0.996075,-0.005159,0.000503,-0.000629,-0.000316,2.5e-05,0.001143,0.10821,-0.138979,-0.984366,-0.10842224587419759
1760171787.392605,0.069489,0.054616,0.0041,0.996078,-0.007827,-0.000791,-0.001634,-0.000752,0.000579,0.001342,0.108234,-0.13888,-0.984377,-0.10844642342933015
1760171787.398821,0.069406,0.05461,0.00409,0.996084,-0.010181,-0.000997,-0.001221,-0.001444,0.000679,0.00152,0.108224,-0.138715,-0.984401,-0.10843640337588549
1760171787.441142,0.069308,0.054574,0.004089,0.996093,-0.011756,0.000301,-0.001025,-0.001172,0.000925,0.002246,0.108155,-0.138521,-0.984436,-0.10836698533403487
1760171787.443139,0.069186,0.054597,0.004103,0.9961,-0.01113,0.003699,-0.000534,-0.001594,0.001245,0.003035,0.108201,-0.138281,-0.984465,-0.10841322324824665
1760171787.471588,0.06909,0.054649,0.004108,0.996104,-0.007505,0.008742,-0.000238,-0.000688,0.000983,0.002504,0.108305,-0.138091,-0.98448,-0.1085178630583901
1760171787.479236,0.069028,0.054747,0.00412,0.996103,-0.003132,0.008851,-0.001908,-0.000962,0.002199,0.000791,0.108498,-0.137969,-0.984476,-0.1087119914074744
1760171787.508278,0.069013,0.054804,0.00408,0.996101,-0.000613,0.005923,-0.005633,-0.001089,0.002762,-3e-06,0.108618,-0.137936,-0.984467,-0.10883274693908787
1760171787.536377,0.068996,0.054851,0.004013,0.9961,-0.000548,0.003419,-0.009403,-0.000363,0.002888,0.000656,0.10872,-0.137894,-0.984462,-0.10893531419949408
1760171787.538317,0.069003,0.054888,0.003906,0.996098,0.001535,0.000572,-0.009078,-0.000227,0.00169,0.00067,0.108808,-0.137896,-0.984452,-0.10902383908788778
1760171787.568757,0.068996,0.054903,0.003818,0.996098,0.002696,0.000927,-0.004454,0.000427,-0.000253,0.001421,0.108851,-0.137873,-0.98445,-0.10906714644437822
1760171787.617478,0.068969,0.05489,0.003827,0.9961,0.000316,-0.000398,-0.000118,-0.000185,-0.000576,0.001753,0.108825,-0.13782,-0.984461,-0.1090409151537025
1760171787.617814,0.068942,0.054878,0.003837,0.996103,-0.002065,-0.001723,0.004218,-0.000798,-0.0009,0.002085,0.108799,-0.137768,-0.984471,-0.109014776250601
1760171787.618452,0.068915,0.054859,0.003889,0.996105,-0.000479,0.000982,0.007921,-0.00158,-0.001215,0.002321,0.108755,-0.13772,-0.984482,-0.10897057582619764
1760171787.647721,0.068937,0.054864,0.003974,0.996103,0.002517,0.001341,0.007719,-0.001908,0.000269,0.002342,0.108752,-0.137773,-0.984475,-0.10896754884983528
1760171787.678552,0.068982,0.054882,0.004045,0.996099,0.004939,0.003493,0.004242,-0.001215,0.001618,0.001798,0.108777,-0.137871,-0.984459,-0.10899264616408096
1760171787.68053,0.069039,0.054909,0.00408,0.996093,0.004777,0.00241,-0.00171,-0.001664,0.00278,0.001645,0.108826,-0.137987,-0.984437,-0.10904197455955912
1760171787.741143,0.069108,0.05494,0.004005,0.996087,0.005584,0.00344,-0.004605,-0.001277,0.001443,0.001353,0.108897,-0.138115,-0.984411,-0.10911342044876779
1760171787.741547,0.069177,0.054971,0.00393,0.996081,0.006392,0.00447,-0.0075,-0.00089,0.000106,0.001061,0.108968,-0.138243,-0.984385,-0.10918486450235615
1760171787.742114,0.06922,0.05502,0.003839,0.996076,0.005816,0.005433,-0.00627,-0.000873,-0.001356,0.001794,0.109077,-0.13832,-0.984363,-0.10929442216892965
1760171787.772148,0.069252,0.055073,0.003772,0.996071,0.004157,0.006211,-0.006333,-0.000995,-0.001208,0.002889,0.109191,-0.138375,-0.984342,-0.10940917535180782
1760171787.776899,0.069277,0.055151,0.003704,0.996065,0.00109,0.007424,-0.004445,-0.000764,-0.001047,0.001716,0.109354,-0.138418,-0.984318,-0.10957314210398475
1760171787.80512,0.069275,0.055201,0.003655,0.996062,-0.001326,0.00424,-0.003279,4.5e-05,-0.001159,0.001513,0.109462,-0.138409,-0.984307,-0.10968182267668199
1760171787.838247,0.069247,0.055254,0.003622,0.996062,-0.005344,0.004398,-0.003203,-0.000322,-0.001025,0.001123,0.109571,-0.138349,-0.984304,-0.1097914071826302
1760171787.840284,0.069169,0.055287,0.003593,0.996065,-0.009412,0.00368,-0.004388,0.000823,-0.000536,0.002355,0.109641,-0.138192,-0.984318,-0.10986185966383498
1760171787.869149,0.069043,0.055342,0.003554,0.996071,-0.012836,0.005344,-0.003914,0.001373,-0.000729,0.002479,0.109759,-0.137936,-0.984341,-0.10998054966266599
1760171787.876764,0.068923,0.055376,0.003523,0.996078,-0.012945,0.004793,-0.005489,0.000761,-0.000666,0.00143,0.109832,-0.137696,-0.984366,-0.11005404360766383
1760171787.906925,0.068833,0.055416,0.003486,0.996082,-0.006546,0.000741,-0.004488,0.000515,-0.001487,-0.000607,0.109918,-0.137513,-0.984382,-0.11014056554051438
1760171787.937084,0.068797,0.055437,0.00344,0.996083,-0.00124,-6.6e-05,-0.001231,0.000469,-0.001383,-0.000251,0.109966,-0.137436,-0.984388,-0.11018879213823558
1760171787.937402,0.068824,0.055423,0.003413,0.996082,0.003766,-0.00204,-0.001059,0.000281,-0.0014,0.002404,0.109942,-0.137487,-0.984383,-0.11016470661049158
1760171787.965371,0.068874,0.055438,0.003406,0.996078,0.008172,-0.003802,0.003676,-0.002395,-0.002701,0.000225,0.109973,-0.137586,-0.984366,-0.11019586360099334
1760171787.995889,0.069021,0.055323,0.003462,0.996074,0.015117,-0.010615,0.009292,-0.001627,-0.000883,0.003932,0.109734,-0.137883,-0.984351,-0.10995542086117951
1760171787.997036,0.069145,0.055257,0.003563,0.996069,0.006711,-0.004927,0.006179,-0.001199,0.002943,0.004846,0.109587,-0.138141,-0.984331,-0.10980755098220697
1760171788.044913,0.069135,0.05525,0.003559,0.99607,-9.8e-05,-0.001757,-0.000292,-0.001262,0.00413,0.002197,0.109574,-0.13812,-0.984336,-0.10979440647572707
1760171788.045225,0.069125,0.055243,0.003555,0.996071,-0.006908,0.001412,-0.006763,-0.001325,0.005318,-0.000452,0.10956,-0.138099,-0.98434,-0.10978037645221723
1760171788.085021,0.068986,0.055211,0.003395,0.996083,-0.009383,-0.001911,-0.011752,-0.000442,0.003708,0.000435,0.109522,-0.137806,-0.984385,-0.10974217794266297
1760171788.085348,0.068847,0.05518,0.003235,0.996095,-0.011857,-0.005235,-0.016742,0.000442,0.002098,0.001321,0.109484,-0.137513,-0.98443,-0.10970396973396736
1760171788.114216,0.068702,0.055127,0.003087,0.996108,-0.00601,-0.007836,-0.011134,-0.001436,-0.000165,0.000382,0.109401,-0.137209,-0.984482,-0.1096204295601601
1760171788.115883,0.068636,0.055031,0.003016,0.996118,0.00186,-0.00968,-0.000314,-0.001246,-0.002532,0.002524,0.109221,-0.137072,-0.984521,-0.10943935194258185
1760171788.150475,0.068681,0.05493,0.003057,0.996121,0.010857,-0.009319,0.010683,-0.001572,-0.002684,0.002515,0.109013,-0.137166,-0.984531,-0.10923009826953932
1760171788.154087,0.068822,0.05485,0.003191,0.996115,0.01852,-0.009585,0.016024,-0.000527,-0.001448,0.000534,0.108835,-0.137459,-0.98451,-0.10905101429084058
1760171788.184015,0.069058,0.054766,0.003333,0.996103,0.023656,-0.006227,0.014942,-0.000768,-0.000737,0.000299,0.108644,-0.137943,-0.984463,-0.10885891788786554
1760171788.214557,0.069317,0.054698,0.003454,0.996088,0.02313,-0.003953,0.009614,-0.001133,0.000352,0.00021,0.10849,-0.13847,-0.984406,-0.10870400183910299
1760171788.214884,0.069545,0.054673,0.003476,0.996073,0.01612,0.001042,-0.001215,-0.001736,0.002429,0.004557,0.108434,-0.138923,-0.984349,-0.10864759901145543
1760171788.2427,0.069671,0.05474,0.003434,0.996061,0.008121,0.006626,-0.006387,-0.002744,-0.000265,0.002505,0.108571,-0.139169,-0.984299,-0.10878542855520064
1760171788.284765,0.069676,0.054765,0.003354,0.99606,-0.000146,0.007446,-0.008185,-0.002055,-0.000856,0.002712,0.108631,-0.139171,-0.984292,-0.10884579598992368
1760171788.285071,0.069682,0.05479,0.003274,0.996058,-0.008412,0.008267,-0.009983,-0.001367,-0.001447,0.002918,0.108691,-0.139173,-0.984285,-0.10890616343501905
1760171788.341308,0.069549,0.05485,0.003192,0.996064,-0.01102,0.007055,-0.00801,-0.001079,-0.002387,0.002164,0.108824,-0.138901,-0.984309,-0.10903992753222304
1760171788.341737,0.069417,0.05491,0.00311,0.996071,-0.013628,0.005842,-0.006036,-0.000792,-0.003328,0.001409,0.108957,-0.13863,-0.984332,-0.10917377610182946
1760171788.342256,0.06931,0.05495,0.003076,0.996076,-0.008176,0.003777,-0.002616,-0.001106,-0.002864,0.000259,0.109042,-0.138414,-0.984353,-0.10925928392132245
1760171788.372861,0.069258,0.054958,0.003051,0.996079,-0.006433,0.000141,-0.000315,-0.001129,-0.000312,0.001077,0.109062,-0.138308,-0.984366,-0.109279369750995
1760171788.373714,0.069211,0.054944,0.003051,0.996083,-0.004625,-0.000746,0.000296,-0.002539,0.000597,0.001125,0.109035,-0.138214,-0.984382,-0.10925222870441895
1760171788.403882,0.069195,0.054913,0.003062,0.996086,-0.003992,-0.001057,0.00051,-0.0017,0.001359,0.001831,0.108972,-0.138185,-0.984393,-0.109188856173654
1760171788.41115,0.069187,0.054924,0.00309,0.996086,-0.002092,0.002266,0.001074,-0.001258,0.000718,0.001178,0.10899,-0.138172,-0.984393,-0.1092069459028673
1760171788.440092,0.069181,0.054976,0.003112,0.996083,0.000401,0.005947,0.00086,-0.000905,0.001042,0.003205,0.10909,-0.138162,-0.984383,-0.1093075810368757
1760171788.470816,0.069205,0.055059,0.003124,0.996077,0.002338,0.006603,-0.002136,-6.3e-05,0.00188,0.001429,0.109253,-0.13821,-0.984358,-0.10947158115519628
1760171788.471953,0.069227,0.055124,0.003095,0.996072,0.00335,0.008889,-0.005171,0.000221,0.002163,0.000829,0.109387,-0.138252,-0.984338,-0.10960630471278264
1760171788.513366,0.069249,0.05521,0.00304,0.996066,0.003355,0.005643,-0.007811,-0.000156,0.002099,0.001645,0.109565,-0.138289,-0.984313,-0.10978538161871898
1760171788.515364,0.069258,0.055274,0.00294,0.996062,0.002278,0.003227,-0.009395,-5.1e-05,0.000686,0.000538,0.109706,-0.138296,-0.984296,-0.10992727054308316
1760171788.544012,0.069264,0.055304,0.002836,0.99606,0.002208,0.002526,-0.008071,0.001039,-0.000412,0.00099,0.10978,-0.138297,-0.984288,-0.11000167771080895
1760171788.551487,0.069281,0.055352,0.002768,0.996057,0.003193,0.001639,-0.003008,0.00085,-0.001445,0.000779,0.109884,-0.138323,-0.984272,-0.11010639138488222
1760171788.582015,0.069318,0.055358,0.002748,0.996054,0.005487,0.001015,0.001202,-8.4e-05,-0.003559,0.000456,0.109898,-0.138394,-0.984261,-0.11012041754348559
1760171788.641376,0.069354,0.055321,0.00284,0.996053,0.003849,0.000701,0.004111,-0.000265,-0.002594,0.000765,0.109811,-0.138474,-0.984259,-0.11003293763524043
1760171788.641697,0.069389,0.055284,0.002931,0.996052,0.00221,0.000387,0.007021,-0.000445,-0.001629,0.001074,0.109724,-0.138555,-0.984258,-0.10994533300315959
1760171788.642005,0.069425,0.055247,0.003022,0.996052,0.000571,7.3e-05,0.009931,-0.000625,-0.000664,0.001382,0.109637,-0.138635,-0.984256,-0.10985785163676486
1760171788.670614,0.069464,0.055216,0.003126,0.99605,-0.002242,0.000226,0.006297,-0.000681,-0.000367,0.001478,0.109562,-0.138725,-0.984252,-0.10978236134086311
1760171788.672157,0.069459,0.055224,0.003169,0.99605,-0.001577,0.001807,-1.9e-05,-0.001163,0.001606,0.002464,0.109571,-0.138719,-0.984252,-0.1097913989013652
1760171788.701588,0.069443,0.055251,0.00312,0.99605,-0.001966,0.002092,-0.00576,-0.001257,-0.000343,0.002388,0.109633,-0.138682,-0.98425,-0.10985380830823696
1760171788.73263,0.069392,0.055267,0.003051,0.996053,-0.005126,0.002192,-0.007992,-0.001243,0.000123,0.000328,0.109675,-0.138574,-0.98426,-0.10989612090619036
1760171788.733654,0.069316,0.055273,0.002964,0.996058,-0.007059,0.001884,-0.006489,-0.000942,0.000357,0.00166,0.109699,-0.138414,-0.98428,-0.10992024907662933
1760171788.765175,0.069245,0.055306,0.00291,0.996061,-0.006639,0.0042,-0.004324,-0.000119,0.000151,0.001448,0.109773,-0.138266,-0.984293,-0.10999464991662354
1760171788.769739,0.069173,0.055342,0.002904,0.996064,-0.003512,0.002725,0.000965,-0.000458,-0.000623,0.001009,0.109847,-0.138124,-0.984305,-0.11006906545160264
1760171788.797935,0.06915,0.055376,0.002929,0.996064,-0.001772,0.003644,0.001256,-0.00087,0.000104,0.000886,0.109912,-0.13808,-0.984303,-0.11013456124641809
1760171788.828792,0.069126,0.055403,0.002947,0.996064,-0.000486,0.001,0.000345,-0.000321,0.000528,0.000738,0.109963,-0.138034,-0.984304,-0.11018584568384594
1760171788.84287,0.069119,0.05541,0.002953,0.996064,0.001202,0.000716,-0.000134,-0.00017,0.000646,0.000698,0.109977,-0.138021,-0.984305,-0.11019985039526956
1760171788.87131,0.06915,0.055431,0.002944,0.996061,0.004678,-0.000487,-0.002722,0.000192,-0.000283,0.000685,0.110019,-0.138081,-0.984291,-0.1102422038900682
1760171788.873284,0.069209,0.055439,0.00292,0.996056,0.006622,0.001672,-0.001634,0.000373,-0.00104,0.000179,0.110036,-0.138197,-0.984273,-0.11025928808880048
1760171788.903047,0.069281,0.055388,0.002877,0.996054,0.003517,-0.006513,-0.003463,0.000491,-0.000679,0.001561,0.109941,-0.138334,-0.984265,-0.11016363967297076
1760171788.909748,0.069299,0.055375,0.002865,0.996054,0.003223,-0.003057,0.000913,-0.000501,-0.003093,0.000119,0.109917,-0.138369,-0.984262,-0.11013957614960407
1760171788.952318,0.06941,0.055281,0.002894,0.996051,0.012609,-0.013197,0.008467,-0.001655,-0.004017,0.003045,0.109724,-0.138592,-0.984252,-0.10994541892128235
1760171788.953652,0.069539,0.055216,0.002988,0.996045,0.00389,-0.001916,0.009279,-0.001211,0.001474,0.005492,0.109581,-0.138858,-0.984231,-0.10980149053513044
1760171788.98353,0.069534,0.055206,0.003049,0.996046,-0.007935,0.000984,-0.00069,-0.001459,0.004377,0.002372,0.109551,-0.138855,-0.984235,-0.1097712831078263
1760171788.985904,0.069395,0.05522,0.003027,0.996055,-0.016621,0.001982,-0.008639,-0.00062,0.006496,0.000336,0.109585,-0.138578,-0.98427,-0.10980551663753185
1760171789.0153,0.069227,0.055251,0.002904,0.996066,-0.015531,-0.001166,-0.01729,-0.000275,0.003711,-0.001081,0.109665,-0.138231,-0.98431,-0.10988598899862148
1760171789.045022,0.06911,0.055231,0.002717,0.996075,-0.009882,-0.003472,-0.019005,0.000553,0.001621,0.000156,0.109653,-0.137977,-0.984347,-0.10987391334359707
1760171789.046215,0.069002,0.055195,0.002557,0.996085,6e-05,-0.005645,-0.009822,-0.00079,-0.001067,0.00133,0.109604,-0.137747,-0.984384,-0.10982468883817435
1760171789.07649,0.069002,0.055111,0.002493,0.99609,0.002705,-0.007157,0.002055,-0.001304,-0.002882,0.002777,0.109448,-0.137739,-0.984403,-0.10966768782316973
1760171789.106475,0.069019,0.055033,0.002561,0.996093,0.005646,-0.011275,0.011101,-0.001715,-0.001105,0.000848,0.109283,-0.13778,-0.984416,-0.10950164813493193
1760171789.107552,0.069071,0.054966,0.002732,0.996093,0.006983,-0.005083,0.021425,-0.000455,0.000307,0.000718,0.109125,-0.137902,-0.984416,-0.10934274562890019
1760171789.140034,0.069183,0.054929,0.00293,0.996086,0.011129,-0.003612,0.017505,-0.000697,0.001592,-0.000387,0.109023,-0.138146,-0.984393,-0.10924014317194689
1760171789.145085,0.069349,0.054898,0.003052,0.996076,0.010912,-0.000177,0.006674,-0.000125,0.003804,0.001971,0.108942,-0.138488,-0.984354,-0.10915864836028558
1760171789.174768,0.069438,0.054894,0.003053,0.99607,0.008827,0.00219,-0.004277,-0.000678,0.005777,0.006401,0.108932,-0.138666,-0.98433,-0.10914859362738558
1760171789.203867,0.069513,0.054932,0.002974,0.996063,0.010768,-6.1e-05,-0.007829,-0.00234,0.00039,0.001625,0.109018,-0.138806,-0.984301,-0.10923508148077968
1760171789.205141,0.069643,0.054949,0.002867,0.996053,0.012968,0.000101,-0.00657,0.000862,-0.002439,0.003065,0.109065,-0.139051,-0.984261,-0.10928238631208609
1760171789.268815,0.069688,0.054972,0.002811,0.996049,0.007377,0.002741,-0.002538,0.000654,-0.003245,0.001758,0.109119,-0.139135,-0.984243,-0.10933672609693817
1760171789.269165,0.069733,0.054996,0.002755,0.996045,0.001786,0.00538,0.001495,0.000445,-0.00405,0.000451,0.109173,-0.139218,-0.984225,-0.10939108038084809
1760171789.270399,0.069739,0.055027,0.002774,0.996043,-4.7e-05,0.003235,0.002505,0.001763,-0.001366,-0.001288,0.109232,-0.139231,-0.984217,-0.10945039371555271
1760171789.302375,0.069757,0.055041,0.002794,0.99604,0.000523,-0.000447,0.001565,-0.000173,-0.001004,0.000459,0.109257,-0.13927,-0.984209,-0.1094755125686286
1760171789.303999,0.069799,0.055032,0.0028,0.996038,0.000467,-0.002357,-0.001987,-0.000252,-0.001453,0.001334,0.109237,-0.139353,-0.984199,-0.10945544315131282
1760171789.336912,0.069849,0.054959,0.002787,0.996039,0.001692,-0.003496,0.003064,0.000541,-0.003081,0.003186,0.109092,-0.139451,-0.984201,-0.10930959319760071
1760171789.371278,0.069895,0.054896,0.002846,0.996039,0.00126,-0.005125,0.0076,-0.000631,-0.002573,0.00249,0.108959,-0.139549,-0.984202,-0.10917577860441474
1760171789.372518,0.069899,0.054874,0.002944,0.996039,-0.002014,-0.000336,0.009761,-0.000326,-0.00171,0.001671,0.108903,-0.139567,-0.984206,-0.10911940515433109
1760171789.402894,0.069874,0.05488,0.003064,0.99604,-0.005725,0.003065,0.006911,0.000224,-0.000788,0.000833,0.108897,-0.139531,-0.984212,-0.10911334427100268
1760171789.403608,0.069808,0.054907,0.003138,0.996043,-0.00536,0.000184,0.005305,-0.001215,0.001326,0.000839,0.108941,-0.139408,-0.984224,-0.1091576680562082
1760171789.436294,0.069759,0.054888,0.003161,0.996048,-0.006576,0.000585,-0.000773,-0.000467,0.001961,0.001875,0.108902,-0.139315,-0.984242,-0.1091183790102396
1760171789.466794,0.069697,0.054895,0.003099,0.996052,-0.00803,0.001479,-0.007523,1.8e-05,0.000923,0.002022,0.108925,-0.139183,-0.984258,-0.10914153065358266
1760171789.467431,0.06961,0.054926,0.003039,0.996057,-0.004334,0.002898,-0.004272,0.000464,-0.000357,0.002041,0.108995,-0.139004,-0.984275,-0.10921200889852628
1760171789.507119,0.069558,0.054942,0.003028,0.996059,-0.005436,0.002555,-0.003566,-0.000223,0.000496,-0.000334,0.10903,-0.1389,-0.984286,-0.109247197742206
1760171789.544689,0.069471,0.054938,0.002988,0.996066,-0.005353,-0.000149,-0.002096,-2e-05,0.000295,0.000462,0.109029,-0.138724,-0.984311,-0.10924618433890575
1760171789.545024,0.069385,0.054934,0.002947,0.996072,-0.00527,-0.002852,-0.000626,0.000183,9.5e-05,0.001258,0.109028,-0.138548,-0.984336,-0.10924516746968962
