timestamp,quat_x,quat_y,quat_z,quat_w,rot_x,rot_y,rot_z,acc_x,acc_y,acc_z,grav_x,grav_y,grav_z
1763249746.332333,-0.100239,-0.178841,0.000000,0.978758,-0.023878,-0.028321,-0.044372,0.408557,-0.005044,-0.070269,-0.350085,0.196220,-0.915936
1763249746.362352,-0.097080,0.015243,0.079954,0.991943,-0.031116,-0.037730,-0.050428,0.012258,-0.000070,-0.001586,0.045765,0.190158,-0.980686
1763249746.418564,-0.098267,0.019277,0.081243,0.991651,-0.031624,-0.020906,-0.044582,0.003753,-0.000028,-0.000470,0.054200,0.191761,-0.979944
1763249746.448645,-0.097966,0.020830,0.081204,0.991652,-0.022570,-0.010383,-0.031131,0.000778,0.000053,0.001070,0.057222,0.190913,-0.979938
1763249746.505525,-0.097984,0.021047,0.080947,0.991667,-0.015670,-0.007202,-0.021865,-0.001012,0.001838,0.000084,0.057607,0.190928,-0.979912
1763249746.578607,-0.098057,0.021019,0.080788,0.991674,-0.006867,-0.005843,-0.012051,-0.001876,0.001853,-0.000938,0.057531,0.191084,-0.979886
1763249746.578932,-0.098129,0.020991,0.080629,0.991680,0.001936,-0.004484,-0.002238,-0.002740,0.001867,-0.001960,0.057456,0.191240,-0.979860
1763249746.608567,-0.098166,0.020801,0.080603,0.991682,0.001846,-0.000207,-0.000620,-0.001716,0.003542,-0.001455,0.057080,0.191346,-0.979862
1763249746.668395,-0.098149,0.020713,0.080530,0.991692,0.005892,-0.003533,-0.005837,-0.000948,0.001365,-0.002208,0.056890,0.191331,-0.979875
1763249746.699904,-0.098084,0.020637,0.080376,0.991712,0.014440,0.008987,-0.008105,0.001116,-0.000572,0.001496,0.056699,0.191225,-0.979907
1763249746.731693,-0.098067,0.020687,0.080126,0.991733,0.001872,0.000357,-0.011402,-0.001379,-0.000656,-0.000520,0.056748,0.191197,-0.979910
1763249746.787360,-0.098078,0.020744,0.079953,0.991745,-0.005675,0.005023,-0.010533,0.000002,-0.000077,-0.000300,0.056829,0.191221,-0.979901
1763249746.867234,-0.098219,0.020736,0.079955,0.991731,-0.004040,0.002407,-0.001704,0.000166,-0.000542,-0.000188,0.056836,0.191499,-0.979846
1763249746.867449,-0.098360,0.020729,0.079957,0.991717,-0.002405,-0.000210,0.007125,0.000330,-0.001007,-0.000075,0.056843,0.191776,-0.979791
1763249746.896983,-0.098334,0.020712,0.080135,0.991706,0.001557,-0.008660,0.007116,-0.000856,-0.000604,-0.001855,0.056840,0.191718,-0.979803
1763249746.925511,-0.098180,0.020692,0.080334,0.991705,-0.001815,0.006277,0.003189,-0.000378,0.000495,-0.000802,0.056815,0.191406,-0.979865
1763249746.979930,-0.098245,0.020765,0.080250,0.991704,-0.006192,0.003118,-0.004815,-0.000341,0.000580,-0.000720,0.056953,0.191528,-0.979833
1763249747.009848,-0.098424,0.020864,0.080044,0.991701,-0.007820,0.006679,-0.008163,0.000202,-0.000402,0.000426,0.057138,0.191875,-0.979755
1763249747.064876,-0.098586,0.020858,0.079932,0.991694,-0.008120,0.005325,-0.005025,0.000172,0.001249,-0.000363,0.057130,0.192199,-0.979692
1763249747.094880,-0.098781,0.021005,0.079876,0.991676,-0.007464,0.003904,-0.000601,-0.000195,0.000783,-0.000599,0.057441,0.192562,-0.979602
1763249747.168339,-0.099026,0.021098,0.079827,0.991653,-0.008913,0.001162,-0.002734,-0.000602,0.001593,-0.000947,0.057653,0.193030,-0.979498
1763249747.168493,-0.099270,0.021191,0.079778,0.991631,-0.010362,-0.001580,-0.004867,-0.001009,0.002403,-0.001296,0.057866,0.193498,-0.979393
1763249747.222455,-0.099379,0.021201,0.079742,0.991623,-0.004038,0.000257,-0.002585,-0.000352,0.000839,-0.000452,0.057896,0.193712,-0.979349
1763249747.252362,-0.099462,0.021193,0.079694,0.991618,-0.000897,0.000057,-0.000574,0.000205,0.001979,0.000311,0.057885,0.193878,-0.979316
1763249747.311155,-0.099474,0.021172,0.079651,0.991621,0.000547,-0.000490,-0.002756,-0.000410,0.002344,0.000136,0.057836,0.193909,-0.979313
1763249747.341018,-0.099469,0.021127,0.079537,0.991632,0.000662,-0.004837,-0.007276,-0.000934,0.002941,-0.000405,0.057724,0.193912,-0.979319
1763249747.371106,-0.099546,0.020948,0.079278,0.991649,-0.002330,-0.011068,-0.016205,-0.000356,0.000543,-0.001169,0.057329,0.194107,-0.979304
1763249747.470155,-0.099526,0.020856,0.079049,0.991671,-0.003194,-0.008110,-0.013533,-0.000581,0.001027,-0.001489,0.057099,0.194097,-0.979319
1763249747.470388,-0.099506,0.020764,0.078820,0.991693,-0.004059,-0.005153,-0.010861,-0.000806,0.001512,-0.001810,0.056869,0.194086,-0.979335
1763249747.501100,-0.099524,0.020784,0.078614,0.991707,-0.002724,0.003629,-0.009280,0.000476,0.000755,0.000195,0.056871,0.194130,-0.979326
1763249747.531131,-0.099577,0.020889,0.078352,0.991720,0.001696,0.001492,-0.006726,-0.000618,-0.001243,-0.002011,0.057036,0.194232,-0.979296
1763249747.586096,-0.099441,0.020920,0.078245,0.991742,0.014420,-0.002870,-0.003682,0.000320,-0.003863,-0.004128,0.057056,0.193965,-0.979348
1763249747.616369,-0.098938,0.020971,0.078294,0.991787,0.020325,-0.001670,0.004609,-0.000243,-0.003283,-0.003005,0.057091,0.192968,-0.979543
1763249747.671203,-0.098632,0.021085,0.078384,0.991808,0.014263,0.009417,0.005412,0.000697,-0.003221,-0.000129,0.057287,0.192343,-0.979654
1763249747.701109,-0.098477,0.021369,0.078390,0.991817,-0.003052,0.013123,-0.000266,0.000841,-0.000878,-0.000147,0.057827,0.191993,-0.979691
1763249747.741707,-0.098627,0.021663,0.078274,0.991805,-0.010838,0.013685,-0.007333,0.001491,0.000102,-0.000255,0.058411,0.192246,-0.979607
1763249747.778045,-0.098814,0.021912,0.078099,0.991794,-0.009149,-0.002946,-0.007797,-0.000364,0.000275,-0.004369,0.058899,0.192585,-0.979511
1763249747.809802,-0.099057,0.021909,0.077961,0.991781,-0.009332,-0.001907,0.000963,0.000960,-0.001390,-0.002599,0.058903,0.193070,-0.979415
1763249747.866139,-0.099081,0.021888,0.078091,0.991769,-0.003357,-0.005128,0.008274,0.000371,-0.000538,-0.001005,0.058891,0.193113,-0.979408
1763249747.896005,-0.099140,0.021815,0.078323,0.991746,-0.009108,-0.007311,0.004837,0.000600,0.001074,0.000602,0.058799,0.193226,-0.979391
1763249747.951499,-0.099256,0.021668,0.078344,0.991736,-0.012081,-0.010008,-0.003491,0.000465,0.001775,0.000560,0.058530,0.193476,-0.979357
1763249747.981127,-0.099574,0.021389,0.078220,0.991720,-0.017220,-0.012579,-0.007054,0.000156,0.000596,0.000188,0.058001,0.194153,-0.979255
1763249748.039706,-0.099884,0.021151,0.078206,0.991695,-0.018961,-0.011176,-0.000203,-0.000223,-0.000176,0.000517,0.057574,0.194800,-0.979152
1763249748.069935,-0.100259,0.020877,0.078362,0.991651,-0.017516,-0.012112,0.007427,-0.000281,0.000286,-0.000177,0.057119,0.195572,-0.979024
1763249748.099503,-0.100522,0.020643,0.078640,0.991607,-0.006700,-0.010189,0.008567,-0.001189,0.002203,-0.002371,0.056750,0.196109,-0.978939
1763249748.154549,-0.100511,0.020471,0.078704,0.991607,0.000798,-0.015986,-0.002161,-0.001657,0.003401,-0.002930,0.056419,0.196113,-0.978957
1763249748.185180,-0.100270,0.020292,0.078601,0.991643,0.014119,-0.005956,-0.010764,-0.000840,0.002573,0.000162,0.056008,0.195675,-0.979068
1763249748.222876,-0.100021,0.020012,0.078180,0.991707,0.008590,-0.019672,-0.025148,-0.001070,0.003004,-0.000379,0.055332,0.195255,-0.979191
1763249748.252648,-0.099926,0.019272,0.077397,0.991793,0.006044,-0.025060,-0.028564,-0.000132,0.001614,0.002394,0.053696,0.195228,-0.979287
1763249748.347027,-0.099722,0.018712,0.076780,0.991872,0.010174,-0.022575,-0.026927,-0.001061,0.002233,0.001027,0.052434,0.194949,-0.979411
1763249748.347119,-0.099517,0.018152,0.076162,0.991951,0.014304,-0.020090,-0.025289,-0.001990,0.002854,-0.000342,0.051172,0.194668,-0.979534
1763249748.377180,-0.099281,0.017665,0.075644,0.992023,0.015918,-0.021990,-0.022704,-0.000523,0.000889,-0.000640,0.050067,0.194305,-0.979663
1763249748.456058,-0.098975,0.017538,0.075496,0.992067,0.015120,-0.012932,-0.009825,-0.000279,0.000474,-0.000342,0.049742,0.193731,-0.979793
1763249748.456309,-0.098668,0.017411,0.075349,0.992111,0.014322,-0.003873,0.003055,-0.000036,0.000061,-0.000044,0.049416,0.193156,-0.979923
1763249748.511059,-0.098504,0.017432,0.075441,0.992120,0.005196,0.004377,0.008153,-0.000518,-0.000796,0.000721,0.049453,0.192825,-0.979986
1763249748.540519,-0.098514,0.017522,0.075695,0.992098,-0.001404,0.002391,0.013432,0.000028,-0.000704,-0.000492,0.049681,0.192819,-0.979976
1763249748.599815,-0.098665,0.017534,0.075980,0.992061,-0.009115,-0.001399,0.009348,0.000102,-0.000691,-0.000656,0.049783,0.193099,-0.979915
1763249748.641950,-0.098971,0.017452,0.076124,0.992021,-0.016975,-0.005432,0.004006,0.000307,-0.001870,-0.001848,0.049694,0.193705,-0.979800
1763249748.671614,-0.099346,0.017318,0.076264,0.991975,-0.019493,-0.005236,0.007000,0.000337,-0.002038,-0.002018,0.049510,0.194457,-0.979661
1763249748.701644,-0.099676,0.017137,0.076457,0.991930,-0.015726,-0.011249,0.009481,0.000051,-0.000307,-0.000304,0.049240,0.195122,-0.979542
1763249748.754893,-0.099889,0.016941,0.076732,0.991891,-0.006981,-0.013121,0.014560,-0.001119,-0.000421,-0.002221,0.048937,0.195558,-0.979470
1763249748.784834,-0.099768,0.016640,0.077155,0.991875,0.010230,-0.020382,0.022674,-0.000353,-0.000124,-0.001499,0.048405,0.195348,-0.979539
1763249748.839761,-0.099243,0.016254,0.077959,0.991872,0.028930,-0.025985,0.047517,0.000743,0.002688,-0.000500,0.047718,0.194339,-0.979773
1763249748.870506,-0.098638,0.015951,0.078990,0.991855,0.027149,-0.018764,0.049515,0.000392,-0.000073,0.000486,0.047225,0.193149,-0.980032
1763249748.901028,-0.098224,0.015517,0.079831,0.991836,0.013812,-0.024321,0.031259,-0.000028,0.000560,0.000649,0.046462,0.192367,-0.980223
1763249748.944247,-0.098021,0.015079,0.080313,0.991824,0.000160,-0.026628,0.009171,0.001086,0.004677,0.000295,0.045656,0.192018,-0.980329
1763249749.002490,-0.098113,0.014362,0.080259,0.991830,-0.012673,-0.038887,-0.018931,0.001465,0.004249,-0.000891,0.044238,0.192317,-0.980335
1763249749.031856,-0.098308,0.013400,0.079895,0.991853,-0.006928,-0.046724,-0.028247,0.000263,0.000763,-0.000160,0.042291,0.192874,-0.980312
1763249749.074816,-0.098372,0.012258,0.079339,0.991906,-0.003014,-0.059050,-0.034382,-0.000123,0.000084,-0.001142,0.039927,0.193206,-0.980345
1763249749.117377,-0.098343,0.010706,0.078689,0.991979,-0.004767,-0.088166,-0.042885,-0.001493,0.001309,-0.006310,0.036718,0.193424,-0.980428
1763249749.149136,-0.098082,0.008785,0.078249,0.992058,0.016327,-0.082914,-0.026755,-0.000426,-0.005105,-0.002608,0.032780,0.193231,-0.980606
1763249749.194346,-0.097580,0.007329,0.078084,0.992133,0.015239,-0.049575,-0.009868,0.001437,-0.002244,0.001019,0.029781,0.192480,-0.980849
1763249749.239856,-0.097238,0.006575,0.078166,0.992165,0.007240,-0.021217,0.010341,-0.000883,-0.003173,0.002764,0.028249,0.191925,-0.981003
1763249749.269188,-0.097306,0.006502,0.078592,0.992125,-0.013283,0.024579,0.030870,0.001392,-0.000118,0.005882,0.028196,0.192058,-0.980978
1763249749.302293,-0.098008,0.007671,0.079235,0.991997,-0.045768,0.075997,0.038289,-0.002784,0.000099,0.002801,0.030751,0.193232,-0.980671
1763249749.360614,-0.099235,0.008853,0.079637,0.991833,-0.046382,0.063491,0.040046,-0.003912,-0.006824,0.001447,0.033368,0.195439,-0.980148
1763249749.391013,-0.100262,0.010083,0.080496,0.991648,-0.038191,0.041909,0.052157,-0.011062,-0.002584,-0.009037,0.036138,0.197227,-0.979692
1763249749.422190,-0.100524,0.011038,0.081587,0.991522,0.006328,0.043577,0.059896,-0.007464,-0.000542,-0.002843,0.038292,0.197542,-0.979546
1763249749.477448,-0.100578,0.011818,0.082402,0.991440,-0.018807,0.041427,0.023534,-0.005949,0.008066,0.004515,0.040010,0.197487,-0.979489
1763249749.542698,-0.101307,0.012752,0.082356,0.991358,-0.030735,0.044587,0.000699,-0.004442,0.009580,0.003382,0.041970,0.198763,-0.979149
1763249749.542906,-0.102036,0.013685,0.082310,0.991275,-0.042663,0.047746,-0.022136,-0.002934,0.011094,0.002243,0.043929,0.200038,-0.978803
1763249749.597403,-0.102824,0.014525,0.081847,0.991220,-0.022943,0.052587,-0.019172,0.000374,0.005160,0.002379,0.045627,0.201465,-0.978433
1763249749.625644,-0.103132,0.015204,0.081408,0.991214,0.010643,0.037773,-0.010381,0.001717,-0.002137,-0.001128,0.046932,0.201976,-0.978265
1763249749.681167,-0.102559,0.015933,0.081232,0.991276,0.044142,0.018451,-0.000812,-0.000334,-0.007951,-0.009903,0.048250,0.200740,-0.978456
1763249749.726188,-0.101892,0.016378,0.081187,0.991342,0.017664,0.011211,-0.001607,-0.000239,-0.001973,-0.003427,0.049017,0.199360,-0.978700
1763249749.755992,-0.102148,0.016522,0.080865,0.991339,-0.042341,-0.011691,-0.025258,-0.000719,0.001496,-0.000836,0.049278,0.199854,-0.978586
1763249749.785897,-0.103410,0.016264,0.080102,0.991275,-0.076410,-0.004033,-0.045534,0.004149,0.004544,0.005760,0.048812,0.202410,-0.978084
1763249749.842633,-0.105038,0.015919,0.079242,0.991178,-0.086688,-0.012597,-0.036112,0.001855,0.001961,-0.001338,0.048205,0.205700,-0.977427
1763249749.872325,-0.106768,0.015405,0.078794,0.991037,-0.088753,-0.020026,-0.013744,0.001440,0.004086,-0.005883,0.047360,0.209195,-0.976726
1763249749.926093,-0.108352,0.014662,0.078624,0.990890,-0.076491,-0.030611,-0.013768,0.001775,0.006924,0.000059,0.046095,0.212424,-0.976090
1763249749.956085,-0.109554,0.014121,0.078362,0.990786,-0.054544,-0.022721,-0.027541,0.002200,0.009916,0.003484,0.045151,0.214876,-0.975597
1763249749.986168,-0.110427,0.013906,0.077600,0.990753,-0.027079,0.008074,-0.054442,0.004949,0.011567,0.008046,0.044693,0.216653,-0.975225
1763249750.041136,-0.110834,0.014036,0.076182,0.990815,-0.008275,0.017905,-0.079789,0.003586,0.009180,0.000462,0.044701,0.217494,-0.975037
1763249750.071075,-0.110754,0.014336,0.074567,0.990943,0.028030,0.022424,-0.068918,0.004267,0.005171,-0.002051,0.044929,0.217363,-0.975056
1763249750.170330,-0.109427,0.014680,0.073649,0.991154,0.067982,0.016189,-0.043937,0.002253,0.003229,-0.002043,0.045218,0.214755,-0.975621
1763249750.170552,-0.108100,0.015024,0.072732,0.991362,0.107934,0.009954,-0.018956,0.000234,0.001289,-0.002042,0.045513,0.212146,-0.976178
1763249750.198196,-0.105951,0.014836,0.072414,0.991620,0.118764,-0.026503,-0.001272,0.000148,-0.000141,-0.001057,0.044769,0.207977,-0.977109
1763249750.228745,-0.103665,0.014106,0.072634,0.991856,0.106977,-0.052015,0.018737,-0.001082,0.000634,-0.001160,0.043041,0.203593,-0.978109
1763249750.283600,-0.101583,0.012906,0.073367,0.992034,0.090315,-0.083445,0.038622,-0.002805,-0.000129,-0.002431,0.040513,0.199653,-0.979029
1763249750.313631,-0.099717,0.011413,0.074479,0.992159,0.079964,-0.078633,0.055403,-0.002205,0.001052,0.001965,0.037501,0.196170,-0.979853
1763249750.368156,-0.098083,0.010339,0.075615,0.992248,0.067615,-0.060782,0.045925,-0.003960,0.006421,0.001771,0.035351,0.193082,-0.980546
1763249750.398565,-0.096560,0.009437,0.076460,0.992341,0.073078,-0.042287,0.027298,-0.003380,0.008339,0.004491,0.033496,0.190197,-0.981174
1763249750.450156,-0.094761,0.009084,0.076871,0.992486,0.102866,-0.017214,0.010630,-0.003491,0.007787,0.001453,0.032600,0.186702,-0.981875
1763249750.485013,-0.092397,0.009195,0.076943,0.992702,0.140552,0.007993,0.004297,-0.004565,0.005749,-0.000659,0.032475,0.182030,-0.982757
1763249750.514322,-0.089559,0.009594,0.076782,0.992971,0.147742,0.015201,-0.013541,-0.002695,0.002825,-0.001508,0.032807,0.176386,-0.983774
1763249750.569878,-0.086818,0.010208,0.076191,0.993254,0.132219,0.028694,-0.041062,-0.002676,-0.002286,-0.000498,0.033508,0.170909,-0.984717
1763249750.601429,-0.084556,0.010586,0.074863,0.993546,0.099169,-0.000793,-0.078253,-0.002918,-0.002910,-0.004073,0.033694,0.166435,-0.985476
1763249750.632736,-0.083024,0.010460,0.073167,0.993803,0.052930,-0.004825,-0.089195,-0.000421,-0.003256,0.001190,0.032940,0.163488,-0.985995
1763249750.674880,-0.082473,0.009855,0.071177,0.994000,0.007585,-0.055402,-0.119001,-0.002488,-0.004297,-0.007272,0.031332,0.162552,-0.986202
1763249750.767083,-0.081988,0.008710,0.069541,0.994166,0.024038,-0.044119,-0.082274,-0.000228,-0.004507,-0.003280,0.028722,0.161808,-0.986404
1763249750.767327,-0.081503,0.007566,0.067905,0.994328,0.040491,-0.032836,-0.045547,0.002029,-0.004708,0.000706,0.026114,0.161055,-0.986600
1763249750.797264,-0.080513,0.007052,0.067277,0.994455,0.061499,-0.007218,-0.006076,0.002639,-0.006289,0.002536,0.024860,0.159185,-0.986936
1763249750.849906,-0.079299,0.007041,0.066958,0.994575,0.048163,-0.005689,-0.016549,-0.001760,-0.000439,-0.003116,0.024625,0.156794,-0.987324
1763249750.879836,-0.078308,0.007190,0.066637,0.994674,0.039484,0.008049,-0.011427,-0.000524,-0.002579,-0.001372,0.024740,0.154824,-0.987632
1763249750.909913,-0.077409,0.007424,0.066489,0.994752,0.046351,0.004978,-0.000543,-0.000877,-0.003525,-0.001617,0.025063,0.153019,-0.987905
1763249750.964963,-0.076461,0.007471,0.066724,0.994809,0.051188,-0.002988,0.029169,-0.000460,-0.005609,0.002052,0.025069,0.151131,-0.988196
1763249751.030680,-0.075274,0.007663,0.068138,0.994803,0.056240,0.010720,0.054856,0.000001,-0.000957,0.002748,0.025505,0.148721,-0.988550
1763249751.030940,-0.074086,0.007855,0.069552,0.994792,0.061292,0.024427,0.080542,0.000469,0.003697,0.003438,0.025934,0.146309,-0.988899
1763249751.074400,-0.072879,0.008476,0.071190,0.994761,0.064170,0.028465,0.078815,-0.000142,0.005486,-0.000387,0.027241,0.143788,-0.989234
1763249751.129356,-0.071620,0.009074,0.072539,0.994749,0.064608,0.017216,0.050371,-0.000375,0.004162,-0.001577,0.028444,0.141172,-0.989576
1763249751.161104,-0.070487,0.009306,0.073270,0.994775,0.048959,-0.019563,0.019981,-0.003090,0.003793,-0.005254,0.028845,0.138873,-0.989890
1763249751.214465,-0.069682,0.008933,0.073590,0.994811,0.036065,-0.017532,0.010004,-0.001742,0.001564,-0.001269,0.028028,0.137327,-0.990129
1763249751.244354,-0.069008,0.008662,0.073769,0.994847,0.034476,-0.013033,0.006848,-0.002395,-0.000052,-0.000138,0.027416,0.136027,-0.990326
1763249751.274270,-0.068420,0.008433,0.073817,0.994886,0.022877,-0.005698,-0.000104,-0.001608,-0.001221,0.001038,0.026880,0.134896,-0.990495
1763249751.342105,-0.068096,0.008299,0.073700,0.994918,0.011435,0.000997,-0.006131,-0.001468,-0.001674,0.000567,0.026551,0.134277,-0.990588
1763249751.371995,-0.067836,0.008355,0.073578,0.994945,0.016443,0.008235,-0.000868,-0.001826,-0.004315,0.001038,0.026607,0.133756,-0.990657
1763249751.400707,-0.067565,0.008573,0.073559,0.994963,0.013285,0.014748,0.003348,-0.001988,-0.003859,-0.000204,0.027000,0.133188,-0.990723
1763249751.454887,-0.067468,0.008888,0.073551,0.994967,-0.003220,0.018469,-0.004471,-0.001131,-0.000601,-0.000943,0.027611,0.132949,-0.990738
1763249751.484942,-0.067789,0.009162,0.073305,0.994961,-0.022109,0.013649,-0.017454,-0.000678,-0.000305,-0.002078,0.028170,0.133551,-0.990642
1763249751.514374,-0.068277,0.009303,0.072948,0.994952,-0.024196,0.009786,-0.013910,-0.001638,-0.001960,-0.000898,0.028474,0.134507,-0.990503
1763249751.569859,-0.068721,0.009732,0.072760,0.994932,-0.024122,0.030729,-0.010327,-0.005114,0.000539,-0.005004,0.029365,0.135330,-0.990365
1763249751.599955,-0.069243,0.010065,0.072665,0.994899,-0.016113,0.004401,0.002028,-0.009205,-0.013222,-0.013271,0.030091,0.136318,-0.990208
1763249751.645615,-0.069525,0.010066,0.072498,0.994891,-0.006753,0.012429,-0.059336,-0.002971,-0.009809,0.003562,0.030110,0.136879,-0.990130
1763249751.699666,-0.069007,0.010149,0.070238,0.995089,0.064242,0.008878,-0.127141,-0.006283,-0.070920,0.003737,0.029892,0.135911,-0.990270
1763249751.728768,-0.067325,0.010450,0.067715,0.995376,0.077922,0.025882,-0.115702,-0.004287,-0.105819,-0.000880,0.029921,0.132613,-0.990716
1763249751.758615,-0.066656,0.011140,0.064882,0.995602,-0.035333,0.084960,-0.140992,0.002921,-0.108651,-0.001519,0.030831,0.131280,-0.990866
1763249751.813582,-0.069389,0.012624,0.062464,0.995552,-0.274066,0.090475,-0.091957,0.002815,-0.107924,-0.029950,0.033805,0.136584,-0.990052
1763249751.843553,-0.077037,0.013617,0.060865,0.995075,-0.515971,0.050221,-0.062645,-0.001732,-0.096163,-0.033259,0.036478,0.151658,-0.987760
1763249751.898711,-0.087764,0.013815,0.060103,0.994230,-0.576748,0.043590,-0.020674,-0.000706,-0.084527,-0.015482,0.038020,0.172855,-0.984213
1763249751.939623,-0.098257,0.014034,0.059779,0.993265,-0.493166,0.037565,-0.027624,0.000872,-0.064519,-0.008748,0.039626,0.193513,-0.980297
1763249751.973701,-0.106997,0.014059,0.059319,0.992389,-0.426800,0.019078,-0.033879,0.001314,-0.051485,-0.019214,0.040598,0.210698,-0.976708
1763249752.005560,-0.114489,0.013492,0.058416,0.991614,-0.353281,-0.010219,-0.045082,-0.000443,-0.055017,-0.021735,0.040134,0.225481,-0.973421
1763249752.061168,-0.120822,0.012695,0.057650,0.990917,-0.327433,-0.025291,-0.051378,-0.001658,-0.025721,-0.025036,0.039090,0.237986,-0.970482
1763249752.090862,-0.126768,0.011518,0.056416,0.990260,-0.278615,-0.035854,-0.079812,-0.000643,-0.025565,-0.021360,0.037116,0.249766,-0.967595
1763249752.120954,-0.131804,0.010560,0.055228,0.989680,-0.260741,-0.044034,-0.070450,-0.003103,-0.015494,-0.035538,0.035461,0.259721,-0.965032
1763249752.180067,-0.136833,0.009243,0.054423,0.989055,-0.262002,-0.056229,-0.030636,-0.001962,-0.015603,-0.025787,0.033178,0.269665,-0.962383
1763249752.243110,-0.142130,0.008106,0.054659,0.988304,-0.271518,-0.052014,-0.028519,-0.001798,-0.006210,-0.007813,0.031560,0.280050,-0.959467
1763249752.243412,-0.147423,0.006968,0.054893,0.987525,-0.281034,-0.047799,-0.026401,-0.001642,0.003214,0.010047,0.029948,0.290403,-0.956436
1763249752.300044,-0.152533,0.005997,0.054739,0.986763,-0.253704,-0.014124,-0.019486,0.003186,-0.001349,0.039750,0.028534,0.300372,-0.953395
1763249752.327438,-0.157519,0.005551,0.054646,0.985987,-0.270700,-0.015865,-0.009120,0.001192,0.008393,0.047692,0.028162,0.310017,-0.950314
1763249752.382416,-0.163064,0.005120,0.054595,0.985091,-0.283301,-0.010749,-0.005137,0.000872,0.012521,0.054150,0.027893,0.320706,-0.946768
1763249752.412256,-0.168445,0.004620,0.054732,0.984180,-0.264173,-0.023639,0.009113,-0.000514,0.020642,0.047633,0.027533,0.331055,-0.943210
1763249752.451000,-0.173859,0.003925,0.055162,0.983217,-0.294535,-0.028075,0.014260,-0.000440,0.046349,0.038827,0.026899,0.341449,-0.939515
1763249752.483643,-0.180242,0.002747,0.055352,0.982060,-0.341022,-0.056493,-0.013030,0.000141,0.065257,0.036740,0.025349,0.353713,-0.935011
1763249752.542162,-0.186501,0.000659,0.055076,0.980910,-0.286913,-0.115808,-0.050341,0.002053,0.072383,0.033620,0.021836,0.365809,-0.930434
1763249752.570669,-0.191596,-0.002349,0.054336,0.979966,-0.224081,-0.105949,-0.059988,0.006373,0.074837,0.034230,0.016218,0.375770,-0.926571
1763249752.600558,-0.195677,-0.004180,0.053786,0.979183,-0.175468,-0.021174,-0.015644,0.003510,0.078941,0.037860,0.012864,0.383657,-0.923386
1763249752.655520,-0.198898,-0.003815,0.053842,0.978533,-0.122141,0.079107,0.033427,0.003277,0.080586,0.030759,0.013951,0.389666,-0.920850
1763249752.686107,-0.201363,-0.001884,0.054046,0.978023,-0.081764,0.124904,0.039163,0.002014,0.076716,0.022540,0.018080,0.394078,-0.918899
1763249752.741058,-0.202893,0.000232,0.054323,0.977693,-0.037503,0.084997,0.035580,-0.001318,0.067065,0.011466,0.022497,0.396709,-0.917669
1763249752.771039,-0.203351,0.001726,0.054733,0.977573,0.018124,0.069475,0.029132,-0.000055,0.059684,0.016082,0.025635,0.397393,-0.917290
1763249752.801078,-0.203035,0.002829,0.054941,0.977625,0.039184,0.033775,0.009135,0.000072,0.052670,0.011542,0.027840,0.396673,-0.917538
1763249752.864997,-0.202179,0.003579,0.054953,0.977799,0.055733,0.025085,-0.004906,0.001875,0.046935,0.011048,0.029220,0.394987,-0.918222
1763249752.896081,-0.201101,0.004156,0.054623,0.978038,0.076944,0.027690,-0.019768,0.002628,0.039518,0.007921,0.030100,0.392914,-0.919082
1763249752.926091,-0.199613,0.004590,0.053993,0.978375,0.093380,0.017295,-0.033840,0.002674,0.032929,0.005202,0.030537,0.390098,-0.920267
1763249752.981060,-0.197863,0.004697,0.053315,0.978768,0.089764,-0.009648,-0.030114,-0.000231,0.025821,-0.000822,0.030294,0.386822,-0.921657
1763249753.013557,-0.196198,0.004242,0.052930,0.979126,0.088556,-0.035988,-0.013710,0.000041,0.015075,-0.002523,0.029076,0.383755,-0.922977
1763249753.043573,-0.194372,0.003308,0.053044,0.979487,0.098777,-0.060234,0.011214,-0.000407,0.007733,-0.001487,0.027100,0.380420,-0.924417
1763249753.101125,-0.192266,0.002021,0.053946,0.979857,0.105309,-0.096203,0.052728,-0.000364,0.003773,-0.001029,0.024704,0.376568,-0.926060
1763249753.142463,-0.190086,0.000187,0.055863,0.980177,0.108966,-0.121573,0.097824,0.000368,0.000646,0.000688,0.021604,0.372616,-0.927734
1763249753.172256,-0.187856,-0.001897,0.058674,0.980441,0.108927,-0.127755,0.124800,-0.002279,0.003103,0.001715,0.018325,0.368586,-0.929413
1763249753.229301,-0.185740,-0.003576,0.061415,0.980671,0.086014,-0.106789,0.102887,-0.004125,0.008793,0.000500,0.015801,0.364740,-0.930975
1763249753.259731,-0.184171,-0.004922,0.063557,0.980825,0.066134,-0.075798,0.078877,-0.005003,0.006910,0.004412,0.013755,0.361906,-0.932113
1763249753.289699,-0.182951,-0.005911,0.065288,0.980934,0.054836,-0.056293,0.065119,-0.005469,0.004045,0.005127,0.012292,0.359697,-0.932988
1763249753.344907,-0.182026,-0.006620,0.066613,0.981012,0.034723,-0.043748,0.044987,-0.006280,0.004939,0.006196,0.011261,0.358022,-0.933645
1763249753.374294,-0.181547,-0.007191,0.067412,0.981043,0.013481,-0.025456,0.022640,-0.006407,0.004629,0.006676,0.010367,0.357180,-0.933978
1763249753.405463,-0.181460,-0.007658,0.067787,0.981029,-0.003756,-0.022837,0.003311,-0.005439,0.005623,0.005161,0.009576,0.357073,-0.934027
1763249753.469784,-0.181665,-0.008097,0.067870,0.980982,-0.012200,-0.013180,0.000990,-0.004721,0.003410,0.004182,0.008773,0.357520,-0.933864
1763249753.499750,-0.182017,-0.008402,0.067970,0.980907,-0.023019,-0.018167,0.006752,-0.005368,0.003257,-0.000311,0.008261,0.358226,-0.933598
1763249753.529594,-0.182573,-0.008674,0.068269,0.980781,-0.034839,-0.011040,0.013721,-0.005132,0.004531,0.000111,0.007914,0.359312,-0.933184
1763249753.568618,-0.183288,-0.008708,0.068582,0.980625,-0.039238,0.002733,0.011025,-0.006212,0.007057,0.000393,0.008062,0.360668,-0.932659
1763249753.624836,-0.184211,-0.008653,0.068632,0.980449,-0.056335,0.005678,-0.007116,-0.006632,0.009421,0.000079,0.008319,0.362406,-0.931983
1763249753.654762,-0.185467,-0.008800,0.068242,0.980238,-0.069043,-0.007660,-0.026734,-0.006282,0.010318,-0.000511,0.008062,0.364805,-0.931049
1763249753.744731,-0.186456,-0.008980,0.067544,0.980098,-0.052033,-0.002249,-0.031084,-0.004811,0.008027,0.000196,0.007585,0.366704,-0.930307
1763249753.744828,-0.187445,-0.009161,0.066846,0.979955,-0.035022,0.003163,-0.035435,-0.003338,0.005739,0.000899,0.007104,0.368601,-0.929561
1763249753.774058,-0.188148,-0.009337,0.066000,0.979876,-0.027171,0.007195,-0.041948,-0.002053,0.004859,0.001864,0.006538,0.369956,-0.929026
1763249753.827403,-0.188821,-0.009501,0.065010,0.979811,-0.029397,0.004075,-0.051200,-0.003283,0.004975,0.002209,0.005933,0.371253,-0.928513
1763249753.857389,-0.189511,-0.009597,0.063920,0.979749,-0.030621,0.015480,-0.056934,-0.003158,0.007546,0.005063,0.005422,0.372572,-0.927987
1763249753.897431,-0.190268,-0.009562,0.062772,0.979677,-0.029236,0.025346,-0.052167,-0.001761,0.005803,0.005270,0.005151,0.374003,-0.927413
1763249753.954359,-0.190980,-0.009312,0.061698,0.979609,-0.028022,0.029481,-0.047766,-0.001578,0.004436,0.001473,0.005322,0.375321,-0.926880
1763249753.982352,-0.191533,-0.008971,0.060713,0.979566,-0.020158,0.033887,-0.042550,-0.000830,0.003244,0.002477,0.005683,0.376327,-0.926469
1763249754.072474,-0.191909,-0.008736,0.059836,0.979548,-0.017252,0.025031,-0.041880,0.000091,0.001613,0.002277,0.005851,0.377014,-0.926189
1763249754.072694,-0.192285,-0.008502,0.058958,0.979530,-0.014345,0.016175,-0.041209,0.001013,-0.000020,0.002077,0.006017,0.377700,-0.925908
1763249754.102179,-0.192685,-0.008462,0.057960,0.979511,-0.025477,0.000255,-0.055611,0.000161,0.000628,0.000312,0.005758,0.378454,-0.925602
1763249754.133193,-0.193204,-0.008826,0.056988,0.979462,-0.025975,-0.012563,-0.043772,0.000260,-0.003359,0.000308,0.004732,0.379478,-0.925189
1763249754.188058,-0.193624,-0.009245,0.056314,0.979415,-0.021203,-0.017141,-0.030296,0.000292,-0.001963,0.000499,0.003698,0.380317,-0.924849
1763249754.218544,-0.194022,-0.009622,0.055803,0.979361,-0.027802,-0.016428,-0.026761,-0.000429,-0.001155,-0.000369,0.002806,0.381110,-0.924526
1763249754.273460,-0.194551,-0.010014,0.055351,0.979278,-0.033120,-0.015300,-0.023328,-0.000552,-0.004007,0.000398,0.001925,0.382147,-0.924099
1763249754.303604,-0.195130,-0.010282,0.054926,0.979184,-0.028329,-0.002705,-0.022672,-0.000431,-0.006087,0.003609,0.001299,0.383266,-0.923637
1763249754.393383,-0.195298,-0.010092,0.054597,0.979171,-0.005393,0.006584,-0.013831,-0.001835,-0.003836,0.001927,0.001562,0.383562,-0.923514
1763249754.393631,-0.195465,-0.009901,0.054267,0.979158,0.017543,0.015874,-0.004989,-0.003239,-0.001586,0.000245,0.001825,0.383857,-0.923391
1763249754.425937,-0.195078,-0.009556,0.054165,0.979244,0.032271,0.013567,0.005535,-0.002749,0.001387,-0.002265,0.002418,0.383093,-0.923707
1763249754.455584,-0.194348,-0.009223,0.054385,0.979380,0.038144,0.005377,0.019033,-0.002734,0.004242,-0.002149,0.003074,0.381685,-0.924287
1763249754.455842,-0.193618,-0.008890,0.054605,0.979516,0.044018,-0.002812,0.032530,-0.002718,0.007099,-0.002036,0.003730,0.380275,-0.924866
1763249754.511106,-0.192861,-0.008741,0.055559,0.979613,0.026712,0.002933,0.051585,-0.000793,0.003405,0.002019,0.004304,0.378829,-0.925457
1763249754.542273,-0.192589,-0.008468,0.056587,0.979610,0.007674,-0.000463,0.054801,-0.001138,0.001104,0.001527,0.005206,0.378283,-0.925676
1763249754.576833,-0.192549,-0.008265,0.057770,0.979551,-0.006931,-0.005300,0.057287,-0.000522,0.004852,0.000551,0.006056,0.378177,-0.925714
1763249754.641605,-0.192746,-0.008001,0.058930,0.979445,-0.008784,0.013897,0.062055,0.000636,0.003177,0.003845,0.007043,0.378511,-0.925570
1763249754.676962,-0.193082,-0.007586,0.059995,0.979317,-0.019884,0.009350,0.046553,-0.001484,0.006636,0.004090,0.008309,0.379088,-0.925323
1763249754.706847,-0.193555,-0.007282,0.060769,0.979179,-0.015910,0.035842,0.041356,0.004340,0.007317,0.004510,0.009264,0.379934,-0.924967
1763249754.736915,-0.193829,-0.006788,0.061477,0.979084,-0.011523,0.000727,0.030277,-0.000671,0.012564,-0.004289,0.010540,0.380385,-0.924768
1763249754.792386,-0.193774,-0.006708,0.062229,0.979048,0.011534,-0.013949,0.033578,0.000699,0.011251,-0.004180,0.010981,0.380263,-0.924813
1763249754.846124,-0.193273,-0.006704,0.063120,0.979090,0.032974,-0.012043,0.042389,0.001849,0.015668,-0.000599,0.011270,0.379310,-0.925201
1763249754.875568,-0.192700,-0.006821,0.063833,0.979155,0.029468,-0.012112,0.026518,0.000550,0.012717,0.002594,0.011244,0.378238,-0.925640
1763249754.940711,-0.192189,-0.006932,0.064170,0.979233,0.026996,-0.009386,0.017493,0.000727,0.009542,0.003825,0.011090,0.377286,-0.926030
1763249754.941039,-0.191678,-0.007043,0.064506,0.979310,0.024524,-0.006660,0.008469,0.000904,0.006366,0.005055,0.010935,0.376334,-0.926420
1763249754.994865,-0.191333,-0.007063,0.064681,0.979366,0.015665,0.001396,0.006187,-0.000667,0.004941,0.004799,0.010917,0.375683,-0.926684
1763249755.027374,-0.191161,-0.007027,0.064787,0.979393,0.008171,0.003748,0.003119,0.000300,0.006535,0.003243,0.011004,0.375354,-0.926816
1763249755.056864,-0.191129,-0.006849,0.064794,0.979400,-0.003325,0.004305,-0.004421,0.001717,0.005117,0.002350,0.011352,0.375272,-0.926845
1763249755.120603,-0.191186,-0.006786,0.064739,0.979393,0.001564,-0.000303,-0.001928,-0.000637,0.002849,0.000218,0.011462,0.375370,-0.926804
1763249755.151201,-0.191100,-0.006927,0.064683,0.979413,0.003549,-0.013357,-0.006362,-0.001867,0.002305,-0.001067,0.011154,0.375227,-0.926866
1763249755.181043,-0.191034,-0.007204,0.064609,0.979428,0.001482,-0.011443,-0.002828,-0.000430,-0.001157,0.001255,0.010574,0.375139,-0.926908
1763249755.244166,-0.190978,-0.007452,0.064552,0.979441,-0.000361,-0.011796,-0.002193,-0.002107,-0.002112,0.000549,0.010058,0.375066,-0.926943
1763249755.274239,-0.190904,-0.007704,0.064656,0.979447,0.006385,-0.010825,0.007950,-0.002284,-0.002213,0.000475,0.009594,0.374957,-0.926993
1763249755.302305,-0.190787,-0.007921,0.064866,0.979454,0.004669,-0.014115,0.009618,-0.004207,-0.002215,0.000139,0.009235,0.374761,-0.927075
1763249755.357399,-0.190609,-0.008111,0.065105,0.979471,0.005679,-0.011532,0.011938,-0.004008,-0.000795,-0.000034,0.008930,0.374449,-0.927205
1763249755.387381,-0.190457,-0.008413,0.065331,0.979483,0.007799,-0.013100,0.009554,-0.002719,-0.000841,0.001597,0.008404,0.374198,-0.927311
1763249755.417443,-0.190219,-0.008374,0.065570,0.979514,0.011329,0.009335,0.008844,-0.001545,0.002024,0.002719,0.008541,0.373742,-0.927493
1763249755.479841,-0.190068,-0.008224,0.065773,0.979531,0.002704,-0.002148,0.012076,-0.003800,0.002226,-0.000998,0.008891,0.373438,-0.927613
1763249755.539958,-0.190014,-0.008191,0.065852,0.979536,0.001158,-0.000584,0.005875,-0.003769,0.002303,-0.000005,0.008979,0.373331,-0.927655
1763249755.540235,-0.189961,-0.008158,0.065932,0.979541,-0.000388,0.000981,-0.000325,-0.003737,0.002380,0.000987,0.009067,0.373224,-0.927697
1763249755.594983,-0.189966,-0.008168,0.065960,0.979538,-0.000640,0.003669,0.003443,-0.003554,0.002449,0.002291,0.009059,0.373236,-0.927692
1763249755.624950,-0.190024,-0.008068,0.066013,0.979524,-0.004489,0.002797,-0.000101,-0.002462,0.000965,0.000614,0.009282,0.373332,-0.927651
1763249755.681502,-0.190070,-0.007913,0.066002,0.979517,-0.004550,0.010207,-0.003451,-0.000851,0.001837,0.000673,0.009589,0.373399,-0.927621
1763249755.709720,-0.190283,-0.007873,0.065713,0.979496,-0.014373,0.000786,-0.020712,-0.001813,0.002181,-0.000901,0.009585,0.373798,-0.927460
1763249755.743572,-0.190586,-0.007904,0.065196,0.979471,-0.013559,0.007362,-0.024253,-0.002252,0.003961,0.000555,0.009368,0.374378,-0.927229
1763249755.798625,-0.190903,-0.007910,0.064561,0.979452,-0.015352,0.009024,-0.035022,-0.002499,0.004198,-0.000338,0.009156,0.374982,-0.926987
1763249755.842700,-0.191263,-0.007889,0.063921,0.979423,-0.016128,0.009138,-0.029827,-0.002495,0.002446,0.001328,0.008998,0.375664,-0.926712
1763249755.872576,-0.191547,-0.007763,0.063265,0.979412,-0.013003,0.013838,-0.030811,-0.002853,0.003220,0.001617,0.009031,0.376188,-0.926499
1763249755.902415,-0.191806,-0.007576,0.062638,0.979403,-0.012257,0.023059,-0.023425,-0.000892,0.002841,0.002528,0.009189,0.376659,-0.926306
1763249755.958704,-0.191996,-0.007121,0.062176,0.979398,-0.007872,0.029697,-0.017294,-0.000614,0.002156,0.001028,0.009926,0.376967,-0.926174
1763249755.988636,-0.192238,-0.006652,0.061744,0.979381,-0.009718,0.022967,-0.017619,-0.001211,0.001224,0.000323,0.010710,0.377371,-0.926000
1763249756.047671,-0.192489,-0.006206,0.061269,0.979365,-0.012181,0.028028,-0.017672,-0.000940,0.002349,0.000066,0.011432,0.377794,-0.925819
1763249756.078252,-0.192823,-0.005764,0.060690,0.979338,-0.014765,0.025978,-0.026182,-0.000979,0.003119,0.000563,0.012115,0.378378,-0.925572
1763249756.147364,-0.192984,-0.005372,0.060189,0.979339,-0.007865,0.025568,-0.023252,-0.000747,0.002959,0.001523,0.012710,0.378640,-0.925457
1763249756.147409,-0.193145,-0.004979,0.059688,0.979340,-0.000966,0.025157,-0.020322,-0.000516,0.002798,0.002482,0.013304,0.378903,-0.925341
1763249756.187424,-0.193278,-0.004795,0.059236,0.979343,-0.004772,0.011822,-0.018259,-0.000575,-0.000146,0.001181,0.013505,0.379138,-0.925242
1763249756.242638,-0.193439,-0.004593,0.058935,0.979330,-0.005167,0.022903,-0.007578,-0.000692,0.000920,0.003593,0.013805,0.379423,-0.925120
1763249756.274978,-0.193600,-0.004208,0.058803,0.979308,-0.009081,0.010293,0.000406,-0.002847,0.002153,-0.001641,0.014527,0.379683,-0.925002
1763249756.304783,-0.193732,-0.004001,0.058804,0.979282,-0.002057,0.012465,0.000679,-0.001204,0.005386,0.001116,0.014947,0.379907,-0.924904
1763249756.344896,-0.193615,-0.003803,0.058742,0.979310,0.012691,0.011703,-0.000142,-0.001740,0.010879,0.001078,0.015298,0.379665,-0.924998
1763249756.400007,-0.193332,-0.003615,0.058713,0.979368,0.017721,0.012109,0.001540,-0.003467,0.025053,0.002831,0.015622,0.379112,-0.925219
1763249756.441889,-0.192976,-0.003134,0.058598,0.979447,0.020109,0.033877,-0.004726,-0.001806,0.053011,-0.002083,0.016478,0.378387,-0.925501
1763249756.469937,-0.192721,-0.002726,0.058326,0.979515,0.030204,0.024270,-0.006906,-0.002022,0.077625,0.000783,0.017141,0.377863,-0.925703
1763249756.524832,-0.191631,-0.002266,0.058072,0.979745,0.098389,0.026256,-0.013475,-0.001879,0.108384,0.004969,0.017816,0.375762,-0.926545
1763249756.554774,-0.188837,-0.001552,0.057582,0.980317,0.189835,0.017649,-0.027195,-0.003737,0.131063,0.001783,0.018704,0.370420,-0.928676
1763249756.609451,-0.183963,-0.000751,0.056931,0.981283,0.304638,0.027840,-0.025310,-0.002799,0.127647,0.010223,0.019472,0.361124,-0.932314
1763249756.639843,-0.177131,0.000181,0.056577,0.982560,0.393090,0.025290,0.007095,-0.004885,0.111263,0.023412,0.020400,0.348064,-0.937249
1763249756.678556,-0.169146,0.001281,0.056896,0.983946,0.428129,0.025729,0.039209,-0.005368,0.102847,0.032136,0.021769,0.332716,-0.942776
1763249756.764994,-0.160483,0.002549,0.057921,0.985334,0.445426,0.028018,0.047194,-0.007178,0.101615,0.039188,0.023613,0.315964,-0.948477
1763249756.765171,-0.151807,0.003816,0.058941,0.986644,0.462722,0.030307,0.055179,-0.008955,0.100485,0.045941,0.025425,0.299110,-0.953880
1763249756.794807,-0.143090,0.005256,0.059855,0.987884,0.449414,0.040018,0.043007,-0.011680,0.092996,0.047362,0.027513,0.282084,-0.958995
1763249756.849997,-0.134591,0.006924,0.060408,0.989034,0.445228,0.066918,0.029475,-0.011589,0.078478,0.050291,0.029957,0.265393,-0.963675
1763249756.879800,-0.126247,0.008883,0.060596,0.990107,0.432573,0.079778,0.014087,-0.010021,0.068238,0.047570,0.032891,0.248920,-0.967965
1763249756.909762,-0.118214,0.011049,0.060483,0.991083,0.408010,0.089938,0.005755,-0.010898,0.052354,0.044640,0.036201,0.232982,-0.971807
1763249756.966145,-0.110527,0.013464,0.060125,0.991961,0.395098,0.102244,-0.023386,-0.005957,0.051888,0.041844,0.040003,0.217659,-0.975205
1763249756.996096,-0.102826,0.016221,0.059038,0.992813,0.394984,0.126752,-0.058188,-0.003309,0.045896,0.037138,0.044350,0.202258,-0.978327
1763249757.042112,-0.095766,0.018482,0.057238,0.993585,0.337261,0.028578,-0.075850,-0.020715,0.014683,0.016475,0.047691,0.188188,-0.980974
1763249757.069931,-0.089148,0.018790,0.056155,0.994257,0.333958,-0.008278,-0.023302,-0.002186,-0.016485,0.034200,0.047375,0.175162,-0.983399
1763249757.124768,-0.082618,0.019642,0.055655,0.994832,0.321174,0.058173,-0.014397,0.009304,-0.024817,0.050696,0.048278,0.162196,-0.985577
1763249757.154787,-0.076827,0.021649,0.055204,0.995280,0.262781,0.090966,-0.011068,0.004557,-0.044299,0.026768,0.051576,0.150538,-0.987258
1763249757.209762,-0.072087,0.023509,0.054719,0.995619,0.239034,0.075578,-0.003864,0.004408,-0.085985,-0.004735,0.054702,0.140969,-0.988502
1763249757.239722,-0.067384,0.024489,0.054683,0.995926,0.238740,-0.003471,0.011760,0.001988,-0.110210,-0.038564,0.056148,0.131541,-0.989719
1763249757.269642,-0.062130,0.024133,0.054837,0.996268,0.285121,-0.063318,0.012046,-0.000626,-0.139411,-0.047178,0.054900,0.121149,-0.991115
1763249757.370928,-0.053690,0.022261,0.055547,0.996763,0.424192,-0.079686,0.031832,0.000743,-0.171076,-0.049457,0.050342,0.104558,-0.993244
1763249757.371150,-0.045245,0.020387,0.056252,0.997183,0.563263,-0.096053,0.051618,0.002148,-0.202716,-0.052035,0.045750,0.087942,-0.995074
1763249757.405796,-0.032768,0.019764,0.057338,0.997621,0.694471,-0.015078,0.070656,0.006179,-0.186021,-0.039147,0.043191,0.063114,-0.997071
1763249757.435787,-0.018838,0.020925,0.058504,0.997890,0.667851,0.038584,0.076697,-0.001593,-0.131306,-0.020349,0.043966,0.035148,-0.998415
1763249757.490952,-0.006979,0.022629,0.059768,0.997931,0.495495,0.068360,0.072433,-0.001836,-0.070726,0.016491,0.045998,0.011223,-0.998878
1763249757.520830,0.000825,0.024758,0.060772,0.997844,0.289621,0.094637,0.040099,0.001276,-0.040245,0.027380,0.049309,-0.004656,-0.998773
1763249757.550345,0.005184,0.027104,0.061264,0.997740,0.161388,0.110597,0.015417,0.005162,-0.038038,0.020728,0.053450,-0.013666,-0.998477
1763249757.642917,0.007193,0.029569,0.061258,0.997658,0.114516,0.106112,0.006682,0.004686,-0.032432,0.002792,0.058118,-0.017974,-0.998148
1763249757.643221,0.009201,0.032034,0.061252,0.997566,0.067644,0.101627,-0.002053,0.004213,-0.026826,-0.015185,0.062785,-0.022282,-0.997778
1763249757.679901,0.010075,0.033882,0.061079,0.997507,0.018475,0.072235,-0.012368,0.003527,-0.017863,-0.014256,0.066365,-0.024239,-0.997501
1763249757.735840,0.010070,0.035129,0.060756,0.997483,-0.016992,0.038636,-0.020927,0.000825,-0.006515,-0.007913,0.068858,-0.024358,-0.997329
1763249757.765894,0.009519,0.035617,0.060287,0.997500,-0.037183,0.008242,-0.029870,-0.001068,0.000283,-0.001628,0.069907,-0.023284,-0.997282
1763249757.797669,0.008529,0.035457,0.059595,0.997556,-0.064663,-0.016482,-0.045599,-0.001252,0.007030,-0.000295,0.069725,-0.021243,-0.997340
1763249757.850896,0.006846,0.034979,0.058588,0.997646,-0.100780,-0.013588,-0.057472,-0.000675,0.008070,0.001503,0.068991,-0.017759,-0.997459
1763249757.880800,0.004453,0.034655,0.057482,0.997735,-0.128509,-0.004389,-0.055854,-0.002471,0.006329,-0.001610,0.068641,-0.012871,-0.997558
1763249757.943208,0.001704,0.034468,0.056582,0.997801,-0.136013,0.003205,-0.043011,-0.001891,0.003747,0.000448,0.068593,-0.007301,-0.997618
1763249757.971847,-0.000956,0.034521,0.055919,0.997838,-0.120220,0.015736,-0.030965,-0.000215,0.000025,0.004262,0.069000,-0.001953,-0.997615
1763249758.001605,-0.003261,0.034770,0.055514,0.997847,-0.106755,0.021788,-0.016292,-0.000225,0.000903,0.002387,0.069753,0.002648,-0.997561
1763249758.054666,-0.005481,0.035015,0.055376,0.997836,-0.113978,0.012391,-0.008758,0.000084,0.004613,-0.001651,0.070486,0.007061,-0.997488
1763249758.084669,-0.007984,0.034854,0.055376,0.997825,-0.128553,-0.006196,0.003711,0.000141,0.002151,-0.002876,0.070440,0.012073,-0.997443
1763249758.124763,-0.010669,0.034347,0.055712,0.997799,-0.138038,-0.030117,0.019531,-0.001388,0.002632,-0.005830,0.069732,0.017464,-0.997413
1763249758.154662,-0.013312,0.033271,0.056366,0.997767,-0.128299,-0.057548,0.033941,-0.001764,0.001463,-0.004609,0.067895,0.022814,-0.997432
1763249758.244728,-0.015222,0.031713,0.057376,0.997733,-0.102044,-0.061169,0.040876,-0.002005,0.001999,-0.001357,0.065029,0.026736,-0.997525
1763249758.245210,-0.017132,0.030155,0.058385,0.997692,-0.075788,-0.064791,0.047812,-0.002252,0.002531,0.001871,0.062170,0.030664,-0.997594
1763249758.297484,-0.018410,0.028833,0.059414,0.997647,-0.051915,-0.052142,0.045681,-0.002547,0.003116,0.002615,0.059718,0.033308,-0.997659
1763249758.326766,-0.019283,0.027973,0.060305,0.997602,-0.040356,-0.029154,0.035635,-0.003099,0.003181,0.003842,0.058137,0.035100,-0.997691
1763249758.357252,-0.020014,0.027501,0.060921,0.997563,-0.045528,-0.012850,0.022464,-0.001776,0.003262,0.001865,0.057307,0.036580,-0.997686
1763249758.412164,-0.020889,0.027341,0.061157,0.997535,-0.050987,0.000234,0.002913,-0.001926,0.003531,0.001653,0.057103,0.038330,-0.997632
1763249758.442175,-0.021964,0.027362,0.061029,0.997519,-0.057671,0.005409,-0.015886,-0.001674,0.003737,-0.000218,0.057268,0.040479,-0.997538
1763249758.499734,-0.023224,0.027396,0.060608,0.997515,-0.063874,0.000725,-0.027271,-0.002110,0.004542,-0.002610,0.057471,0.043011,-0.997420
1763249758.545011,-0.024523,0.027266,0.060078,0.997520,-0.058829,-0.009370,-0.027129,-0.001631,0.001467,-0.002584,0.057342,0.045649,-0.997310
1763249758.574492,-0.025559,0.026936,0.059705,0.997525,-0.042627,-0.019213,-0.015208,-0.002433,-0.000929,-0.003223,0.056790,0.047775,-0.997242
1763249758.602987,-0.026230,0.026318,0.059560,0.997533,-0.024820,-0.028948,0.000737,-0.001388,-0.003183,-0.001895,0.055630,0.049195,-0.997239
1763249758.657185,-0.026526,0.025771,0.059768,0.997527,-0.014198,-0.025248,0.013628,-0.002515,0.000323,-0.001794,0.054584,0.049839,-0.997265
1763249758.685814,-0.026802,0.025177,0.060136,0.997513,-0.017185,-0.028839,0.019127,-0.002143,0.001953,-0.000191,0.053453,0.050442,-0.997296
1763249758.740754,-0.027199,0.024578,0.060484,0.997496,-0.026354,-0.028495,0.014793,-0.001801,0.002213,0.000847,0.052323,0.051288,-0.997312
1763249758.770946,-0.027831,0.023959,0.060782,0.997475,-0.040668,-0.030176,0.013137,-0.002759,0.001075,-0.000203,0.051180,0.052609,-0.997303
1763249758.800931,-0.028689,0.023316,0.061110,0.997446,-0.046687,-0.024839,0.014761,-0.002268,0.000476,0.000518,0.050020,0.054383,-0.997267
1763249758.841570,-0.029635,0.022767,0.061557,0.997404,-0.046228,-0.021781,0.026652,-0.002416,-0.001183,-0.000329,0.049064,0.056313,-0.997207
1763249758.903766,-0.030458,0.022304,0.062136,0.997353,-0.036492,-0.017370,0.028102,-0.001521,-0.000660,-0.000039,0.048275,0.057983,-0.997150
1763249758.933493,-0.031068,0.021970,0.062689,0.997307,-0.023978,-0.015309,0.021543,-0.001002,0.000469,-0.000823,0.047717,0.059215,-0.997104
1763249758.963077,-0.031507,0.021607,0.063073,0.997277,-0.019404,-0.014635,0.015662,-0.001308,0.002475,-0.001139,0.047072,0.060117,-0.997081
1763249759.018491,-0.031877,0.021233,0.063389,0.997254,-0.017968,-0.017075,0.012643,-0.000918,0.001749,-0.001270,0.046392,0.060887,-0.997066
1763249759.048269,-0.032170,0.020797,0.063729,0.997232,-0.012286,-0.018946,0.018057,-0.001799,-0.000179,0.000149,0.045579,0.061511,-0.997065
1763249759.102201,-0.032453,0.020343,0.064264,0.997198,-0.016831,-0.021171,0.027140,-0.001003,0.000692,0.000063,0.044743,0.062109,-0.997066
1763249759.140818,-0.032808,0.019802,0.065001,0.997149,-0.021980,-0.029132,0.040717,-0.002016,-0.000244,0.000299,0.043757,0.062854,-0.997063
1763249759.170810,-0.033250,0.019193,0.065955,0.997084,-0.027128,-0.030910,0.045937,-0.002095,-0.000096,-0.000088,0.042659,0.063775,-0.997052
1763249759.200791,-0.033790,0.018515,0.066983,0.997010,-0.033931,-0.035731,0.048228,-0.002501,0.000685,-0.001037,0.041446,0.064897,-0.997031
1763249759.262278,-0.034477,0.017755,0.068057,0.996927,-0.041424,-0.041820,0.049299,-0.002485,0.000655,-0.001043,0.040095,0.066326,-0.996992
1763249759.292149,-0.035258,0.016895,0.069090,0.996844,-0.044761,-0.042770,0.044878,-0.002664,0.000999,-0.001436,0.038555,0.067959,-0.996943
1763249759.322076,-0.036025,0.015982,0.070066,0.996764,-0.039575,-0.045136,0.042886,-0.001509,0.001139,-0.001391,0.036908,0.069577,-0.996894
1763249759.377121,-0.036682,0.015026,0.070935,0.996693,-0.034848,-0.051102,0.033126,-0.002482,0.001127,-0.003138,0.035156,0.070989,-0.996857
1763249759.467093,-0.037034,0.014343,0.071616,0.996641,-0.028067,-0.036161,0.028795,-0.002339,0.003362,-0.001259,0.033893,0.071765,-0.996846
1763249759.467319,-0.037386,0.013660,0.072296,0.996589,-0.021286,-0.021219,0.024464,-0.002198,0.005596,0.000617,0.032632,0.072543,-0.996831
1763249759.497060,-0.037844,0.013267,0.072746,0.996544,-0.026514,-0.013361,0.011940,-0.001944,0.005396,0.000274,0.031949,0.073497,-0.996784
1763249759.549798,-0.038405,0.012998,0.072844,0.996519,-0.029834,-0.011103,-0.001931,-0.002552,0.003842,-0.000085,0.031500,0.074649,-0.996712
1763249759.579810,-0.038988,0.012640,0.072679,0.996513,-0.029284,-0.019227,-0.014106,-0.002028,0.003429,-0.001943,0.030859,0.075867,-0.996640
1763249759.609655,-0.039584,0.012188,0.072367,0.996518,-0.033080,-0.020886,-0.018918,-0.001925,0.004017,-0.001996,0.030020,0.077129,-0.996569
1763249759.665021,-0.040226,0.011680,0.071955,0.996528,-0.030451,-0.020183,-0.020214,-0.001778,-0.000146,0.000131,0.029068,0.078491,-0.996491
1763249759.694826,-0.040773,0.011282,0.071629,0.996534,-0.023393,-0.012269,-0.011992,-0.002462,-0.001430,0.001159,0.028326,0.079648,-0.996421
1763249759.742149,-0.041179,0.011102,0.071438,0.996533,-0.017605,-0.005459,-0.006594,-0.002291,-0.000635,0.000315,0.028011,0.080487,-0.996362
1763249759.774410,-0.041533,0.011070,0.071327,0.996526,-0.015334,0.001484,-0.005102,-0.002255,0.001710,0.000230,0.027988,0.081199,-0.996305
1763249759.804153,-0.041895,0.011101,0.071205,0.996520,-0.018788,0.003106,-0.006742,-0.001822,0.001701,0.000565,0.028091,0.081918,-0.996243
1763249759.859774,-0.042332,0.011160,0.071029,0.996513,-0.023402,0.005205,-0.009372,-0.002065,0.001154,0.000428,0.028256,0.082783,-0.996167
1763249759.889661,-0.042909,0.011189,0.070821,0.996503,-0.030864,0.001980,-0.010289,-0.002611,0.000365,0.000079,0.028377,0.083932,-0.996067
1763249759.952248,-0.043617,0.011076,0.070614,0.996488,-0.036176,-0.002501,-0.007980,-0.002248,0.000209,0.000576,0.028235,0.085363,-0.995950
1763249759.982407,-0.044412,0.010909,0.070418,0.996469,-0.042411,-0.008175,-0.009946,-0.002638,0.002320,-0.001491,0.027997,0.086973,-0.995817
1763249760.068430,-0.045350,0.010537,0.070122,0.996451,-0.043302,-0.011570,-0.012547,-0.002056,0.002159,-0.001680,0.027360,0.088901,-0.995665
1763249760.068502,-0.046288,0.010165,0.069827,0.996433,-0.044193,-0.014966,-0.015147,-0.001472,0.002000,-0.001873,0.026721,0.090827,-0.995508
1763249760.097712,-0.047092,0.009762,0.069502,0.996422,-0.037565,-0.017303,-0.015890,-0.001347,0.001097,-0.001150,0.026000,0.092491,-0.995374
1763249760.126664,-0.047686,0.009378,0.069196,0.996419,-0.025917,-0.020962,-0.016675,-0.001918,0.001638,-0.002634,0.025288,0.093733,-0.995276
1763249760.182390,-0.048060,0.008989,0.068845,0.996429,-0.015977,-0.010304,-0.018352,-0.000593,0.002029,-0.000225,0.024531,0.094540,-0.995219
1763249760.212219,-0.048375,0.008721,0.068490,0.996440,-0.018216,-0.013806,-0.017656,-0.001085,0.003001,-0.000826,0.024007,0.095210,-0.995168
1763249760.267454,-0.048721,0.008458,0.068150,0.996449,-0.021155,-0.012998,-0.017162,-0.000419,0.004907,0.000532,0.023497,0.095943,-0.995109
1763249760.297388,-0.049126,0.008225,0.067825,0.996453,-0.021069,-0.010595,-0.017256,-0.000659,0.003702,0.000254,0.023056,0.096788,-0.995038
1763249760.351995,-0.049520,0.007979,0.067562,0.996453,-0.017430,-0.010563,-0.011186,0.000048,0.002642,0.000756,0.022593,0.097610,-0.994968
1763249760.382392,-0.049855,0.007797,0.067405,0.996449,-0.015131,-0.012640,-0.009030,-0.001471,0.003050,-0.001696,0.022260,0.098305,-0.994907
1763249760.414523,-0.050029,0.007654,0.067288,0.996449,-0.005268,-0.003866,-0.007650,-0.000524,0.003415,0.000888,0.021987,0.098674,-0.994877
1763249760.472379,-0.050098,0.007561,0.067098,0.996459,-0.001261,-0.002937,-0.011087,-0.001707,0.002291,-0.000474,0.021792,0.098826,-0.994866
1763249760.504110,-0.050093,0.007432,0.066835,0.996478,0.000337,-0.007129,-0.011001,-0.000754,-0.000003,-0.001996,0.021507,0.098840,-0.994871
1763249760.534512,-0.050135,0.007311,0.066622,0.996491,-0.005112,-0.004452,-0.006626,-0.000305,-0.000358,-0.001318,0.021250,0.098944,-0.994866
1763249760.572093,-0.050328,0.007191,0.066579,0.996485,-0.011485,-0.003674,0.004007,-0.000473,-0.002157,-0.000130,0.021033,0.099345,-0.994831
1763249760.639636,-0.050655,0.007147,0.066766,0.996456,-0.018574,-0.001652,0.013990,-0.001003,-0.001682,0.000446,0.021008,0.099997,-0.994766
1763249760.669513,-0.051060,0.007176,0.067031,0.996418,-0.023649,0.001026,0.012558,-0.001512,0.000328,-0.000398,0.021147,0.100793,-0.994683
1763249760.699509,-0.051552,0.007190,0.067230,0.996379,-0.026124,-0.003607,0.006446,-0.001702,0.000956,-0.001157,0.021259,0.101763,-0.994581
1763249760.754612,-0.052102,0.007089,0.067324,0.996345,-0.031771,-0.007352,0.005641,-0.002211,0.001492,-0.000408,0.021142,0.102868,-0.994470
1763249760.795835,-0.052683,0.006962,0.067508,0.996303,-0.026864,-0.001473,0.015744,-0.001574,-0.000903,-0.000044,0.020985,0.104037,-0.994352
1763249760.825839,-0.052988,0.007037,0.068022,0.996251,-0.004694,0.010195,0.036328,-0.002300,-0.001692,0.000981,0.021231,0.104622,-0.994285
1763249760.855778,-0.052961,0.007349,0.068932,0.996187,0.004430,0.014604,0.051755,-0.003432,0.002432,-0.000382,0.021943,0.104505,-0.994282
1763249760.940286,-0.052891,0.007629,0.069904,0.996121,-0.001825,0.014925,0.045229,-0.003416,0.004886,-0.000477,0.022594,0.104306,-0.994289
1763249760.940495,-0.052822,0.007910,0.070875,0.996054,-0.008080,0.015245,0.038704,-0.003400,0.007342,-0.000573,0.023245,0.104105,-0.994295
1763249760.997796,-0.053027,0.008100,0.071529,0.995995,-0.019563,0.007551,0.019709,-0.003069,0.007943,0.000058,0.023722,0.104470,-0.994245
1763249760.998004,-0.053232,0.008291,0.072183,0.995935,-0.031047,-0.000142,0.000714,-0.002738,0.008546,0.000689,0.024199,0.104834,-0.994195
1763249761.027435,-0.053873,0.008355,0.072058,0.995909,-0.027691,0.006722,-0.014091,-0.002192,0.006576,0.000017,0.024405,0.106102,-0.994056
1763249761.055448,-0.054401,0.008338,0.071761,0.995902,-0.022236,-0.001390,-0.010582,-0.001890,0.001653,-0.001851,0.024415,0.107160,-0.993942
1763249761.110871,-0.054761,0.008258,0.071749,0.995884,-0.013218,0.005666,0.008215,-0.000939,-0.000256,0.000106,0.024306,0.107887,-0.993866
1763249761.140775,-0.055046,0.008083,0.071942,0.995856,-0.010424,-0.011647,0.013227,-0.001581,-0.001935,-0.001018,0.024019,0.108473,-0.993809
1763249761.195892,-0.055179,0.007878,0.072191,0.995832,-0.009163,-0.013182,0.006515,-0.000681,0.001125,-0.001349,0.023656,0.108761,-0.993786
1763249761.264343,-0.055376,0.007371,0.071920,0.995845,-0.010182,-0.019921,-0.012895,-0.000405,0.000912,-0.000358,0.022646,0.109231,-0.993758
1763249761.264561,-0.055572,0.006865,0.071649,0.995857,-0.011200,-0.026660,-0.032304,-0.000128,0.000700,0.000632,0.021636,0.109700,-0.993729
1763249761.297180,-0.055842,0.006307,0.070957,0.995895,-0.014632,-0.022608,-0.032942,-0.000872,-0.000251,0.000182,0.020488,0.110331,-0.993684
1763249761.352227,-0.056077,0.005966,0.070472,0.995918,-0.015847,-0.007694,-0.021718,-0.000677,0.002512,0.001296,0.019786,0.110855,-0.993640
1763249761.382193,-0.056397,0.005762,0.070084,0.995929,-0.016770,-0.001653,-0.015946,-0.000559,0.002033,0.000724,0.019381,0.111528,-0.993572
1763249761.440914,-0.056727,0.005701,0.069775,0.995932,-0.018741,-0.000546,-0.014012,-0.000746,0.001938,-0.000579,0.019273,0.112196,-0.993499
1763249761.470833,-0.057141,0.005672,0.069539,0.995925,-0.019931,0.005895,-0.007573,-0.000566,0.001994,0.000587,0.019244,0.113027,-0.993405
1763249761.500837,-0.057597,0.005803,0.069525,0.995899,-0.021667,0.007155,0.007257,-0.000640,0.001304,-0.001202,0.019566,0.113915,-0.993298
1763249761.543889,-0.057991,0.005959,0.069734,0.995861,-0.017291,0.006105,0.010385,-0.000750,0.001876,-0.000725,0.019957,0.114671,-0.993203
1763249761.577138,-0.058374,0.005883,0.069872,0.995829,-0.026493,-0.007743,0.005199,-0.001639,0.003616,-0.002536,0.019875,0.115439,-0.993116
1763249761.631637,-0.059029,0.005509,0.069806,0.995797,-0.039936,-0.038146,-0.015867,-0.003748,0.003103,-0.004882,0.019212,0.116792,-0.992971
1763249761.663306,-0.059878,0.004918,0.069494,0.995772,-0.044369,-0.014730,-0.017502,-0.001513,0.001900,0.001473,0.018116,0.118566,-0.992781
1763249761.718269,-0.060783,0.004680,0.069117,0.995744,-0.044719,-0.009690,-0.022807,-0.001657,0.001655,-0.000307,0.017722,0.120402,-0.992567
1763249761.748453,-0.061599,0.004477,0.068653,0.995727,-0.038602,0.000650,-0.022331,-0.001774,0.002240,0.000106,0.017374,0.122056,-0.992371
1763249761.778313,-0.062308,0.004424,0.068256,0.995710,-0.027874,-0.001268,-0.012564,-0.002998,-0.000663,-0.001980,0.017316,0.123477,-0.992196
1763249761.839340,-0.062724,0.004245,0.068169,0.995691,-0.020507,-0.007134,0.002648,-0.002021,0.001284,-0.001898,0.017006,0.124329,-0.992095
1763249761.869743,-0.063050,0.004006,0.068314,0.995661,-0.008685,-0.016909,0.008166,-0.002318,0.000114,-0.001754,0.016591,0.125006,-0.992017
1763249761.907162,-0.063046,0.003747,0.068564,0.995646,0.005475,-0.011411,0.011442,-0.001859,0.002022,-0.000095,0.016107,0.125029,-0.992022
1763249761.962333,-0.062838,0.003533,0.068751,0.995647,0.012142,-0.014092,0.001658,-0.001764,0.004797,-0.000007,0.015675,0.124643,-0.992078
1763249761.992198,-0.062502,0.003254,0.068784,0.995666,0.010145,-0.019169,-0.004998,-0.001700,0.006446,-0.002465,0.015078,0.124014,-0.992166
1763249762.022273,-0.062312,0.002845,0.068682,0.995687,0.002908,-0.022204,-0.009531,-0.001741,0.005418,-0.000357,0.014224,0.123695,-0.992218
1763249762.077165,-0.062197,0.002386,0.068541,0.995705,0.005863,-0.022550,-0.007249,-0.002153,0.003894,0.000083,0.013277,0.123532,-0.992252
1763249762.139634,-0.061960,0.002193,0.068566,0.995718,0.011641,-0.013421,-0.001342,-0.002404,0.003033,0.000189,0.012864,0.123088,-0.992312
1763249762.139828,-0.061723,0.002000,0.068591,0.995732,0.017419,-0.004291,0.004565,-0.002656,0.002172,0.000295,0.012451,0.122644,-0.992373
1763249762.194602,-0.061387,0.002091,0.068699,0.995745,0.014257,0.003103,0.003485,-0.001801,0.004163,-0.000517,0.012598,0.121965,-0.992454
1763249762.224732,-0.061117,0.002199,0.068748,0.995758,0.013205,0.005338,0.002177,-0.000571,0.001215,-0.000653,0.012782,0.121414,-0.992520
1763249762.279616,-0.060842,0.002234,0.068756,0.995774,0.009588,-0.000258,0.000468,-0.002732,0.000535,0.000276,0.012816,0.120862,-0.992587
1763249762.309564,-0.060580,0.002305,0.068740,0.995791,0.011703,0.004498,-0.002834,-0.001689,0.001490,0.000741,0.012919,0.120334,-0.992649
1763249762.364047,-0.060429,0.002414,0.068695,0.995803,0.005417,-0.005241,-0.003010,-0.003239,-0.000705,-0.003953,0.013109,0.120019,-0.992685
1763249762.393985,-0.060242,0.002504,0.068567,0.995823,0.011636,0.016828,-0.003077,-0.001002,-0.000268,0.001620,0.013248,0.119637,-0.992729
1763249762.441522,-0.060183,0.002915,0.068478,0.995831,-0.000913,0.016315,-0.003029,-0.001161,0.002579,-0.000243,0.014048,0.119464,-0.992739
1763249762.469078,-0.060388,0.003244,0.068314,0.995829,-0.011718,0.023981,-0.007755,-0.000852,0.003223,0.001607,0.014711,0.119828,-0.992686
1763249762.525930,-0.060754,0.003598,0.068079,0.995822,-0.016948,0.018559,-0.011204,-0.002032,0.002938,-0.001197,0.015438,0.120511,-0.992592
1763249762.555866,-0.061135,0.003787,0.067914,0.995809,-0.012134,0.013618,-0.004759,-0.000758,0.001637,-0.000239,0.015845,0.121244,-0.992496
1763249762.585520,-0.061399,0.004034,0.067865,0.995795,-0.009781,0.008464,-0.003475,-0.002637,0.001825,-0.001966,0.016368,0.121733,-0.992428
1763249762.642266,-0.061546,0.004220,0.067832,0.995788,-0.001736,0.009935,-0.002288,-0.001800,0.002266,0.000793,0.016754,0.122001,-0.992389
1763249762.672159,-0.061632,0.004441,0.067756,0.995787,-0.003093,0.008088,-0.004771,-0.002375,0.002686,-0.002388,0.017197,0.122142,-0.992364
1763249762.767023,-0.061870,0.004496,0.067547,0.995786,-0.010431,0.002928,-0.008619,-0.001618,0.002054,-0.001938,0.017313,0.122611,-0.992304
1763249762.767186,-0.062109,0.004552,0.067337,0.995785,-0.017769,-0.002231,-0.012467,-0.000861,0.001421,-0.001489,0.017429,0.123081,-0.992244
1763249762.797152,-0.062504,0.004366,0.067066,0.995779,-0.017136,-0.003748,-0.010382,-0.001110,-0.001118,0.000964,0.017078,0.123894,-0.992149
1763249762.827239,-0.062865,0.004222,0.066786,0.995776,-0.018876,-0.005832,-0.014939,-0.002133,0.002490,-0.000708,0.016804,0.124636,-0.992060
1763249762.882188,-0.063220,0.004122,0.066426,0.995778,-0.018448,-0.001551,-0.020636,-0.001414,0.003067,-0.000684,0.016607,0.125358,-0.991973
1763249762.912141,-0.063580,0.004101,0.065987,0.995784,-0.019427,-0.000926,-0.019628,-0.001774,0.001913,-0.001604,0.016559,0.126082,-0.991882
1763249762.945809,-0.063931,0.004132,0.065682,0.995782,-0.014410,0.004277,-0.006614,-0.001366,0.000698,-0.000783,0.016627,0.126779,-0.991792
1763249763.001052,-0.064195,0.004205,0.065581,0.995771,-0.006553,0.006631,0.000702,-0.000418,0.000691,0.000327,0.016794,0.127296,-0.991723
1763249763.039631,-0.064281,0.004326,0.065600,0.995764,-0.000436,0.005312,0.005079,-0.001036,0.000408,-0.000315,0.017049,0.127449,-0.991699
1763249763.069573,-0.064210,0.004360,0.065641,0.995766,0.004144,-0.004889,-0.004319,-0.001672,0.001270,-0.001494,0.017113,0.127304,-0.991716
1763249763.137226,-0.064102,0.004466,0.065582,0.995776,-0.000811,0.006817,-0.005386,-0.002410,0.004001,-0.000260,0.017301,0.127077,-0.991742
1763249763.167365,-0.064239,0.004547,0.065481,0.995773,-0.008741,0.002159,-0.005289,-0.001200,0.003538,0.001453,0.017468,0.127340,-0.991705
1763249763.196422,-0.064476,0.004660,0.065425,0.995761,-0.010579,0.006399,-0.002468,-0.000721,0.002402,0.000886,0.017717,0.127796,-0.991642
1763249763.227149,-0.064678,0.004765,0.065415,0.995748,-0.005494,0.000800,-0.000197,-0.001926,0.000595,-0.001038,0.017952,0.128182,-0.991588
1763249763.282103,-0.064735,0.004891,0.065587,0.995733,0.001983,0.008809,0.010241,-0.001659,0.000845,-0.001161,0.018231,0.128276,-0.991571
1763249763.325664,-0.064722,0.004937,0.065751,0.995723,0.006084,0.002120,0.008059,-0.001117,0.000008,-0.000203,0.018342,0.128241,-0.991573
1763249763.356924,-0.064567,0.005042,0.065834,0.995727,0.007503,0.005693,0.002083,-0.000624,0.000951,-0.000054,0.018543,0.127918,-0.991611
1763249763.411364,-0.064455,0.005159,0.065775,0.995737,0.005583,0.003804,-0.001075,-0.000407,0.000713,-0.000506,0.018754,0.127681,-0.991638
1763249763.447240,-0.064471,0.005222,0.065712,0.995740,-0.003293,0.001541,-0.001588,-0.000771,-0.000018,-0.000031,0.018873,0.127706,-0.991633
1763249763.477214,-0.064670,0.005297,0.065737,0.995725,-0.008452,0.004167,0.006513,-0.001527,-0.000442,0.000214,0.019051,0.128091,-0.991579
1763249763.532831,-0.064941,0.005441,0.065899,0.995696,-0.012817,0.003948,0.007317,-0.001632,0.001029,-0.000311,0.019394,0.128605,-0.991506
1763249763.564684,-0.065251,0.005481,0.065957,0.995672,-0.013800,0.002956,-0.001364,-0.000528,0.002860,0.000285,0.019522,0.129213,-0.991425
1763249763.609668,-0.065587,0.005439,0.065887,0.995654,-0.017473,-0.001539,-0.006115,-0.001000,0.003129,-0.000393,0.019473,0.129886,-0.991338
1763249763.639592,-0.065995,0.005217,0.065733,0.995639,-0.020912,-0.013864,-0.008562,-0.000752,0.001804,-0.001073,0.019064,0.130729,-0.991235
1763249763.669594,-0.066463,0.004854,0.065596,0.995619,-0.020845,-0.022242,-0.012152,-0.001356,0.002713,-0.002702,0.018385,0.131707,-0.991118
1763249763.725919,-0.066810,0.004346,0.065445,0.995608,-0.015556,-0.031101,-0.011775,-0.001774,0.004424,-0.001766,0.017399,0.132463,-0.991035
1763249763.755937,-0.067034,0.003776,0.065284,0.995605,-0.007432,-0.026570,-0.010115,-0.002049,0.002369,0.001091,0.016272,0.132986,-0.990984
1763249763.798360,-0.067139,0.003246,0.065125,0.995611,-0.003411,-0.009620,-0.003867,-0.000912,0.001141,0.003738,0.015209,0.133265,-0.990964
1763249763.840847,-0.067338,0.003052,0.064968,0.995608,-0.015088,-0.005689,-0.004689,-0.002336,0.004172,0.000816,0.014826,0.133687,-0.990913
1763249763.870866,-0.067614,0.002891,0.064796,0.995601,-0.015344,-0.000338,-0.010453,-0.001244,0.005628,0.001555,0.014518,0.134259,-0.990840
1763249763.934835,-0.067894,0.002821,0.064565,0.995597,-0.011615,-0.000357,-0.009912,-0.001355,0.003957,-0.000892,0.014385,0.134826,-0.990765
1763249763.964701,-0.068053,0.002734,0.064433,0.995595,-0.003978,-0.001186,0.001634,-0.002734,0.001497,-0.000894,0.014213,0.135154,-0.990723
1763249763.994777,-0.068109,0.002818,0.064592,0.995581,-0.002349,-0.000751,0.010151,-0.003137,0.001705,-0.002838,0.014409,0.135251,-0.990707
1763249764.049578,-0.068091,0.002862,0.064847,0.995565,0.001765,0.005478,0.012995,-0.001797,0.001280,0.000090,0.014529,0.135206,-0.990711
1763249764.081064,-0.068072,0.003000,0.065037,0.995554,-0.003671,0.002341,0.004928,-0.002467,0.001262,-0.001128,0.014829,0.135149,-0.990714
1763249764.137385,-0.068137,0.003056,0.065055,0.995548,-0.004523,0.001623,0.000246,-0.001648,0.000632,-0.000727,0.014950,0.135270,-0.990696
1763249764.166826,-0.068316,0.003111,0.064996,0.995539,-0.011881,0.001921,-0.001179,-0.002589,0.000017,-0.000386,0.015074,0.135618,-0.990646
1763249764.199179,-0.068626,0.003192,0.064972,0.995519,-0.014373,0.003932,0.001948,-0.002905,-0.000189,-0.000272,0.015274,0.136223,-0.990560
1763249764.257305,-0.068939,0.003328,0.065014,0.995495,-0.014587,0.006736,0.002802,-0.001994,0.002476,-0.000987,0.015591,0.136823,-0.990473
1763249764.286344,-0.069300,0.003519,0.065010,0.995469,-0.017580,0.004819,-0.003646,-0.001896,0.003791,-0.001676,0.016017,0.137515,-0.990370
1763249764.316356,-0.069717,0.003589,0.064884,0.995448,-0.019653,0.002863,-0.006549,-0.001725,0.004287,-0.001023,0.016192,0.138333,-0.990253
1763249764.356007,-0.070190,0.003659,0.064739,0.995424,-0.022547,0.004299,-0.008234,-0.001172,0.003204,-0.000356,0.016373,0.139265,-0.990120
1763249764.410578,-0.070651,0.003667,0.064604,0.995400,-0.018386,-0.001015,-0.005705,-0.001707,0.002585,-0.000905,0.016429,0.140178,-0.989990
1763249764.444750,-0.070977,0.003557,0.064456,0.995387,-0.013269,-0.008225,-0.009617,-0.001795,0.003808,-0.001635,0.016230,0.140842,-0.989899
1763249764.497182,-0.071240,0.003367,0.064241,0.995383,-0.008256,-0.013445,-0.013157,-0.002512,0.002610,-0.001259,0.015857,0.141390,-0.989827
1763249764.526590,-0.071325,0.003001,0.063976,0.995395,0.002888,-0.004750,-0.009231,-0.001163,0.001318,0.002696,0.015100,0.141609,-0.989807
1763249764.556557,-0.071354,0.002855,0.063741,0.995408,0.000540,-0.003741,-0.010300,-0.001535,0.003814,0.000984,0.014781,0.141688,-0.989801
1763249764.617747,-0.071397,0.002738,0.063490,0.995421,-0.001562,0.000820,-0.009817,-0.000851,0.003144,0.002091,0.014516,0.141793,-0.989790
1763249764.647680,-0.071477,0.002642,0.063243,0.995432,-0.000696,-0.000654,-0.006203,-0.001095,0.001358,0.000439,0.014300,0.141967,-0.989768
1763249764.701500,-0.071525,0.002511,0.063164,0.995434,-0.001076,-0.003268,0.002373,-0.001831,0.000944,0.000360,0.014034,0.142080,-0.989756
1763249764.732490,-0.071576,0.002487,0.063283,0.995422,-0.003558,-0.008664,0.006124,-0.002269,0.002106,-0.001900,0.014010,0.142181,-0.989741
1763249764.764693,-0.071482,0.002434,0.063435,0.995420,0.004697,-0.003975,0.005776,-0.001637,0.001891,0.000660,0.013915,0.142001,-0.989769
1763249764.803358,-0.071327,0.002460,0.063500,0.995427,0.007460,0.000392,0.001220,-0.001957,0.000723,0.000020,0.013955,0.141688,-0.989813
1763249764.858378,-0.071136,0.002458,0.063508,0.995440,0.005107,0.000905,0.000080,-0.001146,0.001044,-0.000835,0.013929,0.141311,-0.989867
1763249764.887744,-0.071039,0.002495,0.063550,0.995444,0.001936,0.002130,0.003395,-0.001202,0.000595,-0.000644,0.013996,0.141115,-0.989894
1763249764.944512,-0.071025,0.002545,0.063699,0.995435,-0.001008,0.002015,0.008393,-0.001587,-0.000145,-0.000057,0.014116,0.141077,-0.989898
1763249764.974774,-0.071063,0.002645,0.063924,0.995418,-0.003465,0.005094,0.008650,-0.001710,0.001360,0.000075,0.014351,0.141137,-0.989886
1763249765.006366,-0.071164,0.002709,0.064065,0.995402,-0.003999,0.003765,0.006254,-0.001758,0.001942,0.000126,0.014510,0.141326,-0.989857
1763249765.084912,-0.071343,0.002728,0.064149,0.995383,-0.006281,0.003273,0.006542,-0.002236,0.002201,-0.000059,0.014585,0.141677,-0.989806
1763249765.084988,-0.071522,0.002748,0.064233,0.995365,-0.008563,0.002781,0.006829,-0.002714,0.002461,-0.000245,0.014659,0.142027,-0.989754
1763249765.141826,-0.071683,0.002781,0.064392,0.995343,-0.004003,0.000902,0.006188,-0.002902,0.002563,-0.000318,0.014768,0.142340,-0.989708
1763249765.174823,-0.071708,0.002789,0.064530,0.995332,0.001369,-0.000397,0.003736,-0.003569,0.004589,0.000065,0.014806,0.142387,-0.989700
1763249765.203112,-0.071655,0.002803,0.064660,0.995327,0.004990,-0.001292,0.003386,-0.002983,0.002635,-0.000194,0.014846,0.142279,-0.989715
1763249765.260257,-0.071476,0.002885,0.064794,0.995331,0.012125,0.013250,0.007464,-0.002250,0.002014,0.002952,0.015006,0.141911,-0.989766
1763249765.290475,-0.071334,0.003226,0.064922,0.995332,0.002496,0.017533,0.005292,-0.002630,0.004566,0.002107,0.015684,0.141584,-0.989802
1763249765.321207,-0.071378,0.003569,0.064917,0.995328,-0.003475,0.018584,-0.001853,-0.001818,0.002908,0.002164,0.016373,0.141625,-0.989785
1763249765.361347,-0.071554,0.003915,0.064845,0.995319,-0.009883,0.013395,-0.003047,-0.002835,0.000070,0.000854,0.017074,0.141930,-0.989729
1763249765.419160,-0.071849,0.004134,0.064846,0.995297,-0.017356,0.014770,0.003602,-0.001897,0.000214,0.000045,0.017547,0.142485,-0.989641
1763249765.446743,-0.072242,0.004373,0.064955,0.995260,-0.017610,0.006065,0.004733,-0.003863,-0.001788,-0.000233,0.018089,0.143232,-0.989524
1763249765.502410,-0.072533,0.004665,0.064921,0.995240,-0.014553,0.012871,-0.012919,-0.004289,-0.004182,-0.001145,0.018704,0.143769,-0.989434
1763249765.532190,-0.072628,0.004595,0.063797,0.995306,0.027262,-0.008684,-0.107276,-0.006976,-0.047016,0.011911,0.018415,0.143988,-0.989408
1763249765.563368,-0.071315,0.004955,0.061582,0.995539,0.093698,0.061729,-0.107237,-0.005597,-0.125962,0.011540,0.018649,0.141383,-0.989779
1763249765.618788,-0.069845,0.006395,0.059374,0.995769,0.066648,0.081353,-0.096672,-0.008852,-0.200228,-0.010557,0.021029,0.138339,-0.990162
1763249765.648556,-0.069422,0.009130,0.058120,0.995851,-0.067427,0.168143,-0.018670,-0.004258,-0.204906,-0.045020,0.026254,0.137207,-0.990194
1763249765.703472,-0.074438,0.011636,0.057783,0.995482,-0.443432,0.092731,-0.019792,-0.003714,-0.146140,-0.074830,0.031768,0.146858,-0.988647
1763249765.737534,-0.086644,0.012327,0.057884,0.994480,-0.728867,0.048672,0.010691,0.001333,-0.104218,-0.039914,0.034549,0.170905,-0.984682
1763249765.789710,-0.101940,0.012336,0.058342,0.993002,-0.770801,0.025213,0.006873,-0.000108,-0.065196,-0.004666,0.036395,0.201015,-0.978912
1763249765.806494,-0.116144,0.011961,0.058829,0.991416,-0.666352,0.006532,0.021679,-0.002597,-0.055200,0.013863,0.037382,0.228887,-0.972735
1763249765.860946,-0.128406,0.011449,0.059261,0.989883,-0.593573,-0.012013,0.003861,-0.003200,-0.063423,0.017231,0.037885,0.252858,-0.966761
1763249765.890896,-0.139254,0.010852,0.059730,0.988394,-0.517573,-0.005317,0.031010,-0.004234,-0.101582,0.004773,0.038088,0.273979,-0.960981
1763249765.945688,-0.149166,0.010394,0.060887,0.986881,-0.511938,0.003872,0.064793,-0.006954,-0.088016,-0.009685,0.038680,0.293152,-0.955283
1763249765.978580,-0.159522,0.010049,0.061902,0.985200,-0.530528,0.018825,0.018308,-0.003527,-0.054947,-0.017685,0.039551,0.313078,-0.948903
1763249766.008466,-0.169730,0.009752,0.061993,0.983490,-0.496353,0.013684,-0.028311,-0.003756,-0.036908,-0.021122,0.040227,0.332647,-0.942193
1763249766.063396,-0.178394,0.009217,0.061241,0.982008,-0.396591,-0.013564,-0.062242,-0.003032,-0.023804,-0.014546,0.039953,0.349241,-0.936181
1763249766.095964,-0.185038,0.008772,0.059914,0.980864,-0.318720,0.013640,-0.080573,0.003504,0.001786,-0.007433,0.039382,0.361944,-0.931368
1763249766.134592,-0.191139,0.007752,0.057991,0.979818,-0.292220,-0.020185,-0.112896,0.006190,0.019917,0.014287,0.037359,0.373664,-0.926812
1763249766.191631,-0.196115,0.006452,0.056135,0.978952,-0.210431,-0.025649,-0.087229,0.009737,0.032006,0.038788,0.034651,0.383251,-0.922994
1763249766.221650,-0.199559,0.005675,0.054771,0.978337,-0.154074,-0.012860,-0.064911,0.004862,0.052796,0.048499,0.032964,0.389850,-0.920288
1763249766.250589,-0.202015,0.005185,0.053934,0.977883,-0.106619,-0.013252,-0.031230,-0.001559,0.059223,0.042255,0.031931,0.394535,-0.918326
1763249766.312756,-0.203915,0.004749,0.053628,0.977507,-0.096604,-0.013335,-0.010379,-0.003469,0.077877,0.039615,0.031155,0.398147,-0.916792
1763249766.391415,-0.206200,0.004277,0.053459,0.977039,-0.096954,-0.013440,-0.006648,-0.000974,0.089752,0.039287,0.030403,0.402473,-0.914927
1763249766.391744,-0.208483,0.003804,0.053290,0.976566,-0.097303,-0.013545,-0.002917,0.001522,0.101636,0.038939,0.029650,0.406789,-0.913041
1763249766.420929,-0.210523,0.003450,0.053543,0.976115,-0.085968,-0.006661,0.020722,0.002568,0.107452,0.042155,0.029279,0.410621,-0.911336
1763249766.450883,-0.212121,0.003336,0.054170,0.975735,-0.056621,0.001445,0.032175,0.005565,0.105908,0.046830,0.029492,0.413587,-0.909987
1763249766.506217,-0.213009,0.003607,0.054798,0.975506,-0.018633,0.021122,0.022498,0.005619,0.101254,0.049768,0.030382,0.415187,-0.909229
1763249766.536030,-0.213450,0.003915,0.055014,0.975396,-0.012579,0.005524,0.005402,0.003252,0.092897,0.034709,0.031124,0.415966,-0.908847
1763249766.591313,-0.214002,0.003682,0.054992,0.975277,-0.034550,-0.031612,-0.012103,0.000836,0.088180,0.021621,0.030718,0.417017,-0.908380
1763249766.624781,-0.214887,0.002686,0.054884,0.975092,-0.051514,-0.060470,-0.017237,0.000332,0.079260,0.015727,0.028827,0.418775,-0.907632
1763249766.656906,-0.215927,0.001383,0.054852,0.974867,-0.051033,-0.064345,-0.008924,-0.002859,0.064501,0.013568,0.026384,0.420849,-0.906747
1763249766.692396,-0.216750,-0.000014,0.055065,0.974673,-0.027680,-0.070691,0.006349,-0.010213,0.052146,0.012614,0.023844,0.422522,-0.906039
1763249766.747300,-0.217002,-0.001243,0.055587,0.974586,-0.006275,-0.071014,0.015524,-0.017344,0.042799,0.006314,0.021701,0.423113,-0.905817
1763249766.782213,-0.216922,-0.002355,0.056173,0.974568,0.005569,-0.053928,0.018774,-0.019402,0.033486,0.004811,0.019779,0.423076,-0.905878
1763249766.812169,-0.216904,-0.003180,0.056663,0.974542,-0.007737,-0.039994,0.015686,-0.018336,0.029726,0.001565,0.018382,0.423125,-0.905885
1763249766.867420,-0.217307,-0.003861,0.057005,0.974430,-0.029387,-0.028612,0.009800,-0.015454,0.024190,0.003451,0.017251,0.423940,-0.905526
1763249766.897307,-0.218019,-0.004142,0.057119,0.974263,-0.039151,-0.000382,-0.001481,-0.011265,0.023591,0.002742,0.016835,0.425289,-0.904901
1763249766.954121,-0.218971,-0.004214,0.056847,0.974065,-0.043252,0.015714,-0.023686,-0.004681,0.024075,0.002381,0.016686,0.427064,-0.904067
1763249766.987244,-0.219891,-0.004141,0.056185,0.973896,-0.038895,0.021891,-0.031748,0.000336,0.017086,0.001927,0.016643,0.428767,-0.903262
1763249767.028519,-0.220723,-0.003972,0.055426,0.973752,-0.032734,0.023257,-0.027630,0.002294,0.009438,0.003064,0.016731,0.430299,-0.902531
1763249767.057863,-0.221410,-0.003711,0.054832,0.973631,-0.027732,0.024580,-0.018839,0.005061,0.004088,0.004845,0.017055,0.431550,-0.901928
1763249767.113439,-0.222018,-0.003336,0.054449,0.973515,-0.029076,0.023955,-0.008212,0.005333,0.000742,0.004144,0.017682,0.432639,-0.901394
1763249767.143336,-0.222553,-0.002876,0.054340,0.973401,-0.020796,0.024407,0.007625,0.003839,-0.000336,0.001545,0.018589,0.433580,-0.900923
1763249767.173326,-0.223050,-0.002502,0.054316,0.973289,-0.025910,0.006899,0.000791,0.002694,0.003039,-0.003747,0.019360,0.434456,-0.900485
1763249767.232167,-0.223324,-0.002365,0.054445,0.973220,-0.000636,0.000917,0.011999,0.002316,0.001472,-0.002363,0.019714,0.434944,-0.900242
1763249767.262090,-0.223141,-0.002406,0.054757,0.973244,0.021507,-0.011237,0.013033,0.001873,0.003163,-0.001410,0.019753,0.434604,-0.900405
1763249767.293775,-0.222342,-0.002492,0.055089,0.973408,0.057430,-0.009702,0.015633,0.000831,-0.000273,0.001151,0.019646,0.433133,-0.901116
1763249767.294006,-0.221542,-0.002578,0.055421,0.973571,0.093354,-0.008166,0.018232,-0.000211,-0.003708,0.003710,0.019537,0.431660,-0.901825
1763249767.347056,-0.219662,-0.002612,0.055692,0.973982,0.083489,-0.020130,0.009264,-0.003520,-0.005542,0.005008,0.019378,0.428184,-0.903484
1763249767.388367,-0.218306,-0.002770,0.056065,0.974265,0.042453,-0.015288,0.019359,-0.004505,-0.007313,0.008006,0.019080,0.425685,-0.904670
1763249767.420947,-0.218058,-0.002975,0.056501,0.974294,-0.020176,-0.020223,0.016979,-0.007364,-0.001878,0.002064,0.018845,0.425241,-0.904884
1763249767.476029,-0.218924,-0.003377,0.057078,0.974065,-0.071387,-0.024235,0.026128,-0.006946,-0.001592,-0.000868,0.018412,0.426878,-0.904122
1763249767.505995,-0.220805,-0.004011,0.057858,0.973592,-0.117982,-0.047853,0.034491,-0.007540,-0.001781,-0.004900,0.017740,0.430412,-0.902458
1763249767.558517,-0.222981,-0.005074,0.058919,0.973027,-0.098942,-0.055765,0.048071,-0.002208,-0.002804,0.000901,0.016402,0.434531,-0.900507
1763249767.591318,-0.224682,-0.006069,0.059971,0.972566,-0.090687,-0.054942,0.024733,-0.002585,0.005986,-0.002550,0.015144,0.437764,-0.898962
1763249767.621052,-0.226113,-0.007168,0.060400,0.972200,-0.059244,-0.041750,-0.000333,-0.001447,0.007463,0.000375,0.013377,0.440520,-0.897643
1763249767.659244,-0.226807,-0.007919,0.060417,0.972032,-0.014640,-0.022599,-0.013106,-0.004402,0.009274,0.003538,0.012012,0.441885,-0.896991
1763249767.717274,-0.226967,-0.008452,0.060126,0.972008,0.000528,-0.011826,-0.024119,-0.004520,0.007347,0.005779,0.010863,0.442243,-0.896830
1763249767.747159,-0.226449,-0.008391,0.059713,0.972155,0.062850,0.018802,-0.016198,-0.005047,0.000276,0.006347,0.010730,0.441288,-0.897301
1763249767.778864,-0.224158,-0.007917,0.059333,0.972713,0.191702,0.028772,-0.005399,-0.003048,-0.010985,0.008554,0.011199,0.437023,-0.899381
1763249767.833513,-0.219502,-0.006648,0.059234,0.973789,0.253246,0.049523,0.001866,-0.004420,0.013797,-0.000689,0.013057,0.428286,-0.903549
1763249767.863402,-0.215277,-0.005687,0.059008,0.974752,0.175471,0.027595,-0.002874,-0.005053,0.013602,-0.003156,0.014319,0.420355,-0.907247
1763249767.921078,-0.212737,-0.005189,0.059038,0.975310,0.092592,0.016154,0.008911,-0.001945,0.005373,-0.000900,0.014998,0.415583,-0.909432
1763249767.952263,-0.211469,-0.004900,0.059183,0.975579,0.053423,0.007186,0.007649,-0.002096,0.003170,-0.000558,0.015470,0.413190,-0.910514
1763249767.983536,-0.210783,-0.004811,0.059215,0.975726,0.017738,-0.000385,-0.006090,-0.004147,0.003588,-0.000244,0.015575,0.411902,-0.911095
1763249768.038293,-0.210751,-0.004925,0.058970,0.975747,-0.007771,0.003263,-0.018080,-0.001226,-0.000536,0.004515,0.015246,0.411859,-0.911120
1763249768.068372,-0.211112,-0.004970,0.058607,0.975691,-0.025599,0.005069,-0.018340,-0.001390,-0.000481,0.003203,0.015047,0.412542,-0.910814
1763249768.099412,-0.211699,-0.004957,0.058267,0.975584,-0.020135,0.014173,-0.011306,0.000980,-0.002251,0.002779,0.014998,0.413638,-0.910318
1763249768.141076,-0.212100,-0.004757,0.058120,0.975506,-0.012184,0.002315,-0.003596,-0.001016,0.001908,-0.002054,0.015373,0.414363,-0.909982
1763249768.198027,-0.212104,-0.004853,0.058069,0.975508,0.020388,0.002530,-0.006378,0.000590,0.004928,0.002451,0.015164,0.414381,-0.909977
1763249768.228459,-0.211169,-0.004701,0.057819,0.975727,0.065191,0.009831,-0.019416,-0.001604,0.008937,0.001382,0.015245,0.412630,-0.910771
1763249768.258037,-0.209519,-0.004318,0.057320,0.976113,0.091418,0.016333,-0.028150,-0.004438,0.011762,-0.003919,0.015589,0.409525,-0.912166
1763249768.313933,-0.207671,-0.003933,0.056637,0.976550,0.089215,0.022800,-0.031132,-0.005430,0.008807,0.001031,0.015842,0.406047,-0.913715
1763249768.343578,-0.206234,-0.003458,0.055928,0.976897,0.055817,0.033808,-0.028168,-0.002074,0.005201,0.005531,0.016312,0.403325,-0.914911
1763249768.400098,-0.205617,-0.002893,0.055314,0.977064,0.015011,0.027099,-0.015859,-0.003323,-0.000841,0.000781,0.017093,0.402123,-0.915426
1763249768.430997,-0.205758,-0.002611,0.055085,0.977048,-0.025041,0.006149,-0.004267,-0.001335,0.001443,-0.001604,0.017567,0.402358,-0.915314
1763249768.490700,-0.206369,-0.002609,0.055031,0.976922,-0.020647,-0.000900,0.000791,0.000425,-0.001391,0.000314,0.017617,0.403500,-0.914810
1763249768.516226,-0.206476,-0.002781,0.055057,0.976897,0.000947,-0.020586,-0.004192,-0.001516,0.005328,-0.003488,0.017302,0.403718,-0.914720
1763249768.546038,-0.206217,-0.003266,0.055051,0.976951,0.014260,-0.027804,-0.006309,-0.002152,0.005715,-0.002283,0.016324,0.403287,-0.914928
1763249768.586007,-0.205884,-0.003851,0.055057,0.977019,0.009571,-0.030122,-0.009016,-0.001597,0.006601,-0.001644,0.015146,0.402729,-0.915194
1763249768.638745,-0.205750,-0.004411,0.055063,0.977044,-0.006420,-0.021223,-0.009916,-0.000483,0.006495,-0.001102,0.014038,0.402539,-0.915295
1763249768.668855,-0.206172,-0.004952,0.054987,0.976957,-0.028189,-0.018824,-0.009496,-0.001070,0.000851,0.003399,0.012998,0.403387,-0.914937
1763249768.724831,-0.206986,-0.005420,0.054845,0.976790,-0.057423,-0.020898,-0.013379,-0.002446,0.000590,0.003234,0.012116,0.404958,-0.914255
1763249768.754829,-0.208337,-0.006005,0.054564,0.976515,-0.075388,-0.017212,-0.020302,-0.002179,-0.000464,0.004306,0.011008,0.407544,-0.913119
1763249768.786262,-0.210063,-0.006614,0.054178,0.976163,-0.098701,-0.019630,-0.026287,-0.003000,0.001390,0.003415,0.009848,0.410828,-0.911660
1763249768.841652,-0.212240,-0.007255,0.053630,0.975718,-0.117435,-0.016668,-0.035521,-0.002519,0.002546,0.003665,0.008608,0.414950,-0.909803
1763249768.874352,-0.214328,-0.007751,0.053035,0.975290,-0.101140,-0.010582,-0.026205,-0.003213,0.000776,0.000034,0.007615,0.418887,-0.908007
1763249768.925966,-0.216327,-0.008154,0.052590,0.974870,-0.097119,-0.004498,-0.020239,-0.000410,-0.000333,0.000549,0.006854,0.422638,-0.906273
1763249768.955963,-0.217881,-0.008266,0.052360,0.974535,-0.063025,0.007836,-0.004809,-0.001874,0.000481,0.000364,0.006705,0.425531,-0.904919
1763249768.987909,-0.219065,-0.008275,0.052282,0.974273,-0.053027,-0.001199,0.001874,-0.003138,-0.000235,-0.002229,0.006782,0.427723,-0.903884
1763249769.041028,-0.219909,-0.008309,0.052314,0.974081,-0.031995,0.003169,0.002275,-0.000940,0.000433,-0.001020,0.006822,0.429289,-0.903142
1763249769.067759,-0.220469,-0.008180,0.052336,0.973955,-0.022911,0.003352,0.008231,-0.002843,0.000350,-0.000922,0.007142,0.430309,-0.902653
1763249769.120656,-0.220860,-0.008150,0.052557,0.973854,-0.015392,-0.001529,0.013280,-0.001159,0.002157,0.000847,0.007342,0.431028,-0.902309
1763249769.150599,-0.221083,-0.008043,0.052851,0.973789,-0.010084,0.005293,0.013471,-0.002025,0.002148,0.002535,0.007705,0.431426,-0.902115
1763249769.205936,-0.221269,-0.007823,0.053053,0.973737,-0.009011,0.005701,0.010383,-0.003331,0.002336,0.001477,0.008242,0.431745,-0.901958
1763249769.253578,-0.221400,-0.007660,0.053160,0.973703,-0.004061,0.004043,0.005831,-0.002562,0.002741,-0.001084,0.008623,0.431971,-0.901846
1763249769.283111,-0.221522,-0.007606,0.053155,0.973676,-0.004880,0.000788,-0.003282,-0.002872,0.001014,0.001126,0.008739,0.432190,-0.901740
1763249769.315876,-0.221589,-0.007513,0.053138,0.973662,-0.002374,0.005288,0.002285,-0.003393,-0.000101,0.002290,0.008919,0.432305,-0.901683
1763249769.370767,-0.221650,-0.007411,0.053208,0.973645,-0.003051,0.002675,0.007180,-0.002376,-0.000535,-0.000219,0.009156,0.432406,-0.901632
1763249769.398151,-0.221687,-0.007349,0.053418,0.973626,0.000622,0.002215,0.013021,-0.002535,0.000851,-0.000330,0.009374,0.432465,-0.901602
1763249769.434564,-0.221595,-0.007192,0.053661,0.973635,0.005232,0.006583,0.008502,-0.002390,0.003425,0.000542,0.009778,0.432277,-0.901688
1763249769.472696,-0.221433,-0.007045,0.053736,0.973669,0.006774,0.003520,0.001291,-0.001747,0.003748,-0.000864,0.010079,0.431961,-0.901836
1763249769.531436,-0.221238,-0.006993,0.053696,0.973715,0.006665,-0.002798,-0.005374,-0.001778,0.002693,-0.000111,0.010140,0.431596,-0.902010
1763249769.561369,-0.221118,-0.007114,0.053570,0.973749,0.002781,-0.006808,-0.007439,-0.001982,0.001282,0.001199,0.009836,0.431388,-0.902113
1763249769.596887,-0.221062,-0.007145,0.053464,0.973767,0.001143,0.000416,-0.004226,-0.002203,0.001912,0.002543,0.009723,0.431289,-0.902161
1763249769.651356,-0.221115,-0.007161,0.053378,0.973760,-0.005665,-0.006105,-0.003992,-0.002249,0.001032,0.000924,0.009660,0.431390,-0.902114
1763249769.682544,-0.221203,-0.007251,0.053370,0.973739,-0.005924,-0.005253,0.001761,-0.001683,0.001510,0.000863,0.009489,0.431562,-0.902034
1763249769.724800,-0.221289,-0.007327,0.053412,0.973717,-0.004130,-0.003344,-0.000040,-0.002155,0.003527,0.000849,0.009370,0.431729,-0.901955
1763249769.754796,-0.221331,-0.007327,0.053452,0.973705,-0.003466,-0.003798,-0.001521,-0.003160,0.003281,-0.001485,0.009393,0.431806,-0.901918
1763249769.810946,-0.221341,-0.007406,0.053450,0.973702,0.003701,-0.002635,-0.002078,-0.001544,0.003841,0.001521,0.009240,0.431833,-0.901906
1763249769.840837,-0.221195,-0.007493,0.053379,0.973739,0.006177,-0.009388,-0.004927,-0.002825,0.003423,-0.000301,0.009021,0.431571,-0.902034
1763249769.870921,-0.220974,-0.007593,0.053247,0.973795,0.008107,-0.007846,-0.009076,-0.002591,0.002473,0.001097,0.008745,0.431176,-0.902225
1763249769.927888,-0.220807,-0.007615,0.053026,0.973845,0.001901,-0.000440,-0.010580,-0.003432,0.003941,-0.000409,0.008585,0.430872,-0.902372
1763249769.957913,-0.220712,-0.007651,0.052891,0.973874,0.010570,0.002181,0.000071,-0.002351,-0.000280,0.002111,0.008445,0.430700,-0.902456
1763249770.012532,-0.220545,-0.007649,0.052878,0.973912,0.004479,0.001087,-0.000195,-0.003139,0.003669,0.002288,0.008426,0.430392,-0.902603
1763249770.044646,-0.220524,-0.007585,0.052887,0.973917,-0.001007,-0.001470,-0.000575,-0.004885,0.001835,0.000297,0.008552,0.430346,-0.902623
1763249770.074753,-0.220500,-0.007586,0.052863,0.973924,0.002585,0.002526,-0.002704,-0.003391,0.002954,0.002194,0.008537,0.430303,-0.902644
1763249770.165985,-0.220437,-0.007569,0.052777,0.973943,0.005934,0.005926,-0.001933,-0.002438,0.002497,0.002752,0.008525,0.430185,-0.902700
1763249770.166192,-0.220374,-0.007552,0.052691,0.973962,0.009283,0.009326,-0.001162,-0.001486,0.002040,0.003310,0.008513,0.430068,-0.902757
1763249770.205957,-0.220263,-0.007495,0.052650,0.973990,0.006981,0.004311,0.000852,-0.003159,0.002235,0.000911,0.008594,0.429857,-0.902856
1763249770.237788,-0.220116,-0.007412,0.052703,0.974021,0.009301,0.003734,0.004769,-0.003443,0.003860,0.000509,0.008764,0.429577,-0.902988
1763249770.291077,-0.219955,-0.007255,0.052825,0.974052,0.009354,0.010204,0.006741,-0.004104,0.015498,0.002276,0.009105,0.429262,-0.903134
1763249770.320374,-0.219811,-0.006875,0.052954,0.974080,0.000537,0.021090,0.013942,-0.006337,0.042582,-0.000360,0.009885,0.428955,-0.903272
1763249770.377804,-0.220044,-0.006460,0.053113,0.974021,-0.008989,0.033153,0.010326,-0.008374,0.090952,-0.001118,0.010791,0.429342,-0.903078
1763249770.407896,-0.219951,-0.005844,0.053093,0.974048,0.042292,0.032950,0.001924,-0.010818,0.143177,-0.014102,0.011971,0.429106,-0.903175
1763249770.437813,-0.217869,-0.005158,0.052772,0.974537,0.191701,0.038405,-0.017751,-0.012852,0.182310,-0.007229,0.012942,0.425186,-0.905013
1763249770.474694,-0.212607,-0.004516,0.052174,0.975733,0.345768,0.021057,-0.033807,-0.012631,0.186534,0.003260,0.013372,0.415368,-0.909555
1763249770.529209,-0.204621,-0.003938,0.051340,0.977486,0.462285,0.029076,-0.044299,-0.007114,0.155695,0.032018,0.013312,0.400433,-0.916230
1763249770.561074,-0.194745,-0.002741,0.050538,0.979547,0.541260,0.060167,-0.018603,-0.004813,0.108052,0.051895,0.014314,0.381800,-0.924134
1763249770.622480,-0.183799,-0.000706,0.050540,0.981663,0.577740,0.091962,0.047109,-0.006024,0.074896,0.058045,0.017192,0.360930,-0.932435
1763249770.653607,-0.172894,0.001979,0.051610,0.983585,0.548932,0.106143,0.096010,-0.004900,0.067296,0.052915,0.021739,0.339908,-0.940207
1763249770.764078,-0.137591,0.012494,0.057799,0.988722,0.437337,0.067197,0.066595,-0.009929,0.073091,0.023757,0.040612,0.270635,-0.961825
1763249770.817294,-0.130035,0.013883,0.058166,0.989704,0.356624,0.028794,-0.008060,-0.004910,0.056653,0.045354,0.042607,0.255777,-0.965796
1763249770.847204,-0.122395,0.015223,0.057758,0.990682,0.430691,0.072100,0.006853,-0.003877,0.039621,0.054470,0.044301,0.240750,-0.969576
1763249770.877138,-0.114242,0.017140,0.057689,0.991628,0.381797,0.074577,0.018711,-0.008639,0.049967,0.047242,0.047174,0.224593,-0.973310
1763249770.933344,-0.107486,0.018988,0.058169,0.992322,0.347522,0.074793,0.062241,-0.012105,0.030576,0.048603,0.050189,0.211113,-0.976172
1763249770.963481,-0.100481,0.020478,0.059333,0.992957,0.390599,0.072517,0.067534,-0.003294,0.013279,0.073868,0.052591,0.197116,-0.978969
1763249771.043592,-0.094825,0.023026,0.060755,0.993371,0.225173,0.075478,0.050550,-0.003184,0.020479,0.061995,0.057268,0.185595,-0.980956
1763249771.043838,-0.089166,0.025572,0.062175,0.993745,0.059748,0.078439,0.033566,-0.003041,0.027716,0.049970,0.061912,0.174036,-0.982791
1763249771.097959,-0.090073,0.027048,0.061924,0.993640,-0.114031,0.063191,-0.032624,-0.004658,-0.032777,0.054735,0.064906,0.175650,-0.982311
1763249771.131064,-0.092994,0.028793,0.060599,0.993404,-0.153150,0.148655,-0.093614,0.011632,-0.065335,0.046656,0.068476,0.181271,-0.981046
1763249771.160953,-0.096877,0.031147,0.057853,0.993125,-0.198200,0.130823,-0.162835,0.003498,-0.089869,-0.011090,0.073075,0.188818,-0.979289
1763249771.214194,-0.100762,0.032808,0.054224,0.992890,-0.152132,0.072593,-0.187284,-0.001499,-0.136986,-0.061889,0.076077,0.196532,-0.977541
1763249771.252182,-0.102398,0.033077,0.050685,0.992901,0.000080,-0.011279,-0.163613,0.003740,-0.182103,-0.103592,0.076064,0.199989,-0.976841
1763249771.282149,-0.100154,0.032525,0.047683,0.993296,0.233988,-0.003299,-0.136182,0.015863,-0.201559,-0.092035,0.074166,0.195863,-0.977823
1763249771.339750,-0.092925,0.033266,0.045182,0.994091,0.494732,0.067598,-0.087576,0.020751,-0.209094,-0.074116,0.074535,0.181745,-0.980517
1763249771.369798,-0.080758,0.035525,0.043745,0.995139,0.710334,0.103546,0.010160,0.009077,-0.194508,-0.046645,0.077770,0.157624,-0.984432
1763249771.422536,-0.065814,0.038480,0.044055,0.996116,0.762282,0.113702,0.083014,-0.000651,-0.138732,-0.010718,0.082459,0.127727,-0.988376
1763249771.454174,-0.050997,0.041926,0.045361,0.996787,0.702733,0.146997,0.106826,0.003596,-0.094461,0.005628,0.088210,0.097862,-0.991283
1763249771.495923,-0.037752,0.045855,0.046534,0.997149,0.632801,0.179812,0.076111,0.009198,-0.072760,0.016842,0.094963,0.071022,-0.992944
1763249771.525836,-0.025472,0.050464,0.047107,0.997289,0.602836,0.222330,0.059537,0.007894,-0.064663,0.012995,0.103054,0.046051,-0.993609
1763249771.588444,-0.014777,0.055479,0.047642,0.997213,0.453639,0.200149,0.060413,0.000676,-0.026739,-0.016098,0.112057,0.024186,-0.993407
1763249771.617748,-0.008256,0.058868,0.048190,0.997068,0.208172,0.108564,0.033456,-0.002302,-0.002001,-0.024402,0.118187,0.010790,-0.992933
1763249771.650783,-0.006188,0.060170,0.048623,0.996984,0.013200,0.010603,0.017398,-0.005646,0.000522,-0.016965,0.120579,0.006487,-0.992682
1763249771.704616,-0.007349,0.059377,0.049107,0.997000,-0.130352,-0.084423,0.015913,-0.009655,0.003429,-0.010749,0.119119,0.008823,-0.992841
1763249771.734105,-0.011419,0.056844,0.049557,0.997087,-0.282412,-0.136263,0.001905,-0.008199,0.012006,-0.003393,0.114489,0.017138,-0.993277
1763249771.764595,-0.018149,0.053520,0.049897,0.997154,-0.395684,-0.161697,-0.001668,-0.009283,0.007736,0.000485,0.108547,0.030854,-0.993612
1763249771.819594,-0.026209,0.050010,0.050483,0.997128,-0.416615,-0.147073,0.014422,-0.006235,0.000742,0.002061,0.102378,0.047218,-0.993624
1763249771.849557,-0.034053,0.046828,0.051376,0.996999,-0.382018,-0.128703,0.030366,-0.005689,0.007180,0.001901,0.096874,0.063090,-0.993295
1763249771.904282,-0.040878,0.044161,0.052392,0.996812,-0.310926,-0.101503,0.033232,-0.004782,0.014566,0.003787,0.092324,0.076869,-0.992757
1763249771.936868,-0.046068,0.042141,0.053152,0.996633,-0.217619,-0.064920,0.014719,-0.002532,0.014570,0.009091,0.088895,0.087346,-0.992204
1763249771.965442,-0.049514,0.041020,0.053293,0.996507,-0.137599,-0.023939,-0.017517,-0.003574,0.015929,0.009492,0.087032,0.094311,-0.991731
1763249772.019566,-0.051950,0.040582,0.052789,0.996427,-0.111223,-0.005515,-0.044014,-0.005610,0.018562,0.003328,0.086359,0.099244,-0.991309
1763249772.062971,-0.054245,0.040347,0.051969,0.996358,-0.110784,-0.004955,-0.046576,-0.002620,0.012902,-0.000228,0.086038,0.103902,-0.990859
1763249772.090625,-0.056524,0.040082,0.051227,0.996280,-0.106488,-0.010647,-0.033581,-0.001729,0.009659,-0.003086,0.085658,0.108522,-0.990397
1763249772.145888,-0.058604,0.039530,0.050757,0.996206,-0.092757,-0.028768,-0.018693,-0.001214,0.008013,-0.003594,0.084709,0.112750,-0.990006
1763249772.175888,-0.060190,0.038796,0.050690,0.996144,-0.064684,-0.033019,0.002881,-0.001030,0.004188,-0.000113,0.083395,0.115982,-0.989744
1763249772.205892,-0.061188,0.038101,0.051024,0.996093,-0.045327,-0.033821,0.020562,-0.001780,0.004984,-0.001118,0.082148,0.118011,-0.989609
1763249772.267388,-0.061933,0.037327,0.051521,0.996050,-0.037083,-0.040642,0.017929,-0.002274,0.006190,-0.001308,0.080741,0.119530,-0.989542
1763249772.297210,-0.062545,0.036738,0.051883,0.996015,-0.033481,-0.021485,0.010490,-0.003344,0.010175,0.000296,0.079673,0.120780,-0.989477
1763249772.327132,-0.063331,0.036199,0.051983,0.995980,-0.042111,-0.025418,-0.002532,-0.004451,0.010670,-0.000346,0.078691,0.122390,-0.989358
1763249772.364656,-0.064155,0.035601,0.051859,0.995956,-0.040178,-0.024981,-0.010232,-0.004073,0.009240,0.000061,0.077569,0.124098,-0.989233
1763249772.421977,-0.064911,0.034819,0.051646,0.995945,-0.031450,-0.045055,-0.012097,-0.005242,0.006238,-0.002834,0.076061,0.125699,-0.989148
1763249772.450939,-0.065349,0.033707,0.051669,0.995954,-0.014263,-0.048767,0.011447,-0.002820,0.001356,-0.000901,0.073894,0.126686,-0.989187
1763249772.504765,-0.065418,0.032719,0.052229,0.995953,0.002796,-0.050808,0.035248,-0.003307,0.002244,-0.002610,0.072006,0.126888,-0.989300
1763249772.534998,-0.065110,0.031713,0.053157,0.995956,0.016671,-0.047885,0.049590,-0.002129,0.002300,-0.000461,0.070092,0.126323,-0.989510
1763249772.567130,-0.064575,0.030870,0.054361,0.995953,0.024732,-0.048957,0.059671,-0.001779,0.001780,-0.000509,0.068511,0.125271,-0.989754
1763249772.625080,-0.063957,0.029989,0.055736,0.995944,0.023897,-0.048975,0.065579,-0.001420,0.003432,-0.000113,0.066864,0.124051,-0.990020
1763249772.654801,-0.063426,0.029108,0.057173,0.995922,0.022048,-0.045078,0.064863,-0.001424,0.004340,0.000500,0.065231,0.123007,-0.990260
1763249772.711995,-0.062909,0.028316,0.058554,0.995898,0.024082,-0.043336,0.062143,-0.001789,0.003323,0.000761,0.063767,0.121986,-0.990481
1763249772.792067,-0.062322,0.027636,0.059693,0.995886,0.024049,-0.038809,0.052587,-0.002626,0.002925,0.000932,0.062485,0.120831,-0.990705
1763249772.792318,-0.061734,0.026956,0.060831,0.995872,0.024016,-0.034283,0.043031,-0.003460,0.002524,0.001099,0.061200,0.119679,-0.990925
1763249772.822176,-0.061280,0.026356,0.061625,0.995868,0.017550,-0.027668,0.031959,-0.003664,0.002426,0.001140,0.060047,0.118805,-0.991100
1763249772.852288,-0.061025,0.025929,0.062145,0.995862,0.004684,-0.016716,0.017935,-0.003086,0.005331,0.001430,0.059227,0.118322,-0.991207
1763249772.907173,-0.061045,0.025712,0.062373,0.995852,-0.006112,-0.012134,0.000912,-0.003126,0.003835,0.000602,0.058825,0.118375,-0.991225
1763249772.936558,-0.061149,0.025525,0.062350,0.995852,-0.005763,-0.007771,-0.006138,-0.004082,0.001522,0.000115,0.058464,0.118608,-0.991218
1763249772.968527,-0.061282,0.025450,0.062130,0.995860,-0.007886,-0.003083,-0.013982,-0.005717,0.002071,-0.001401,0.058305,0.118894,-0.991194
1763249773.031804,-0.061447,0.025223,0.061712,0.995881,-0.003952,-0.009951,-0.023503,-0.003774,0.000337,-0.000531,0.057823,0.119275,-0.991176
1763249773.062311,-0.061528,0.025130,0.061219,0.995909,-0.004879,-0.010310,-0.025803,-0.005506,0.003377,-0.002170,0.057587,0.119476,-0.991166
1763249773.093412,-0.061735,0.024774,0.060711,0.995936,-0.012051,-0.020119,-0.023859,-0.004218,0.002663,0.000243,0.056843,0.119961,-0.991150
1763249773.148319,-0.062015,0.024411,0.060296,0.995953,-0.017552,-0.015561,-0.021123,-0.003521,0.003635,0.000790,0.056103,0.120583,-0.991117
1763249773.183558,-0.062274,0.024073,0.060010,0.995962,-0.011266,-0.019045,-0.010259,-0.005097,0.003318,-0.001778,0.055425,0.121155,-0.991085
1763249773.211754,-0.062489,0.023758,0.059977,0.995959,-0.009205,-0.011588,0.002325,-0.003533,0.002332,-0.001256,0.054821,0.121622,-0.991061
1763249773.268920,-0.062685,0.023654,0.060071,0.995943,-0.012151,-0.008580,0.004384,-0.004664,0.003607,-0.002938,0.054646,0.122019,-0.991022
1763249773.296641,-0.062794,0.023621,0.060208,0.995929,-0.004369,-0.003807,0.002460,-0.003841,0.001768,-0.001004,0.054611,0.122232,-0.990998
1763249773.378049,-0.062947,0.023620,0.060172,0.995921,-0.010601,-0.002509,-0.000773,-0.003410,0.001555,-0.001304,0.054622,0.122538,-0.990960
1763249773.378282,-0.063100,0.023619,0.060136,0.995914,-0.016833,-0.001211,-0.004007,-0.002980,0.001342,-0.001604,0.054633,0.122844,-0.990921
1763249773.432508,-0.063466,0.023621,0.060074,0.995894,-0.019446,0.001971,-0.004004,-0.001840,0.001106,-0.000371,0.054674,0.123573,-0.990828
1763249773.492626,-0.063796,0.023700,0.060020,0.995874,-0.014788,0.002448,-0.004213,-0.001624,0.002263,-0.000217,0.054862,0.124221,-0.990737
1763249773.492859,-0.064127,0.023778,0.059966,0.995855,-0.010130,0.002926,-0.004421,-0.001407,0.003419,-0.000063,0.055050,0.124870,-0.990645
1763249773.549559,-0.064335,0.023825,0.059914,0.995843,-0.004631,0.004430,-0.003246,-0.001671,0.002657,0.000091,0.055160,0.125280,-0.990587
1763249773.593480,-0.064450,0.023846,0.059894,0.995836,-0.003073,-0.001163,0.001286,-0.001489,0.003012,-0.001375,0.055213,0.125506,-0.990555
1763249773.623353,-0.064557,0.023775,0.059938,0.995829,-0.006942,-0.002363,0.003337,-0.001993,0.003431,-0.000324,0.055091,0.125726,-0.990534
1763249773.653448,-0.064711,0.023573,0.060051,0.995817,-0.009980,-0.008313,0.007400,-0.001826,0.004664,-0.000098,0.054720,0.126050,-0.990514
1763249773.708449,-0.064864,0.023335,0.060201,0.995803,-0.006528,-0.015640,0.007332,-0.003079,0.004127,-0.001204,0.054283,0.126373,-0.990496
1763249773.738365,-0.064875,0.022974,0.060373,0.995800,0.000264,-0.019037,0.005545,-0.003530,0.006397,-0.001199,0.053588,0.126431,-0.990527
1763249773.791184,-0.064822,0.022511,0.060445,0.995810,0.003346,-0.031572,-0.004003,-0.003920,0.005581,-0.001553,0.052671,0.126380,-0.990583
1763249773.821767,-0.064654,0.022020,0.060359,0.995837,0.009008,-0.015591,-0.006025,-0.002441,0.004869,0.002789,0.051662,0.126112,-0.990670
1763249773.879593,-0.064487,0.021738,0.060233,0.995862,0.004928,-0.013285,-0.006563,-0.003198,0.004710,0.001142,0.051065,0.125821,-0.990738
1763249773.911135,-0.064377,0.021495,0.060062,0.995884,0.002311,-0.011966,-0.013075,-0.002780,0.005362,0.001850,0.050546,0.125643,-0.990787
1763249773.956898,-0.064355,0.021176,0.059780,0.995910,-0.000158,-0.019750,-0.016450,-0.004188,0.004586,-0.000861,0.049874,0.125652,-0.990820
1763249773.987133,-0.064354,0.020697,0.059500,0.995937,0.000589,-0.018988,-0.009716,-0.002711,0.001620,0.000360,0.048883,0.125723,-0.990860
1763249774.017286,-0.064303,0.020399,0.059422,0.995951,0.001570,-0.013725,-0.001368,-0.004465,0.002244,-0.001251,0.048276,0.125661,-0.990898
1763249774.082534,-0.064177,0.020193,0.059442,0.995962,0.009393,-0.005621,0.001860,-0.004223,0.000838,-0.000028,0.047853,0.125435,-0.990947
1763249774.105047,-0.063964,0.020143,0.059500,0.995973,0.009084,0.000910,0.000527,-0.003236,0.001599,0.000195,0.047736,0.125016,-0.991006
1763249774.158506,-0.063801,0.020143,0.059539,0.995981,0.006533,0.000484,0.004193,-0.002535,0.000571,-0.000170,0.047722,0.124690,-0.991048
1763249774.188349,-0.063771,0.020168,0.059628,0.995977,-0.002977,0.002150,0.005812,-0.002362,0.000654,0.000141,0.047779,0.124623,-0.991053
1763249774.218383,-0.063904,0.020209,0.059790,0.995958,-0.013730,-0.001596,0.009531,-0.003094,0.000886,-0.000086,0.047896,0.124875,-0.991016
1763249774.257121,-0.064127,0.020267,0.059988,0.995931,-0.014278,0.001890,0.008325,-0.003403,0.003278,0.000172,0.048063,0.125300,-0.990954
1763249774.312233,-0.064391,0.020348,0.060148,0.995903,-0.014185,0.001389,0.006153,-0.003198,0.004246,-0.001569,0.048274,0.125808,-0.990879
1763249774.341568,-0.064696,0.020397,0.060254,0.995875,-0.013742,0.000420,0.006230,-0.002305,0.003022,-0.000474,0.048422,0.126400,-0.990797
1763249774.392391,-0.064916,0.020414,0.060373,0.995854,-0.009974,0.000353,0.004807,-0.002964,0.003167,-0.000835,0.048497,0.126829,-0.990738
1763249774.427808,-0.065059,0.020392,0.060462,0.995839,-0.003178,0.000302,0.005213,-0.003446,0.002681,0.000414,0.048482,0.127110,-0.990703
1763249774.462295,-0.065133,0.020379,0.060556,0.995829,-0.003764,0.001074,0.004049,-0.003671,0.004764,0.001209,0.048477,0.127254,-0.990685
1763249774.517155,-0.065258,0.020416,0.060597,0.995818,-0.004169,0.003121,-0.001678,-0.003553,0.005152,0.001929,0.048570,0.127496,-0.990649
1763249774.547085,-0.065360,0.020431,0.060521,0.995815,-0.001699,0.000243,-0.003177,-0.003794,0.003397,0.000600,0.048603,0.127700,-0.990621
1763249774.602498,-0.065408,0.020432,0.060406,0.995819,-0.001307,0.000777,-0.003741,-0.004721,0.003356,0.000196,0.048595,0.127800,-0.990609
1763249774.634607,-0.065432,0.020336,0.060226,0.995830,0.001041,-0.009041,-0.010687,-0.004862,0.002066,-0.001219,0.048384,0.127869,-0.990610
1763249774.702878,-0.065557,0.020221,0.059888,0.995845,-0.007289,-0.011006,-0.017351,-0.003906,0.002919,-0.000437,0.048125,0.128148,-0.990587
1763249774.703111,-0.065682,0.020105,0.059550,0.995859,-0.015619,-0.012971,-0.024015,-0.002949,0.003771,0.000346,0.047866,0.128426,-0.990563
1763249774.756037,-0.065984,0.019946,0.059098,0.995869,-0.018099,-0.007282,-0.024477,-0.002869,0.003118,0.000743,0.047526,0.129064,-0.990497
1763249774.785898,-0.066301,0.019809,0.058763,0.995871,-0.012393,-0.006389,-0.010347,-0.003670,0.000822,-0.000570,0.047247,0.129727,-0.990424
1763249774.843352,-0.066508,0.019663,0.058698,0.995864,-0.007692,0.001804,0.002865,-0.003707,0.001771,0.000470,0.046971,0.130158,-0.990380
1763249774.872095,-0.066687,0.019678,0.058845,0.995843,-0.007537,-0.002528,0.005355,-0.004031,0.001608,-0.001989,0.047041,0.130504,-0.990331
1763249774.904597,-0.066736,0.019713,0.059037,0.995828,0.000083,0.004373,0.008943,-0.003110,0.001889,0.000207,0.047142,0.130587,-0.990315
1763249774.994706,-0.066810,0.019840,0.059184,0.995811,-0.003340,0.004864,0.008110,-0.002796,0.001446,0.000247,0.047421,0.130711,-0.990286
1763249774.994910,-0.066883,0.019966,0.059331,0.995795,-0.006764,0.005355,0.007278,-0.002481,0.001002,0.000286,0.047700,0.130835,-0.990256
1763249775.039566,-0.067113,0.020064,0.059448,0.995771,-0.010313,0.004831,0.007310,-0.002354,0.000823,0.000302,0.047937,0.131273,-0.990187
1763249775.069504,-0.067402,0.020163,0.059611,0.995739,-0.014025,0.003004,0.005277,-0.002020,0.001703,0.000218,0.048189,0.131826,-0.990101
1763249775.124490,-0.067694,0.020200,0.059724,0.995712,-0.015835,-0.001259,0.003023,-0.001537,0.002606,-0.000308,0.048312,0.132394,-0.990019
1763249775.154497,-0.068004,0.020148,0.059769,0.995689,-0.016579,-0.003011,0.002096,-0.001149,0.002614,-0.000126,0.048251,0.133013,-0.989939
1763249775.184434,-0.068378,0.020014,0.059793,0.995665,-0.019443,-0.007134,0.001460,-0.000734,0.001854,-0.000051,0.048031,0.133769,-0.989848
1763249775.239576,-0.068791,0.019795,0.059821,0.995639,-0.022493,-0.011157,-0.000028,-0.001135,0.003460,0.000378,0.047649,0.134614,-0.989752
1763249775.294622,-0.069287,0.019485,0.059868,0.995608,-0.026810,-0.014694,-0.000899,-0.001545,0.004052,-0.001020,0.047095,0.135632,-0.989639
1763249775.368255,-0.069886,0.018929,0.059863,0.995577,-0.029698,-0.021527,-0.000569,-0.001752,0.003645,-0.000836,0.046058,0.136887,-0.989515
1763249775.368487,-0.070485,0.018373,0.059858,0.995546,-0.032586,-0.028359,-0.000239,-0.001959,0.003238,-0.000655,0.045021,0.138142,-0.989389
1763249775.397673,-0.071145,0.017662,0.059852,0.995512,-0.036929,-0.033960,-0.002687,-0.002527,0.000822,-0.000792,0.043683,0.139538,-0.989253
1763249775.428199,-0.071814,0.016743,0.059802,0.995483,-0.036767,-0.043970,-0.006849,-0.002391,-0.001740,-0.001629,0.041923,0.140977,-0.989125
1763249775.483361,-0.072614,0.015863,0.059713,0.995445,-0.048285,-0.039719,-0.011252,-0.002591,-0.001272,-0.000436,0.040254,0.142673,-0.988951
1763249775.513250,-0.073697,0.015017,0.059525,0.995389,-0.063352,-0.037138,-0.015590,-0.001666,-0.002381,-0.000012,0.038669,0.144926,-0.988687
1763249775.545720,-0.075084,0.014215,0.059249,0.995314,-0.082689,-0.035377,-0.015531,-0.003721,0.000430,-0.004347,0.037193,0.147780,-0.988321
1763249775.597247,-0.077117,0.013101,0.058782,0.995202,-0.115992,-0.058428,-0.036424,-0.003598,0.001587,-0.010701,0.035142,0.151953,-0.987763
1763249775.627320,-0.079112,0.011700,0.058020,0.995107,-0.087145,-0.055646,-0.046588,-0.000547,-0.004664,-0.002247,0.032466,0.156091,-0.987209
1763249775.682407,-0.080694,0.010503,0.056967,0.995054,-0.075458,-0.049856,-0.068289,-0.001488,-0.003289,-0.003856,0.030097,0.159393,-0.986756
1763249775.714654,-0.081820,0.009321,0.055639,0.995049,-0.034040,-0.055435,-0.071358,-0.002765,-0.023599,-0.003003,0.027655,0.161793,-0.986437
1763249775.769594,-0.082323,0.008231,0.054217,0.995096,-0.041728,-0.040784,-0.083515,0.000666,-0.019178,0.003061,0.025309,0.162946,-0.986310
1763249775.801098,-0.084056,0.007428,0.052431,0.995053,-0.139872,-0.016871,-0.097625,0.002119,-0.010813,0.007767,0.023597,0.166501,-0.985759
1763249775.832294,-0.088041,0.006910,0.050581,0.994808,-0.255784,-0.001443,-0.086951,0.000270,-0.006309,0.010235,0.022655,0.174468,-0.984402
1763249775.894418,-0.094195,0.006500,0.048962,0.994328,-0.356504,0.002778,-0.078378,-0.004530,0.005544,0.010730,0.022151,0.186685,-0.982170
1763249775.924550,-0.101634,0.006145,0.047805,0.993654,-0.382876,0.003842,-0.044571,-0.004458,0.009648,0.004976,0.021928,0.201391,-0.979266
1763249775.956404,-0.109487,0.005669,0.046946,0.992863,-0.395183,-0.017947,-0.041788,-0.011353,0.005640,-0.006529,0.021536,0.216878,-0.975961
1763249776.012557,-0.116546,0.004444,0.046265,0.992097,-0.320719,-0.046109,-0.037503,-0.009646,-0.011532,-0.006827,0.019602,0.230838,-0.972795
1763249776.042239,-0.122580,0.002886,0.045650,0.991404,-0.301161,-0.066144,-0.035237,-0.011861,-0.023126,-0.002182,0.016913,0.242790,-0.969931
1763249776.074042,-0.129133,0.001092,0.045303,0.990591,-0.387295,-0.066346,-0.021550,-0.009173,-0.011167,0.009443,0.013864,0.255736,-0.966647
1763249776.129305,-0.138232,-0.000514,0.044661,0.989392,-0.523982,-0.031649,-0.044085,-0.007255,-0.003120,0.020630,0.011331,0.273577,-0.961783
1763249776.191229,-0.148725,-0.000964,0.044226,0.987889,-0.492288,-0.014680,-0.019106,-0.010772,0.007719,0.010652,0.011251,0.293933,-0.955760
1763249776.191437,-0.159202,-0.001414,0.043785,0.986274,-0.460595,0.002288,0.005874,-0.014270,0.018691,0.000244,0.011152,0.314157,-0.949306
1763249776.247032,-0.167872,-0.001171,0.043645,0.984841,-0.378095,0.045178,-0.003537,-0.010146,0.038859,0.003351,0.012346,0.330757,-0.943635
1763249776.288281,-0.174471,-0.000481,0.043351,0.983707,-0.263433,0.062908,-0.006189,-0.006479,0.033109,0.007832,0.014180,0.343299,-0.939119
1763249776.318310,-0.178812,0.000825,0.042799,0.982952,-0.170851,0.082649,-0.028692,-0.004901,0.039202,0.006901,0.016927,0.351457,-0.936051
1763249776.374120,-0.181600,0.002229,0.041576,0.982491,-0.101529,0.076070,-0.048327,-0.006159,0.026513,0.002753,0.019481,0.356656,-0.934033
1763249776.404527,-0.183343,0.003462,0.040067,0.982226,-0.065147,0.074919,-0.064855,-0.001018,0.026229,0.004007,0.021493,0.359891,-0.932747
1763249776.434499,-0.184450,0.004505,0.038293,0.982085,-0.032759,0.058144,-0.066921,-0.002567,0.011107,-0.003525,0.022975,0.361947,-0.931916
1763249776.491248,-0.184790,0.005201,0.036803,0.982075,-0.007185,0.041403,-0.057391,-0.002983,0.009673,-0.003457,0.023817,0.362572,-0.931651
1763249776.523765,-0.184871,0.005799,0.035578,0.982101,0.004385,0.036924,-0.043483,-0.001105,0.001006,-0.003709,0.024545,0.362712,-0.931578
1763249776.556042,-0.184568,0.006538,0.034656,0.982187,0.026021,0.050652,-0.031397,0.004238,-0.008065,-0.003182,0.025635,0.362107,-0.931784
1763249776.605458,-0.184024,0.007270,0.033901,0.982310,0.028297,0.030571,-0.018666,0.002199,-0.014720,-0.009303,0.026759,0.361045,-0.932164
1763249776.635460,-0.183732,0.007562,0.033567,0.982374,0.004623,0.011833,-0.006100,0.002961,-0.014753,-0.005161,0.027192,0.360479,-0.932371
1763249776.690770,-0.183840,0.007856,0.033450,0.982356,-0.010455,0.028329,-0.002155,0.003769,-0.012396,0.000954,0.027733,0.360666,-0.932283
1763249776.720768,-0.184362,0.008301,0.033205,0.982262,-0.039581,0.023183,-0.010483,0.002335,-0.004436,0.000312,0.028551,0.361632,-0.931884
1763249776.815408,-0.184312,0.008763,0.031580,0.982321,-0.002525,0.006271,-0.062328,-0.001031,0.001578,-0.001972,0.028858,0.361553,-0.931905
1763249776.815619,-0.184261,0.009225,0.029955,0.982377,0.034531,-0.010641,-0.114173,-0.004397,0.007591,-0.004256,0.029165,0.361476,-0.931925
1763249776.845863,-0.182884,0.009704,0.027768,0.982694,0.100971,0.028645,-0.109258,-0.001608,0.003204,0.006302,0.029229,0.358900,-0.932918
1763249776.875721,-0.180392,0.010587,0.026586,0.983178,0.112257,-0.002421,-0.024349,-0.008240,0.017043,-0.001052,0.030409,0.354152,-0.934693
1763249776.930829,-0.178242,0.010641,0.026441,0.983574,0.037747,0.053967,-0.005089,-0.003397,0.019310,0.003391,0.030358,0.350065,-0.936233
1763249776.962479,-0.177861,0.011911,0.027097,0.983610,-0.035399,0.098943,0.088835,-0.002286,0.014204,-0.005073,0.033071,0.349246,-0.936447
1763249776.962727,-0.177479,0.013182,0.027753,0.983645,-0.108544,0.143920,0.182759,-0.001174,0.009102,-0.013544,0.035783,0.348421,-0.936655
1763249777.047005,-0.175613,0.016090,0.027686,0.983938,0.005331,0.098907,0.186359,-0.008842,0.001118,-0.016467,0.041386,0.344695,-0.937802
1763249777.047239,-0.173746,0.018998,0.027617,0.984220,0.119206,0.053895,0.189960,-0.016512,-0.006856,-0.019436,0.046993,0.340958,-0.938903
1763249777.092317,-0.172716,0.020151,0.029463,0.984325,0.316489,0.329583,-0.001662,0.012456,-0.002386,0.076449,0.049847,0.338829,-0.939526
1763249777.126780,-0.166573,0.025923,0.027538,0.985304,0.230703,0.120050,-0.075036,-0.005520,0.005080,-0.016290,0.060258,0.326822,-0.943163
1763249777.179545,-0.162751,0.028039,0.024922,0.985954,0.136240,0.092011,-0.069901,-0.004777,-0.013311,-0.006605,0.063403,0.319533,-0.945452
1763249777.211153,-0.162666,0.028856,0.022445,0.986004,-0.065978,0.038693,-0.106406,-0.018017,0.001935,-0.017798,0.064207,0.319483,-0.945414
1763249777.242236,-0.164133,0.030603,0.019834,0.985764,-0.066105,0.189279,-0.124685,-0.014759,0.008632,0.004237,0.066846,0.322379,-0.944247
1763249777.299076,-0.164936,0.034617,0.017643,0.985539,0.116838,0.102290,0.044779,-0.019086,-0.012556,-0.010911,0.074054,0.323880,-0.943196
1763249777.331083,-0.165372,0.037878,0.018816,0.985324,-0.108877,0.067266,0.171529,-0.017792,-0.002848,-0.010483,0.080868,0.324464,-0.942435
1763249777.415710,-0.166467,0.034603,0.023787,0.985152,-0.015501,-0.135618,0.219213,-0.014355,-0.001412,-0.009000,0.076098,0.326344,-0.942183
1763249777.415904,-0.167556,0.031326,0.028758,0.984945,0.077875,-0.338501,0.266897,-0.010936,-0.000016,-0.007562,0.071346,0.328265,-0.941887
1763249777.445659,-0.165098,0.026409,0.033655,0.985349,0.119951,-0.278368,0.160004,-0.004624,0.001422,0.002544,0.063157,0.323580,-0.944091
1763249777.485789,-0.157092,0.025533,0.035721,0.986607,0.636025,0.012471,0.097642,-0.000181,0.002169,0.011021,0.061606,0.308152,-0.949340
1763249777.541163,-0.143172,0.025192,0.037254,0.988676,0.710260,-0.066458,0.076051,-0.002536,0.012651,-0.000537,0.060480,0.281224,-0.957734
1763249777.572194,-0.132003,0.025417,0.038526,0.990174,0.443715,0.014454,0.079945,-0.001022,0.012130,0.000184,0.060505,0.259453,-0.963859
1763249777.604532,-0.126404,0.025427,0.039792,0.990854,0.144217,-0.046374,0.045073,-0.004840,0.015373,0.000043,0.060449,0.248473,-0.966751
1763249777.691278,-0.127825,0.025743,0.039246,0.990686,-0.025621,0.024680,0.002006,-0.003913,0.009392,-0.005438,0.061039,0.251247,-0.965996
1763249777.691485,-0.129244,0.026059,0.038700,0.990515,-0.195459,0.095734,-0.041062,-0.002984,0.003412,-0.010927,0.061626,0.254020,-0.965234
1763249777.722336,-0.133671,0.027041,0.037338,0.989953,-0.221434,0.032166,-0.079380,0.000277,0.005115,-0.004655,0.063520,0.262637,-0.962802
1763249777.779483,-0.137965,0.027520,0.035898,0.989404,-0.228549,0.050634,-0.058339,0.000686,-0.001746,-0.006699,0.064362,0.271031,-0.960417
1763249777.815086,-0.141799,0.028384,0.035616,0.988847,-0.132298,0.039088,0.003569,-0.004901,-0.003152,-0.003587,0.066236,0.278414,-0.958175
1763249777.847042,-0.143898,0.029057,0.036113,0.988506,-0.083566,0.043639,0.047843,-0.001572,-0.001358,0.002791,0.067840,0.282390,-0.956898
1763249777.885959,-0.145690,0.029197,0.037410,0.988192,-0.077638,-0.000111,0.071474,-0.000899,0.004006,0.004516,0.068605,0.285755,-0.955844
1763249777.940820,-0.148438,0.029133,0.039477,0.987704,-0.204462,-0.028396,0.126685,-0.006809,0.002719,-0.002686,0.069268,0.290926,-0.954235
1763249778.015319,-0.152486,0.028640,0.041946,0.987000,-0.212672,-0.059627,0.147473,-0.009499,0.003195,-0.004143,0.069328,0.298604,-0.951856
1763249778.015522,-0.156529,0.028147,0.044413,0.986273,-0.220881,-0.090859,0.168261,-0.012227,0.003691,-0.005665,0.069426,0.306261,-0.949413
1763249778.047409,-0.158789,0.027944,0.048095,0.985744,0.040947,0.030708,0.142440,-0.006193,0.001544,0.022346,0.070365,0.310364,-0.948010
1763249778.100761,-0.156121,0.029343,0.049958,0.986037,0.267213,0.035139,0.082178,-0.013206,0.004137,0.011657,0.073465,0.304950,-0.949530
1763249778.130745,-0.149281,0.029619,0.051489,0.987009,0.430501,-0.020442,0.078306,-0.008756,0.002714,0.008086,0.073842,0.291633,-0.953676
1763249778.160744,-0.141079,0.030826,0.052693,0.988114,0.541722,0.040541,0.070467,-0.010162,0.006638,0.013490,0.075786,0.275555,-0.958293
1763249778.215760,-0.128018,0.031392,0.053186,0.989847,0.557295,-0.027700,-0.007899,-0.004621,0.017680,0.002546,0.075764,0.250097,-0.965252
1763249778.245668,-0.119199,0.032550,0.051614,0.990993,0.315121,0.117601,-0.118513,-0.001212,0.014953,0.001101,0.076819,0.232890,-0.969464
1763249778.301386,-0.116598,0.035594,0.048034,0.991378,0.000773,0.179812,-0.144747,0.000716,0.005967,-0.002981,0.081776,0.227766,-0.970276
1763249778.332641,-0.120468,0.037395,0.045043,0.990989,-0.368734,0.056313,-0.152826,0.003861,-0.002423,-0.005510,0.084969,0.235397,-0.968178
1763249778.371982,-0.131437,0.036527,0.042540,0.989738,-0.697536,-0.071241,-0.114524,-0.003296,-0.006526,-0.011438,0.083487,0.257068,-0.962780
1763249778.401585,-0.149989,0.031491,0.041799,0.987302,-1.264789,-0.474477,-0.285869,-0.020259,0.009298,-0.041984,0.074720,0.293535,-0.953024
1763249778.457003,-0.166057,0.025993,0.037626,0.985055,-0.737844,-0.142675,-0.071254,-0.061046,0.022039,-0.047039,0.063705,0.325195,-0.943499
1763249778.487066,-0.179161,0.024223,0.037645,0.982801,-0.730562,-0.011086,0.123866,-0.025184,-0.000569,-0.012076,0.061102,0.350336,-0.934629
1763249778.542010,-0.199091,0.016098,0.037106,0.979146,-0.681072,-0.995488,-0.824386,0.095432,0.022366,-0.036069,0.046300,0.388684,-0.920207
1763249778.596727,-0.203684,0.014501,0.035100,0.978300,0.008704,-0.065272,-0.111135,0.010356,0.001484,-0.005862,0.042671,0.397511,-0.916605
1763249778.626794,-0.203205,0.013833,0.034632,0.978426,0.147462,0.008352,-0.003926,0.004314,0.015345,0.021405,0.041144,0.396683,-0.917033
1763249778.655309,-0.200063,0.013944,0.034768,0.979067,0.227472,0.013377,0.017922,0.003375,0.038374,0.015661,0.041215,0.390780,-0.919561
1763249778.683992,-0.194183,0.014386,0.035380,0.980221,0.371714,-0.015932,0.059211,-0.004629,0.028777,0.007084,0.041944,0.379667,-0.924172
1763249778.739551,-0.185858,0.014891,0.036581,0.981782,0.463929,0.009243,0.068186,-0.001528,0.028283,0.013099,0.042837,0.363855,-0.930470
1763249778.771077,-0.175973,0.015790,0.037869,0.983540,0.541835,-0.002041,0.090317,-0.015481,0.013739,-0.000418,0.044389,0.344957,-0.937568
1763249778.826994,-0.164898,0.015639,0.039954,0.985377,0.578886,-0.049627,0.111794,-0.010692,0.009167,0.007757,0.043998,0.323724,-0.945128
1763249778.891134,-0.153686,0.016949,0.040440,0.987146,0.571037,0.021228,0.058862,-0.005963,0.006083,0.007385,0.045893,0.302051,-0.952187
1763249778.891348,-0.142454,0.018258,0.040920,0.988787,0.563188,0.092083,0.005930,-0.001209,0.003157,0.006514,0.047764,0.280220,-0.958747
1763249778.933928,-0.132322,0.020060,0.040361,0.990182,0.473702,0.064266,-0.033354,-0.006047,0.018143,-0.007348,0.050407,0.260427,-0.964177
1763249778.989560,-0.123526,0.021098,0.039543,0.991329,0.436073,0.032416,-0.020123,-0.006822,0.010344,0.006151,0.051599,0.243241,-0.968593
1763249779.019483,-0.115096,0.022296,0.038643,0.992352,0.427058,0.054208,-0.040433,0.001845,0.002659,0.004184,0.053146,0.226709,-0.972512
1763249779.049439,-0.106257,0.023907,0.037362,0.993349,0.467611,0.080435,-0.055178,0.001744,-0.014122,-0.006699,0.055436,0.209314,-0.976276
1763249779.111577,-0.096921,0.025229,0.035658,0.994333,0.501948,0.058341,-0.073634,0.004759,-0.043293,-0.008657,0.057083,0.190945,-0.979940
1763249779.151997,-0.086626,0.026772,0.033933,0.995303,0.522388,0.084537,-0.065191,0.009813,-0.048798,-0.007312,0.059171,0.170622,-0.983558
1763249779.228347,-0.078450,0.028269,0.032611,0.995983,0.382252,0.054810,-0.049139,0.001385,-0.027170,-0.004015,0.061428,0.154427,-0.986093
1763249779.228572,-0.070269,0.029765,0.031286,0.996593,0.242116,0.025082,-0.033087,-0.007081,-0.005507,-0.000993,0.063724,0.138197,-0.988353
1763249779.261896,-0.067046,0.029738,0.030860,0.996829,0.029635,-0.049803,0.007539,-0.019584,0.005339,0.003129,0.063425,0.131832,-0.989241
1763249779.291899,-0.068188,0.027925,0.031755,0.996776,-0.143763,-0.124619,0.056297,-0.021918,0.017578,0.015281,0.060000,0.134163,-0.989141
1763249779.346947,-0.071929,0.025183,0.033184,0.996539,-0.220716,-0.123370,0.044804,-0.013460,0.029727,0.027385,0.054965,0.141689,-0.988384
1763249779.378526,-0.076227,0.022872,0.033875,0.996252,-0.194416,-0.087207,-0.004664,-0.008764,0.032851,0.013301,0.050737,0.150333,-0.987333
1763249779.432209,-0.079209,0.021038,0.033504,0.996073,-0.098477,-0.073523,-0.043306,-0.004501,0.023272,-0.002591,0.047218,0.156386,-0.986567
1763249779.493308,-0.078659,0.020106,0.033003,0.996152,0.003594,-0.063058,-0.025045,-0.001451,0.010400,-0.008497,0.045249,0.155385,-0.986817
1763249779.493565,-0.078108,0.019174,0.032502,0.996230,0.105666,-0.052593,-0.006785,0.001599,-0.002469,-0.014406,0.043280,0.154382,-0.987063
1763249779.547232,-0.075632,0.018103,0.032661,0.996436,0.150544,-0.070166,0.021864,0.002090,-0.011469,-0.015792,0.041018,0.149542,-0.987904
1763249779.613792,-0.072415,0.016390,0.033950,0.996662,0.153060,-0.079754,0.058991,0.001421,-0.016563,-0.009663,0.037588,0.143233,-0.988975
1763249779.614049,-0.069197,0.014677,0.035238,0.996872,0.155576,-0.089343,0.096119,0.000771,-0.021659,-0.003586,0.034139,0.136926,-0.989993
1763249779.669560,-0.066149,0.013149,0.037200,0.997029,0.144872,-0.070705,0.099173,0.000339,-0.017700,0.003350,0.031142,0.130927,-0.990903
1763249779.708309,-0.063336,0.012364,0.038941,0.997156,0.127863,-0.030287,0.070439,-0.000816,-0.011801,0.004402,0.029591,0.125349,-0.991671
1763249779.737801,-0.061118,0.012029,0.039899,0.997260,0.087469,-0.017563,0.024589,-0.002360,-0.007380,0.002844,0.028869,0.120941,-0.992240
1763249779.791425,-0.059787,0.011893,0.039944,0.997341,0.035645,-0.000732,-0.018758,-0.001564,-0.002593,0.003915,0.028499,0.118305,-0.992568
1763249779.822328,-0.059677,0.011945,0.039301,0.997372,-0.024655,0.004737,-0.039866,-0.002410,-0.002458,0.003527,0.028518,0.118101,-0.992592
1763249779.854559,-0.060533,0.012051,0.038510,0.997350,-0.061233,0.009499,-0.035407,-0.004699,-0.002101,0.004652,0.028701,0.119818,-0.992381
1763249779.909502,-0.062048,0.012296,0.037914,0.997277,-0.082232,0.022672,-0.024604,-0.003592,0.003063,0.004952,0.029230,0.122826,-0.991998
1763249779.942220,-0.063783,0.012792,0.037460,0.997179,-0.080497,0.030716,-0.021683,-0.004658,0.009162,0.001272,0.030290,0.126247,-0.991536
1763249779.974592,-0.065288,0.013343,0.036967,0.997092,-0.062515,0.035225,-0.021627,-0.003711,0.012057,0.001243,0.031435,0.129210,-0.991119
1763249780.029509,-0.066365,0.013955,0.036487,0.997030,-0.038630,0.033944,-0.019559,-0.003708,0.010958,-0.000489,0.032670,0.131318,-0.990802
1763249780.094557,-0.066761,0.014384,0.036198,0.997008,-0.023276,0.022142,-0.013515,-0.003533,0.010219,-0.000832,0.033516,0.132081,-0.990672
1763249780.094770,-0.067157,0.014814,0.035909,0.996986,-0.007922,0.010341,-0.007471,-0.003358,0.009479,-0.001176,0.034361,0.132845,-0.990541
1763249780.152218,-0.067263,0.014977,0.035814,0.996980,-0.004982,0.003710,0.000571,-0.003374,0.009685,-0.000841,0.034681,0.133047,-0.990503
1763249780.186144,-0.067440,0.015043,0.035798,0.996967,-0.007696,-0.002642,-0.002371,-0.004535,0.006976,-0.000872,0.034823,0.133393,-0.990451
1763249780.239682,-0.067510,0.015051,0.035804,0.996962,0.004389,0.010014,0.005803,-0.001848,0.007075,0.003176,0.034846,0.133533,-0.990432
1763249780.271092,-0.067495,0.015330,0.035963,0.996953,0.001583,0.014888,0.008740,-0.003072,0.010196,0.002004,0.035422,0.133476,-0.990419
1763249780.302241,-0.067472,0.015727,0.036172,0.996941,0.006948,0.019631,0.013175,-0.002150,0.007468,0.002036,0.036238,0.133393,-0.990400
1763249780.390193,-0.067195,0.016095,0.036490,0.996942,0.011092,0.015360,0.016654,-0.001859,0.005785,0.000439,0.036995,0.132804,-0.990452
1763249780.390420,-0.066918,0.016463,0.036807,0.996943,0.015237,0.011089,0.020133,-0.001568,0.004102,-0.001158,0.037752,0.132214,-0.990502
1763249780.445994,-0.066551,0.016819,0.037267,0.996945,0.020710,0.007171,0.024461,-0.001111,0.002223,-0.002163,0.038496,0.131442,-0.990576
1763249780.485937,-0.066064,0.016928,0.037759,0.996957,0.028601,0.003105,0.024334,-0.000366,-0.000583,0.000624,0.038743,0.130447,-0.990698
1763249780.515820,-0.065424,0.016973,0.038219,0.996981,0.032892,0.000277,0.022352,0.000072,-0.000607,0.000660,0.038845,0.129156,-0.990863
1763249780.545676,-0.064842,0.016941,0.038611,0.997004,0.021069,-0.007968,0.014298,-0.001168,0.000765,-0.000953,0.038788,0.127987,-0.991017
