timestamp,rot_x,rot_y,rot_z,acc_x,acc_y,acc_z,grav_x,grav_y,grav_z,pitch_rad,quat_rel_x,quat_rel_y,quat_rel_z,quat_rel_w
1763249746.332333,-0.023878,-0.028321,-0.044372,0.408557,-0.005044,-0.070269,-0.399432,0.0020275000000000154,0.06350650000000002,0.4070287816671458,0.09652960645328101,0.1857975620008475,-0.015246613987643034,0.9777161355907081
1763249746.362352,-0.031116,-0.03773,-0.050428,0.012258,-7e-05,-0.001586,-0.003582000000000002,-0.004034499999999996,-0.001243499999999953,0.0035860391668091837,-0.0012532921073980195,0.0018146404196521869,0.0031277761096516754,0.9999926766510087
1763249746.418564,-0.031624,-0.020906,-0.044582,0.003753,-2.8e-05,-0.00047,0.004852999999999996,-0.002431500000000003,-0.0005015000000000436,-0.004859527069705792,-0.0029395522782672988,-0.002154693111580317,0.0022168319594313888,0.9999909009516347
1763249746.448645,-0.02257,-0.010383,-0.031131,0.000778,5.3e-05,0.00107,0.007875,-0.0032794999999999908,-0.0004954999999999821,-0.007886215736887352,-0.0030616543587903334,-0.0036750557827953676,0.0026381243786451286,0.9999850801573709
1763249746.505525,-0.01567,-0.007202,-0.021865,-0.001012,0.001838,8.4e-05,0.008259999999999997,-0.0032645000000000035,-0.0004695000000000116,-0.008271881164138052,-0.002827081511362075,-0.003917207743059123,0.0026431146977042006,0.9999848384042234
1763249746.578607,-0.006867,-0.005843,-0.012051,-0.001876,0.001853,-0.000938,0.008183999999999997,-0.0031084999999999863,-0.0004435000000000411,-0.008195758104307192,-0.002664821995220871,-0.003911012261419875,0.0025718714396929664,0.999985493986849
1763249746.578932,0.001936,-0.004484,-0.002238,-0.00274,0.001867,-0.00196,0.008108999999999998,-0.002952499999999997,-0.00041749999999995957,-0.008120631946395104,-0.0025026605916166735,-0.003904759010014704,0.002501522279233468,0.9999861158702772
1763249746.608567,0.001846,-0.000207,-0.00062,-0.001716,0.003542,-0.001455,0.007732999999999997,-0.002846500000000002,-0.0004195000000000171,-0.007743973518329991,-0.002457037647159391,-0.003721820044617857,0.002450533942885701,0.9999870528686612
1763249746.668395,0.005892,-0.003533,-0.005837,-0.000948,0.001365,-0.002208,0.007543000000000001,-0.002861499999999989,-0.00043250000000005784,-0.007553719005902931,-0.0023753090531450105,-0.0036403707193065128,0.0024626968559581645,0.9999875202881903
1763249746.699904,0.01444,0.008987,-0.008105,0.001116,-0.000572,0.001496,0.007351999999999997,-0.002967499999999984,-0.0004644999999999788,-0.007362396871029478,-0.0022144734107016114,-0.0035750150536548357,0.0025257609750924913,0.9999879678808021
1763249746.731693,0.001872,0.000357,-0.011402,-0.001379,-0.000656,-0.00052,0.007400999999999998,-0.0029954999999999843,-0.00046749999999995406,-0.007411455142303375,-0.0019701974665509744,-0.0036480003522474285,0.002552823770801585,0.9999881466828334
1763249746.78736,-0.005675,0.005023,-0.010533,2e-06,-7.7e-05,-0.0003,0.007481999999999996,-0.002971499999999988,-0.00045850000000002833,-0.007492565013615615,-0.0018032253639961228,-0.0037225505604314363,0.0025504816421058254,0.9999881929497993
1763249746.867234,-0.00404,0.002407,-0.001704,0.000166,-0.000542,-0.000188,0.007488999999999996,-0.0026934999999999876,-0.0004035000000000011,-0.007499593257699014,-0.0018031556081550973,-0.0037257298420823783,0.002408584618609406,0.9999885330778207
1763249746.867449,-0.002405,-0.00021,0.007125,0.00033,-0.001007,-7.5e-05,0.007495999999999996,-0.002416499999999988,-0.00034849999999997383,-0.007506627852397835,-0.0018031861246375726,-0.0037299006760133043,0.0022667660695871515,0.999988849003994
1763249746.896983,0.001557,-0.00866,0.007116,-0.000856,-0.000604,-0.001855,0.007493,-0.0024744999999999906,-0.00036049999999998583,-0.007503596479512216,-0.0019793006169951883,-0.003693318778392467,0.0022871422383002396,0.9999886053080058
1763249746.925511,-0.001815,0.006277,0.003189,-0.000378,0.000495,-0.000802,0.0074679999999999955,-0.0027864999999999973,-0.0004224999999999923,-0.007478580964285955,-0.0021772899624310934,-0.003641433019391091,0.002434876496453926,0.999988035303639
1763249746.97993,-0.006192,0.003118,-0.004815,-0.000341,0.00058,-0.00072,0.007605999999999995,-0.0026644999999999863,-0.0003904999999999603,-0.007616813143758172,-0.002100306663863519,-0.0037273803997825115,0.0023774518182565763,0.9999880214633199
1763249747.009848,-0.00782,0.006679,-0.008163,0.000202,-0.000402,0.000426,0.007790999999999999,-0.0023175,-0.00031250000000004885,-0.007802077760648798,-0.0019032010963180197,-0.0038603458672243694,0.0022108491577323432,0.9999882937821694
1763249747.064876,-0.00812,0.005325,-0.005025,0.000172,0.001249,-0.000363,0.007782999999999998,-0.0019934999999999814,-0.0002495000000000136,-0.007794062365803427,-0.0017893776197422404,-0.003878481591168474,0.002050886478135036,0.9999887746234628
1763249747.09488,-0.007464,0.003904,-0.000601,-0.000195,0.000783,-0.000599,0.008093999999999997,-0.0016304999999999792,-0.0001594999999999791,-0.008105603631093701,-0.0017467566506649587,-0.004045505022548609,0.001868183026739791,0.999988546245653
1763249747.168339,-0.008913,0.001162,-0.002734,-0.000602,0.001593,-0.000947,0.008306000000000001,-0.001162499999999983,-5.5499999999986116e-05,-0.008317923508955764,-0.0017052191756599588,-0.00416228863884425,0.0016310333809721833,0.9999885535899699
1763249747.168493,-0.010362,-0.00158,-0.004867,-0.001009,0.002403,-0.001296,0.008518999999999999,-0.0006944999999999868,4.950000000003563e-05,-0.008531284919082352,-0.001663618142188696,-0.004278973001629545,0.0013949741896585113,0.9999884883396102
1763249747.222455,-0.004038,0.000257,-0.002585,-0.000352,0.000839,-0.000452,0.008549000000000001,-0.0004804999999999948,9.349999999996861e-05,-0.008561330906941562,-0.0016277313630483254,-0.004301200271159551,0.00128746132564572,0.9999885962400633
1763249747.252362,-0.000897,5.7e-05,-0.000574,0.000205,0.001979,0.000311,0.008537999999999997,-0.00031449999999999534,0.00012650000000002937,-0.008550357936754835,-0.001578337108987963,-0.004304691905372525,0.0012048205623369462,0.9999887633803606
1763249747.311155,0.000547,-0.00049,-0.002756,-0.00041,0.002344,0.000136,0.008488999999999997,-0.0002834999999999921,0.0001295000000000046,-0.008501261923680017,-0.0015331502791190482,-0.004289072676089946,0.0011922874312839482,0.9999889158168116
1763249747.341018,0.000662,-0.004837,-0.007276,-0.000934,0.002941,-0.000405,0.008376999999999996,-0.0002804999999999891,0.0001234999999999431,-0.008389075271211868,-0.0014147988049166948,-0.004255307492043262,0.001196713634052631,0.9999892292314793
1763249747.371106,-0.00233,-0.011068,-0.016205,-0.000356,0.000543,-0.001169,0.007981999999999996,-8.549999999998836e-05,0.00013850000000004137,-0.007993395909017188,-0.001137365719606128,-0.004109548677468969,0.0011123097949871392,0.999990290340765
1763249747.470155,-0.003194,-0.00811,-0.013533,-0.000581,0.001027,-0.001489,0.007751999999999995,-9.549999999999836e-05,0.0001234999999999431,-0.007763042071130155,-0.0008996385149890821,-0.004039353658126653,0.0011309399195340178,0.9999907975813904
1763249747.470388,-0.004059,-0.005153,-0.010861,-0.000806,0.001512,-0.00181,0.007522000000000001,-0.00010649999999998161,0.00010750000000003812,-0.007532643318416209,-0.0006619111621986314,-0.0039691583618586745,0.0011495699814570452,0.9999912430338427
1763249747.5011,-0.002724,0.003629,-0.00928,0.000476,0.000755,0.000195,0.007523999999999996,-6.249999999999312e-05,0.00011649999999996385,-0.0075346556446038646,-0.00045822682352631783,-0.004010845306175551,0.0011381301824514769,0.999991203865212
1763249747.531131,0.001696,0.001492,-0.006726,-0.000618,-0.001243,-0.002011,0.007689000000000001,3.949999999999787e-05,0.00014649999999993835,-0.007699933916308063,-0.00020703149975447835,-0.004145213896653907,0.0010994934952117594,0.9999907826844021
1763249747.586096,0.01442,-0.00287,-0.003682,0.00032,-0.003863,-0.004128,0.007709000000000001,-0.0002274999999999916,9.449999999999736e-05,-0.00771995274635065,-0.0001045682508745065,-0.004175637570751408,0.0012407921013267626,0.999990506730599
1763249747.616369,0.020325,-0.00167,0.004609,-0.000243,-0.003283,-0.003005,0.007744000000000001,-0.0012244999999999895,-0.00010050000000005888,-0.007755003975033606,-0.0001631288701235004,-0.004181022237425013,0.0017473262454629852,0.9999897195936637
1763249747.671203,0.014263,0.009417,0.005412,0.000697,-0.003221,-0.000129,0.007939999999999996,-0.001849500000000004,-0.0002115000000000311,-0.007951351923813,-0.00026727286583226503,-0.0042606491015743245,0.0020603528926246718,0.999988765127092
1763249747.701109,-0.003052,0.013123,-0.000266,0.000841,-0.000878,-0.000147,0.008480000000000001,-0.002199499999999993,-0.00024849999999998484,-0.008492244681841316,-0.00030359811463057996,-0.004529360198181843,0.0022371870378036464,0.9999871937772693
1763249747.741707,-0.010838,0.013685,-0.007333,0.001491,0.000102,-0.000255,0.009063999999999996,-0.00194649999999999,-0.00016450000000001186,-0.009077218548545492,-0.00021650443029557563,-0.0048445481182085685,0.002112263865568792,0.9999860108125135
1763249747.778045,-0.009149,-0.002946,-0.007797,-0.000364,0.000275,-0.004369,0.009551999999999998,-0.001607499999999984,-6.850000000002687e-05,-0.009566071051005702,-6.56892993859163e-05,-0.005123924782715202,0.0019481970532472916,0.9999849726910793
1763249747.809802,-0.009332,-0.001907,0.000963,0.00096,-0.00139,-0.002599,0.009555999999999995,-0.0011224999999999985,2.7499999999958114e-05,-0.009570094028395162,7.449651498067536e-05,-0.005154107897449419,0.00170797261419979,0.999985256117109
1763249747.866139,-0.003357,-0.005128,0.008274,0.000371,-0.000538,-0.001005,0.009543999999999997,-0.0010794999999999833,3.450000000004838e-05,-0.009558029484701885,-5.286067256291623e-05,-0.005122322312461509,0.0016791498174155072,0.9999854696323179
1763249747.896005,-0.009108,-0.007311,0.004837,0.0006,0.001074,0.000602,0.009451999999999995,-0.0009664999999999813,5.1499999999982116e-05,-0.009465883685505036,-0.00027643472425320503,-0.005031669454460681,0.0016087277931860166,0.9999860088427397
1763249747.951499,-0.012081,-0.010008,-0.003491,0.000465,0.001775,0.00056,0.009182999999999997,-0.000716499999999981,8.549999999996061e-05,-0.009196463134814335,-0.000281361603957425,-0.004893063587863004,0.0014807849088139177,0.9999868929343159
1763249747.981127,-0.01722,-0.012579,-0.007054,0.000156,0.000596,0.000188,0.008653999999999995,-3.949999999999787e-05,0.0001875000000000071,-0.008666533495863785,-0.0001263495356200418,-0.004654076453258792,0.0011439601410792235,0.9999885074156393
1763249748.039706,-0.018961,-0.011176,-0.000203,-0.000223,-0.000176,0.000517,0.008226999999999998,0.0006075000000000108,0.00029049999999997134,-0.008238801809313898,-8.537979227941137e-05,-0.004444232843435575,0.0008155539963890227,0.9999897881360607
1763249748.069935,-0.017516,-0.012112,0.007427,-0.000281,0.000286,-0.000177,0.007772000000000001,0.0013795000000000057,0.0004184999999999883,-0.0077830937936468475,-0.0002097967489622568,-0.004187051982438016,0.0004151172439598854,0.9999911260899741
1763249748.099503,-0.0067,-0.010189,0.008567,-0.001189,0.002203,-0.002371,0.007403,0.0019165000000000154,0.0005034999999999901,-0.007413440417220862,-0.00046108280564721374,-0.003948498515514628,0.0001268610897796369,0.99999209030291
1763249748.154549,0.000798,-0.015986,-0.002161,-0.001657,0.003401,-0.00293,0.007071999999999995,0.0019205000000000194,0.0004855000000000276,-0.00708192769206676,-0.00050747556534381,-0.0037706372814311617,0.00012318678008387137,0.9999927547677832
1763249748.18518,0.014119,-0.005956,-0.010764,-0.00084,0.002573,0.000162,0.006661,0.0014824999999999977,0.0003744999999999443,-0.006670289999072661,-0.0003885569889632524,-0.003583920381721341,0.0003534510590273612,0.9999934397837381
1763249748.222876,0.00859,-0.019672,-0.025148,-0.00107,0.003004,-0.000379,0.005984999999999997,0.0010625000000000218,0.0002514999999999601,-0.005993200895069016,5.792562636092592e-05,-0.0033278553763499905,0.0005918233751140394,0.9999942858678287
1763249748.252648,0.006044,-0.02506,-0.028564,-0.000132,0.001614,0.002394,0.004348999999999999,0.0010355000000000225,0.0001554999999999751,-0.004354789488740053,0.0009138603876819751,-0.0026636649921417095,0.0006495678866437079,0.9999958238960612
1763249748.347027,0.010174,-0.022575,-0.026927,-0.001061,0.002233,0.001027,0.0030869999999999995,0.000756500000000021,3.1499999999962114e-05,-0.003091006796693961,0.001584743075868024,-0.002152876844903909,0.0008260834177543271,0.9999960856407695
1763249748.347119,0.014304,-0.02009,-0.025289,-0.00199,0.002854,-0.000342,0.0018250000000000002,0.0004755000000000176,-9.150000000002212e-05,-0.001827291822097836,0.002256599799003593,-0.001642109318842414,0.0010036068298109398,0.9999956019941605
1763249748.37718,0.015918,-0.02199,-0.022704,-0.000523,0.000889,-0.00064,0.0007199999999999984,0.00011250000000001537,-0.00022049999999995684,-0.000720882206267752,0.0028208947488989385,-0.001191383119354429,0.0012152403825728686,0.9999945731602204
1763249748.456058,0.01512,-0.012932,-0.009825,-0.000279,0.000474,-0.000342,0.0003949999999999995,-0.0004615000000000036,-0.00035050000000003134,-0.00039548785636374373,0.002978767444919517,-0.0010555084723257316,0.0015156047080688683,0.9999938578755085
1763249748.456309,0.014322,-0.003873,0.003055,-3.6e-05,6.1e-05,-4.4e-05,6.899999999999962e-05,-0.0010364999999999958,-0.0004804999999999948,-6.908705100037993e-05,0.0031356314520532263,-0.0009194547681727721,0.001816943928283874,0.9999930105421176
1763249748.511059,0.005196,0.004377,0.008153,-0.000518,-0.000796,0.000721,0.00010599999999999499,-0.0013674999999999937,-0.0005435000000000301,-0.00010614786852410074,0.0030402603630626064,-0.0009180112264582417,0.0019806028938683024,0.9999929956177142
1763249748.540519,-0.001404,0.002391,0.013432,2.8e-05,-0.000704,-0.000492,0.00033400000000000096,-0.0013734999999999997,-0.0005334999999999646,-0.0003344113745906707,0.002777774462667844,-0.0009829293756373565,0.001971316265084361,0.9999937158457847
1763249748.599815,-0.009115,-0.001399,0.009348,0.000102,-0.000691,-0.000656,0.0004359999999999989,-0.0010934999999999973,-0.0004724999999999868,-0.00043657139887268853,0.0024935443899898797,-0.000978713876939809,0.0018140478035648343,0.9999947667793511
1763249748.64195,-0.016975,-0.005432,0.004006,0.000307,-0.00187,-0.001848,0.0003470000000000001,-0.0004875000000000018,-0.0003575000000000106,-0.0003474565178080147,0.0023609252734649038,-0.0009076570768839715,0.0014977279849922075,0.99999567949135
1763249748.671614,-0.019493,-0.005236,0.007,0.000337,-0.002038,-0.002018,0.00016299999999999648,0.00026450000000000085,-0.00021850000000001035,-0.00016319796281570598,0.002238170216015749,-0.0007909553635615085,0.0011083591892565082,0.999996568255914
1763249748.701644,-0.015726,-0.011249,0.009481,5.1e-05,-0.000307,-0.000304,-0.00010700000000000293,0.0009294999999999998,-9.950000000003012e-05,0.00010711351432564353,0.0020668995831096756,-0.0006187723696572554,0.0007591404957616574,0.999997384372867
1763249748.754893,-0.006981,-0.013121,0.01456,-0.001119,-0.000421,-0.002221,-0.00041000000000000064,0.0013655000000000195,-2.7499999999958114e-05,0.00041046801912649616,0.0018143344000115956,-0.0004141910798730816,0.0005240071949564721,0.9999981310247005
1763249748.784834,0.01023,-0.020382,0.022674,-0.000353,-0.000124,-0.001499,-0.0009420000000000053,0.0011555000000000037,-9.650000000005488e-05,0.0009431308570160002,0.0014217737890347925,-6.400012053729871e-05,0.0006116931610601899,0.9999988001466573
1763249748.839761,0.02893,-0.025985,0.047517,0.000743,0.002688,-0.0005,-0.0016289999999999985,0.0001465000000000216,-0.00033050000000001134,0.0016309075612338658,0.0006541881733439985,0.00044068117405679844,0.0010883000616430986,0.9999990967200483
1763249748.870506,0.027149,-0.018764,0.049515,0.000392,-7.3e-05,0.000486,-0.002121999999999999,-0.0010435000000000028,-0.0005895000000000206,0.0021244563018001372,-0.000349275898219313,0.0008918832871876362,0.001645577983043799,0.9999981873101824
1763249748.901028,0.013812,-0.024321,0.031259,-2.8e-05,0.00056,0.000649,-0.0028849999999999987,-0.00182549999999998,-0.0007804999999999618,0.0028883288069705346,-0.0011481437753652465,0.001438889676489195,0.002006111472415842,0.9999962934326958
1763249748.944247,0.00016,-0.026628,0.009171,0.001086,0.004677,0.000295,-0.003691,-0.002174499999999996,-0.0008865000000000123,0.003695171530410518,-0.0015865207711779792,0.0019373748014951406,0.0021637688410974763,0.9999945238025674
1763249749.00249,-0.012673,-0.038887,-0.018931,0.001465,0.004249,-0.000891,-0.005109000000000002,-0.0018755000000000022,-0.0008924999999999628,0.005114588452931591,-0.0014590153006335206,0.002635878295401696,0.0020176911338299634,0.9999934261496186
1763249749.031856,-0.006928,-0.046724,-0.028247,0.000263,0.000763,-0.00016,-0.007056,-0.0013185000000000002,-0.0008694999999999675,0.007063434824047553,-0.000996444445184042,0.003538433590352737,0.0017570904567732058,0.9999916995752122
1763249749.074816,-0.003014,-0.05905,-0.034382,-0.000123,8.4e-05,-0.001142,-0.009420000000000005,-0.0009865000000000013,-0.0009025000000000283,0.009429405179909672,-0.0003252297162196106,0.0046110224475650234,0.001618468619651762,0.9999880065565522
1763249749.117377,-0.004767,-0.088166,-0.042885,-0.001493,0.001309,-0.00631,-0.012629000000000001,-0.0007684999999999775,-0.0009854999999999725,0.012640786856990723,0.0004803682245100992,0.00608841670673874,0.001543430133659657,0.9999801589290642
1763249749.149136,0.016327,-0.082914,-0.026755,-0.000426,-0.005105,-0.002608,-0.016567000000000005,-0.0009614999999999763,-0.001163499999999984,0.016581181296670057,0.0011113401727472411,0.007971159327380632,0.0016665729962793362,0.999966223467796
1763249749.194346,0.015239,-0.049575,-0.009868,0.001437,-0.002244,0.001019,-0.019566000000000004,-0.001712499999999978,-0.0014064999999999772,0.019581639634365454,0.0014185991069936357,0.009439216486653506,0.002060269108112467,0.9999523208932983
1763249749.239856,0.00724,-0.021217,0.010341,-0.000883,-0.003173,0.002764,-0.021098000000000002,-0.002267499999999978,-0.0015604999999999647,0.021114283179521586,0.0014097539011400032,0.010222602290898698,0.002342026303704267,0.9999440113872042
1763249749.269188,-0.013283,0.024579,0.03087,0.001392,-0.000118,0.005882,-0.021151000000000003,-0.0021344999999999836,-0.001535500000000023,0.021167290597213725,0.0009926035581318369,0.010331735378531538,0.00225773853333135,0.9999435847081373
1763249749.302293,-0.045768,0.075997,0.038289,-0.002784,9.9e-05,0.002801,-0.018596,-0.000960500000000003,-0.0012284999999999657,0.01861118929069501,0.0002392774437715225,0.009179651342969943,0.0016298590623271766,0.9999565092077571
1763249749.360614,-0.046382,0.063491,0.040046,-0.003912,-0.006824,0.001447,-0.015979,0.0012465000000000115,-0.0007055000000000256,0.015992843870559784,-0.0002704284648965433,0.007948642120250309,0.0004827631228503656,0.9999682559444859
1763249749.391013,-0.038191,0.041909,0.052157,-0.011062,-0.002584,-0.009037,-0.013208999999999999,0.0030345000000000233,-0.0002495000000000136,0.013221185440949919,-0.0012431449335878573,0.006731259863553461,-0.0004719462960743016,0.9999764607219597
1763249749.42219,0.006328,0.043577,0.059896,-0.007464,-0.000542,-0.002843,-0.011055000000000002,0.0033495000000000053,-0.00010350000000003412,0.011065666468960636,-0.002426458999051536,0.005870971267196639,-0.0006875592967613012,0.999979585419282
1763249749.477448,-0.018807,0.041427,0.023534,-0.005949,0.008066,0.004515,-0.009337000000000005,0.0032945000000000058,-4.650000000006038e-05,0.009346370270172523,-0.003318512251762088,0.0051736138041913685,-0.0007016330641312213,0.9999808642707537
1763249749.542698,-0.030735,0.044587,0.000699,-0.004442,0.00958,0.003382,-0.007377000000000002,0.004570500000000005,0.0002934999999999466,0.007384729443062399,-0.0033609075708841626,0.004184092434358551,-0.0013586521397440713,0.9999846757501657
1763249749.542906,-0.042663,0.047746,-0.022136,-0.002934,0.011094,0.002243,-0.005417999999999999,0.0058455000000000035,0.0006395000000000151,0.005423905260082469,-0.0034032797401770416,0.003195544750313405,-0.002015849351457495,0.9999870711824984
1763249749.597403,-0.022943,0.052587,-0.019172,0.000374,0.00516,0.002379,-0.003720000000000001,0.007272500000000015,0.0010094999999999965,0.0037242194532113373,-0.0030195961975005544,0.002253213274728296,-0.0027291040788927513,0.9999891784712819
1763249749.625644,0.010643,0.037773,-0.010381,0.001717,-0.002137,-0.001128,-0.0024150000000000005,0.007783499999999999,0.0011774999999999425,0.0024177785597874965,-0.0026477095698835273,0.0015114907400347304,-0.0029744754385325426,0.999990928721677
1763249749.681167,0.044142,0.018451,-0.000812,-0.000334,-0.007951,-0.009903,-0.0010970000000000008,0.006547500000000012,0.0009865000000000013,0.0010983173643428074,-0.0025510034617829995,0.0008169385450177286,-0.0023397881229922455,0.9999936751721439
1763249749.726188,0.017664,0.011211,-0.001607,-0.000239,-0.001973,-0.003427,-0.0003300000000000039,0.005167500000000019,0.0007424999999999793,0.00033040925332301907,-0.0025569620336387314,0.0004246282709265657,-0.0016359777319083823,0.9999953025953927
1763249749.755992,-0.042341,-0.011691,-0.025258,-0.000719,0.001496,-0.000836,-6.899999999999962e-05,0.005661500000000014,0.0008565000000000378,6.908705100038687e-05,-0.0022480523468174415,0.0002293446609766426,-0.0018734722459519946,0.9999956918724281
1763249749.785897,-0.07641,-0.004033,-0.045534,0.004149,0.004544,0.00576,-0.0005350000000000008,0.008217500000000016,0.0013585000000000402,0.0005356539955310852,-0.001449481660897526,0.00030840313240444213,-0.0031389778100438456,0.9999939753362171
1763249749.842633,-0.086688,-0.012597,-0.036112,0.001855,0.001961,-0.001338,-0.0011420000000000041,0.011507500000000004,0.002015499999999948,0.0011433456002221537,-0.0005424788261404264,0.0004346956321387638,-0.004775981765535413,0.9999883533094803
1763249749.872325,-0.088753,-0.020026,-0.013744,0.00144,0.004086,-0.005883,-0.0019870000000000027,0.015002500000000002,0.0027165000000000106,0.001989298851115269,-2.8856179702901498e-05,0.0007611797488114755,-0.006538701850893905,0.9999783323406644
1763249749.926093,-0.076491,-0.030611,-0.013768,0.001775,0.006924,5.9e-05,-0.003252000000000005,0.01823150000000001,0.0033524999999999805,0.0032557103484951028,0.00022914629912337744,0.001354033138720168,-0.00817986375733222,0.9999656013659391
1763249749.956085,-0.054544,-0.022721,-0.027541,0.0022,0.009916,0.003484,-0.004196000000000005,0.02068350000000002,0.003845499999999946,0.004200681113365662,0.0005551265604371812,0.0017680663504556354,-0.009420477526950119,0.9999539091273391
1763249749.986168,-0.027079,0.008074,-0.054442,0.004949,0.011567,0.008046,-0.004654000000000005,0.022460500000000022,0.004217499999999985,0.0046591433686603775,0.0013443396530867877,0.001835665534947622,-0.010293729816813384,0.9999444295606629
1763249750.041136,-0.008275,0.017905,-0.079789,0.003586,0.00918,0.000462,-0.004646000000000004,0.023301500000000003,0.004405499999999951,0.004651117097580204,0.0027491903168347554,0.0015335054181099261,-0.010657284699160467,0.9999382543920278
1763249750.071075,0.02803,0.022424,-0.068918,0.004267,0.005171,-0.002051,-0.004418000000000005,0.02317050000000001,0.00438649999999996,0.004422899397143125,0.004329412367025024,0.0010823549851121334,-0.010514600362137664,0.9999347618097228
1763249750.17033,0.067982,0.016189,-0.043937,0.002253,0.003229,-0.002043,-0.004129000000000001,0.02056250000000001,0.003821500000000033,0.004133632944639899,0.005199736104234708,0.00075688660651813,-0.009135099688241445,0.9999444683685176
1763249750.170552,0.107934,0.009954,-0.018956,0.000234,0.001289,-0.002042,-0.003834000000000004,0.01795350000000001,0.0032645000000000035,0.0038383320497812415,0.0060688332438637495,0.0004314686061355879,-0.007755917716342065,0.9999514132388021
1763249750.198196,0.118764,-0.026503,-0.001272,0.000148,-0.000141,-0.001057,-0.004577999999999999,0.013784500000000005,0.0023334999999999884,0.004583087525114167,0.006387508587789563,0.000759172338843481,-0.0056083278913718285,0.9999635843617826
1763249750.228745,0.106977,-0.052015,0.018737,-0.001082,0.000634,-0.00116,-0.006305999999999999,0.009400500000000006,0.0013334999999999875,0.006312736935269667,0.006223022148659776,0.0016887652632007132,-0.003378642432760714,0.9999735030702237
1763249750.2836,0.090315,-0.083445,0.038622,-0.002805,-0.000129,-0.002431,-0.008834000000000002,0.005460500000000007,0.00041349999999995557,0.008842957988581444,0.0055957949200655405,0.003118938572785292,-0.001402569401116099,0.9999784958190185
1763249750.313631,0.079964,-0.078633,0.055403,-0.002205,0.001052,0.001965,-0.011846000000000002,0.001977500000000021,-0.0004104999999999803,0.011857261765215052,0.004621549349456825,0.004859854371751849,0.00032463353183356596,0.9999774586010257
1763249750.368156,0.067615,-0.060782,0.045925,-0.00396,0.006421,0.001771,-0.013996000000000001,-0.0011104999999999865,-0.001103500000000035,0.014008687494044547,0.0035824970572411524,0.006168822345297957,0.0018506733885277906,0.9999728428081015
1763249750.398565,0.073078,-0.042287,0.027298,-0.00338,0.008339,0.004491,-0.015851000000000004,-0.003995499999999985,-0.001731499999999997,0.015864761733586058,0.0028169389160079,0.007269366405816012,0.003285404916585431,0.9999642130005132
1763249750.450156,0.102866,-0.017214,0.01063,-0.003491,0.007787,0.001453,-0.016747000000000005,-0.007490499999999983,-0.0024325000000000596,0.016761245465563887,0.0024261733096592503,0.007804465825038369,0.0050494401968895035,0.9999538525101822
1763249750.485013,0.140552,0.007993,0.004297,-0.004565,0.005749,-0.000659,-0.016872000000000005,-0.012162499999999993,-0.003314499999999998,0.016886343517794417,0.0023211958289954446,0.007890981821410504,0.007423028699210207,0.9999386196666016
1763249750.514322,0.147742,0.015201,-0.013541,-0.002695,0.002825,-0.001508,-0.01654,-0.017806500000000003,-0.004331500000000044,0.016554145907531764,0.002414647340687399,0.007706633488169146,0.01029851559986859,0.9999143552599585
1763249750.569878,0.132219,0.028694,-0.041062,-0.002676,-0.002286,-0.000498,-0.015839,-0.023283499999999985,-0.00527449999999996,0.015852770802881902,0.0029156746491964605,0.00725853136065913,0.013103274891273577,0.9998835515953597
1763249750.601429,0.099169,-0.000793,-0.078253,-0.002918,-0.00291,-0.004073,-0.015653,-0.02775749999999999,-0.006033500000000025,0.015666642120651136,0.0041799634378390975,0.006933028233757195,0.015427656217134118,0.9998482127047157
1763249750.632736,0.05293,-0.004825,-0.089195,-0.000421,-0.003256,0.00119,-0.016407000000000005,-0.030704499999999996,-0.006552499999999961,0.01642107241671799,0.005869192210969192,0.007012466722929768,0.016991106788472765,0.9998138227606944
1763249750.67488,0.007585,-0.055402,-0.119001,-0.002488,-0.004297,-0.007272,-0.018015000000000003,-0.03164049999999999,-0.006759500000000029,0.01802989958020012,0.007909684484946715,0.007459338728262711,0.01754293004147133,0.9997869976963322
1763249750.767083,0.024038,-0.044119,-0.082274,-0.000228,-0.004507,-0.00328,-0.020625,-0.03238449999999998,-0.006961499999999954,0.020641084509494218,0.009651973028668982,0.008471558255597722,0.01797787262497753,0.9997559043152763
1763249750.767327,0.040491,-0.032836,-0.045547,0.002029,-0.004708,0.000706,-0.023233000000000004,-0.033137499999999986,-0.007157500000000039,0.023250074144737433,0.01139384579276449,0.009482717947095314,0.018412487762028442,0.9997205802787096
1763249750.797264,0.061499,-0.007218,-0.006076,0.002639,-0.006289,0.002536,-0.024487000000000002,-0.0350075,-0.007493500000000042,0.024504485783903705,0.012061691093471919,0.010009351186266627,0.019377100148103357,0.9996893800009312
1763249750.849906,0.048163,-0.005689,-0.016549,-0.00176,-0.000439,-0.003116,-0.024722,-0.0373985,-0.007881499999999986,0.024739543867671382,0.012368329295286442,0.01008563977582287,0.020597507675946,0.9996604658474272
1763249750.879836,0.039484,0.008049,-0.011427,-0.000524,-0.002579,-0.001372,-0.024607,-0.0393685,-0.00818949999999996,0.024624509728257644,0.012662973328235754,0.009985189781415762,0.021607280950712404,0.9996364691733863
1763249750.909913,0.046351,0.004978,-0.000543,-0.000877,-0.003525,-0.001617,-0.024284000000000003,-0.0411735,-0.00846250000000004,0.024301406339840872,0.01277741358502746,0.009810230488520644,0.022527517709163745,0.9996164304500516
1763249750.964963,0.051188,-0.002988,0.029169,-0.00046,-0.005609,0.002052,-0.024278,-0.0430615,-0.00875349999999997,0.024295418381807262,0.012528324506402705,0.009862649692516436,0.02347315441699246,0.9995973090439075
1763249751.03068,0.05624,0.01072,0.054856,1e-06,-0.000957,0.002748,-0.023842000000000002,-0.0454715,-0.009107500000000046,0.023859268471696102,0.01108651863003059,0.009907300528572378,0.02464120152582369,0.9995857870579526
1763249751.03094,0.061292,0.024427,0.080542,0.000469,0.003697,0.003438,-0.023413000000000003,-0.047883499999999996,-0.009456499999999979,0.02343013399373255,0.009644320872044818,0.009951962472128768,0.025809778161531877,0.9995708083318174
1763249751.0744,0.06417,0.028465,0.078815,-0.000142,0.005486,-0.000387,-0.022106,-0.05040449999999999,-0.009791499999999953,0.022122683225080902,0.007935028798482447,0.009594804239970082,0.02702512533449004,0.9995572107939691
1763249751.129356,0.064608,0.017216,0.050371,-0.000375,0.004162,-0.001577,-0.020903,-0.0530205,-0.010133500000000017,0.020919192801919072,0.006515285705645156,0.009235872764020922,0.028296999099944493,0.9995356569669731
1763249751.161104,0.048959,-0.019563,0.019981,-0.00309,0.003793,-0.005254,-0.020502000000000003,-0.055319499999999994,-0.010447500000000054,0.020518038161852232,0.005750219390464901,0.00916860959500776,0.029429230862557915,0.9995082750762467
1763249751.214465,0.036065,-0.017532,0.010004,-0.001742,0.001564,-0.001269,-0.021319,-0.056865499999999986,-0.010686500000000043,0.021335365282828627,0.00545971460636509,0.009634489236272964,0.030196534701476575,0.999482634879464
1763249751.244354,0.034476,-0.013033,0.006848,-0.002395,-5.2e-05,-0.000138,-0.021931000000000003,-0.05816549999999998,-0.010883500000000046,0.021947612442484776,0.005300986492968123,0.009974768545883975,0.030844279930942155,0.9994603713655681
1763249751.27427,0.022877,-0.005698,-0.000104,-0.001608,-0.001221,0.001038,-0.022467,-0.0592965,-0.01105250000000002,0.02248379973670863,0.005269626064289349,0.010253541952095165,0.031412520932968646,0.9994400179336503
1763249751.342105,0.011435,0.000997,-0.006131,-0.001468,-0.001674,0.000567,-0.022796,-0.05991549999999998,-0.01114550000000003,0.022812917821041338,0.005396215200341145,0.010400684153794311,0.03172846582753488,0.9994278418609698
1763249751.371995,0.016443,0.008235,-0.000868,-0.001826,-0.004315,0.001038,-0.022740000000000003,-0.060436499999999976,-0.011214500000000016,0.022756898525903034,0.005509367282971226,0.010353780862176986,0.031995431274016155,0.9994192005718067
1763249751.400707,0.013285,0.014748,0.003348,-0.001988,-0.003859,-0.000204,-0.022347000000000002,-0.06100449999999999,-0.011280500000000027,0.022363760150893888,0.005503230767952992,0.010157278429653548,0.03228343653815329,0.9994119890572177
1763249751.454887,-0.00322,0.018469,-0.004471,-0.001131,-0.000601,-0.000943,-0.021736000000000002,-0.06124349999999998,-0.011295500000000014,0.021752525121333164,0.00547825487013198,0.009851782020573047,0.03240493301788007,0.9994112524034857
1763249751.484942,-0.022109,0.013649,-0.017454,-0.000678,-0.000305,-0.002078,-0.021177,-0.06064149999999999,-0.011199500000000029,0.02119332721091244,0.005699598447971322,0.009530043713066873,0.03211162154845151,0.9994226016084927
1763249751.514374,-0.024196,0.009786,-0.01391,-0.001638,-0.00196,-0.000898,-0.020873000000000003,-0.0596855,-0.011060500000000029,0.020889178359159977,0.006046919751223388,0.009315897177322131,0.03164381605767614,0.9994375006605525
1763249751.569859,-0.024122,0.030729,-0.010327,-0.005114,0.000539,-0.005004,-0.019982000000000003,-0.058862499999999984,-0.010922500000000057,0.019997808784816842,0.006196136569809567,0.008836359063639922,0.031238309790965733,0.9994536981028739
1763249751.599955,-0.016113,0.004401,0.002028,-0.009205,-0.013222,-0.013271,-0.019256000000000002,-0.057874499999999995,-0.010765499999999983,0.0192714965967231,0.0062630450995120705,0.008455022682239124,0.030745093755667134,0.9994718735749794
1763249751.645615,-0.006753,0.012429,-0.059336,-0.002971,-0.009809,0.003562,-0.019237,-0.05731349999999999,-0.010687499999999961,0.019252487093930397,0.006432635235770572,0.008414984020130786,0.030467508375087413,0.999479634700617
1763249751.699666,0.064242,0.008878,-0.127141,-0.006283,-0.07092,0.003737,-0.019455000000000004,-0.058281499999999986,-0.01082749999999999,0.019470586996451298,0.008672477164767958,0.0081498911092499,0.031045258163369074,0.9994471268457895
1763249751.728768,0.077922,0.025882,-0.115702,-0.004287,-0.105819,-0.00088,-0.019426000000000002,-0.06157949999999998,-0.011273500000000047,0.01944156896282147,0.01113885421452979,0.0077351738160509765,0.03280781672332428,0.999369671430283
1763249751.758615,-0.035333,0.08496,-0.140992,0.002921,-0.108651,-0.001519,-0.018516,-0.06291249999999998,-0.01142350000000003,0.018531160261372456,0.013885722703828181,0.0068229579943722305,0.033595402831128274,0.9993157573348944
1763249751.813582,-0.274066,0.090475,-0.091957,0.002815,-0.107924,-0.02995,-0.015542,-0.05760849999999998,-0.01060950000000005,0.015555614104527375,0.01617638677168907,0.004893035657917439,0.031036989906074463,0.9993753488908126
1763249751.843553,-0.515971,0.050221,-0.062645,-0.001732,-0.096163,-0.033259,-0.012869000000000005,-0.0425345,-0.008317499999999978,0.012880956724452032,0.017752503447158813,0.0031388757999114766,0.023509266761182805,0.999561058893564
1763249751.898711,-0.576748,0.04359,-0.020674,-0.000706,-0.084527,-0.015482,-0.011327000000000004,-0.02133749999999998,-0.004770500000000011,0.011337866956263258,0.018600743070356918,0.0020090207479397347,0.01281471717336131,0.9997428465443661
1763249751.939623,-0.493166,0.037565,-0.027624,0.000872,-0.064519,-0.008748,-0.009721,-0.0006794999999999995,-0.0008544999999999803,0.009730656940006327,0.018999167000622433,0.000918678671826268,0.002334533108723435,0.9998163519556702
1763249751.973701,-0.4268,0.019078,-0.033879,0.001314,-0.051485,-0.019214,-0.008749,0.016505500000000006,0.002734499999999973,0.008757887116767962,0.019529706690086517,0.00014631884564467266,-0.006411230866588299,0.9997887103114187
1763249752.00556,-0.353281,-0.010219,-0.045082,-0.000443,-0.055017,-0.021735,-0.009212999999999999,0.0312885,0.006021500000000013,0.009222275574730397,0.020546112813210872,1.6348477511293757e-05,-0.013948348921512288,0.999691602717237
1763249752.061168,-0.327433,-0.025291,-0.051378,-0.001658,-0.025721,-0.025036,-0.010257000000000002,0.04379350000000001,0.008960500000000038,0.010267091575109223,0.021436555700306167,0.000220594143514663,-0.02034862608040774,0.9995630839694769
1763249752.090862,-0.278615,-0.035854,-0.079812,-0.000643,-0.025565,-0.02136,-0.012230999999999999,0.0555735,0.01184750000000001,0.012242526862486662,0.022825910730750323,0.0007858031557308083,-0.02638313208102837,0.999390959862209
1763249752.120954,-0.260741,-0.044034,-0.07045,-0.003103,-0.015494,-0.035538,-0.013886000000000003,0.06552849999999999,0.014410499999999993,0.013898590696027675,0.02413856512219596,0.001211238015425782,-0.031491030808616025,0.9992117781306036
1763249752.180067,-0.262002,-0.056229,-0.030636,-0.001962,-0.015603,-0.025787,-0.016169000000000003,0.0754725,0.017059500000000005,0.016182967439139703,0.025103769420005587,0.0020309271690110214,-0.03663110084626747,0.9990114306385749
1763249752.24311,-0.271518,-0.052014,-0.028519,-0.001798,-0.00621,-0.007813,-0.017787000000000004,0.08585750000000003,0.019975500000000035,0.017801813967955007,0.025013129293532638,0.0027534110566905154,-0.04205282745740794,0.9987984390222762
1763249752.243412,-0.281034,-0.047799,-0.026401,-0.001642,0.003214,0.010047,-0.019399000000000003,0.09621050000000003,0.02300650000000004,0.019414570943183676,0.024922265627355705,0.003476528831768164,-0.04747337271096064,0.9985554933536381
1763249752.300044,-0.253704,-0.014124,-0.019486,0.003186,-0.001349,0.03975,-0.020813,0.10617949999999998,0.0260475,0.0208291604915716,0.025197748237621238,0.004009766511599756,-0.05269120806599945,0.9982848450461529
1763249752.327438,-0.2707,-0.015865,-0.00912,0.001192,0.008393,0.047692,-0.021185000000000002,0.1158245,0.0291285,0.021201321176046006,0.025356877339411735,0.00403798977892684,-0.05774721967327584,0.9980009930005811
1763249752.382416,-0.283301,-0.010749,-0.005137,0.000872,0.012521,0.05415,-0.021454,0.1265135,0.03267449999999994,0.021470422197131654,0.0254727182476808,0.004009621008309001,-0.06336910674811844,0.9976569650307613
1763249752.412256,-0.264173,-0.023639,0.009113,-0.000514,0.020642,0.047633,-0.021814000000000004,0.1368625,0.0362325,0.021830568500737425,0.025405147956717958,0.004081185059538,-0.0688384572761734,0.9972959386188452
1763249752.451,-0.294535,-0.028075,0.01426,-0.00044,0.046349,0.038827,-0.022448000000000003,0.1472565,0.039927500000000005,0.022464787491071666,0.02506303983420135,0.004372072683888441,-0.07436596057539194,0.9969064313777976
1763249752.483643,-0.341022,-0.056493,-0.01303,0.000141,0.065257,0.03674,-0.023998000000000002,0.1595205,0.04443149999999996,0.024015337788218436,0.0250083223584511,0.00503849149687932,-0.08090786282526001,0.9963950597776471
1763249752.542162,-0.286913,-0.115808,-0.050341,0.002053,0.072383,0.03362,-0.027511,0.1716165,0.04900850000000001,0.027529309713042044,0.025505525396033766,0.006570458284106111,-0.08738979560000562,0.9958259490880916
1763249752.570669,-0.224081,-0.105949,-0.059988,0.006373,0.074837,0.03423,-0.033129000000000006,0.1815775,0.05287149999999996,0.03314832872678094,0.026551992723717104,0.009063139116101182,-0.09276131637568398,0.9952930168427849
1763249752.600558,-0.175468,-0.021174,-0.015644,0.00351,0.078941,0.03786,-0.036483,0.18946450000000004,0.056056499999999954,0.03650268470956253,0.02728768367205534,0.010490019467532436,-0.09702179806144041,0.9948528094709839
1763249752.65552,-0.122141,0.079107,0.033427,0.003277,0.080586,0.030759,-0.035396000000000004,0.19547350000000002,0.05859250000000005,0.03541558034359769,0.027198120903453252,0.009869711042689994,-0.10025347923398922,0.9945411459184257
1763249752.686107,-0.081764,0.124904,0.039163,0.002014,0.076716,0.02254,-0.031267,0.1998855,0.06054349999999997,0.03128605267932389,0.026803065510305618,0.007772995738715958,-0.10260087588761463,0.9943310497432888
1763249752.741058,-0.037503,0.084997,0.03558,-0.001318,0.067065,0.011466,-0.026850000000000002,0.2025165,0.06177350000000004,0.02686814825176344,0.026315610850039743,0.005576615132002142,-0.10398965475695794,0.9942145350440154
1763249752.771039,0.018124,0.069475,0.029132,-5.5e-05,0.059684,0.016082,-0.023712,0.2032005,0.062152499999999944,0.02372922272222415,0.025757312733263562,0.004098161707961421,-0.10434537968800373,0.9941990784793269
1763249752.801078,0.039184,0.033775,0.009135,7.2e-05,0.05267,0.011542,-0.021507000000000002,0.2024805,0.06190450000000003,0.021523449920867584,0.025439160738875106,0.0030508803901985516,-0.1039435183412839,0.9942531298540536
1763249752.864997,0.055733,0.025085,-0.004906,0.001875,0.046935,0.011048,-0.020127000000000003,0.2007945,0.06122050000000001,0.020142883278496632,0.025351409754515386,0.002378473667475383,-0.10301844856533107,0.9943534824908414
1763249752.896081,0.076944,0.02769,-0.019768,0.002628,0.039518,0.007921,-0.019247000000000004,0.1987215,0.06036050000000004,0.01926248040393529,0.025621569124140764,0.0018618405445989992,-0.10187451373370658,0.9944655108131827
1763249752.926091,0.09338,0.017295,-0.03384,0.002674,0.032929,0.005202,-0.01881,0.1959055,0.05917550000000005,0.01882529702518156,0.02620448857724232,0.0014907719395989786,-0.10032051376828573,0.9946089165570036
1763249752.98106,0.089764,-0.009648,-0.030114,-0.000231,0.025821,-0.000822,-0.019053,0.1926295,0.057785500000000045,0.019068414050345848,0.026867811113348825,0.0014606933853764832,-0.09852579380730361,0.9947706545005498
1763249753.013557,0.088556,-0.035988,-0.01371,4.1e-05,0.015075,-0.002523,-0.020271,0.18956250000000002,0.056465499999999946,0.02028693977092047,0.027295651444352087,0.0020100923541542305,-0.09686802688240209,0.9949208472581457
1763249753.043573,0.098777,-0.060234,0.011214,-0.000407,0.007733,-0.001487,-0.022247000000000003,0.1862275,0.05502549999999995,0.02226372992471169,0.02727426170783608,0.0030972934006582263,-0.0950962983039237,0.9950895514830682
1763249753.101125,0.105309,-0.096203,0.052728,-0.000364,0.003773,-0.001029,-0.024643,0.18237550000000002,0.0533825,0.02466053759468598,0.026502850831370016,0.004635789838412503,-0.09308679665413148,0.9952944070168669
1763249753.142463,0.108966,-0.121573,0.097824,0.000368,0.000646,0.000688,-0.027743,0.1784235,0.051708500000000046,0.027761357134822348,0.024774589583046586,0.006823581303239727,-0.09106884168903084,0.9955129956573183
1763249753.172256,0.108927,-0.127755,0.1248,-0.002279,0.003103,0.001715,-0.031022,0.17439350000000003,0.05002949999999995,0.031041014254983755,0.02217959539020263,0.009352002495065138,-0.08904146251307479,0.9957370252989451
1763249753.229301,0.086014,-0.106789,0.102887,-0.004125,0.008793,0.0005,-0.033546000000000006,0.17054750000000002,0.0484675,0.03356537788969276,0.019612624032148602,0.011462241689472439,-0.08709762014366274,0.9959407445020693
1763249753.259731,0.066134,-0.075798,0.078877,-0.005003,0.00691,0.004412,-0.035592,0.16771350000000002,0.047329500000000024,0.035611605125099734,0.01760939589228077,0.013137874184300711,-0.08566762827404306,0.9960815041471893
1763249753.289699,0.054836,-0.056293,0.065119,-0.005469,0.004045,0.005127,-0.037055000000000005,0.1655045,0.046454499999999954,0.037074728479820615,0.015980227149842405,0.014390057717127234,-0.0845533996630863,0.9961868706144204
1763249753.344907,0.034723,-0.043748,0.044987,-0.00628,0.004939,0.006196,-0.038086,0.16382950000000002,0.045797500000000047,0.03810579973837612,0.01472807947550336,0.01530013009193443,-0.08370608826677717,0.9962641619978146
1763249753.374294,0.013481,-0.025456,0.02264,-0.006407,0.004629,0.006676,-0.03898,0.1629875,0.04546450000000002,0.0389998542329793,0.013987443953620865,0.015984714403245413,-0.08328607287784891,0.9962992875545363
1763249753.405463,-0.003756,-0.022837,0.003311,-0.005439,0.005623,0.005161,-0.039771,0.16288049999999998,0.04541549999999994,0.03979089041121306,0.01365987565968271,0.016492084829572595,-0.08324420775632384,0.9962990619336939
1763249753.469784,-0.0122,-0.01318,0.00099,-0.004721,0.00341,0.004182,-0.040574,0.16332750000000001,0.045578499999999966,0.04059392550180838,0.013621337597521793,0.016918875732431563,-0.0834880877994,0.9962720261061256
1763249753.49975,-0.023019,-0.018167,0.006752,-0.005368,0.003257,-0.000311,-0.041086000000000004,0.1640335,0.045844499999999955,0.04110594359191695,0.01355275075811612,0.017202473500605872,-0.08387034965635554,0.996235997292243
1763249753.529594,-0.034839,-0.01104,0.013721,-0.005132,0.004531,0.000111,-0.041433000000000005,0.16511950000000003,0.04625849999999998,0.04145295816700929,0.013282886916089195,0.01745642063897635,-0.0844607012099688,0.996185338300444
1763249753.568618,-0.039238,0.002733,0.011025,-0.006212,0.007057,0.000393,-0.041285,0.1664755,0.04678349999999998,0.04130494978459178,0.012975562602411698,0.017462768682836746,-0.08519335467921046,0.9961268889070222
1763249753.624836,-0.056335,0.005678,-0.007116,-0.006632,0.009421,7.9e-05,-0.041028,0.16821350000000002,0.04745949999999999,0.04104794278622367,0.012922015692818978,0.017337777506009462,-0.08612287248859715,0.9960498350062108
1763249753.654762,-0.069043,-0.00766,-0.026734,-0.006282,0.010318,-0.000511,-0.041285,0.1706125,0.04839349999999998,0.04130495265444045,0.013327891049872927,0.017342208631422933,-0.08739468549363497,0.9959336243281555
1763249753.744731,-0.052033,-0.002249,-0.031084,-0.004811,0.008027,0.000196,-0.041762,0.17251149999999998,0.0491355,0.04178196934568436,0.0140436370449062,0.017370606941668594,-0.08839195853009013,0.9958352775134269
1763249753.744828,-0.035022,0.003163,-0.035435,-0.003338,0.005739,0.000899,-0.042243,0.17440850000000002,0.04988150000000002,0.04226298344207913,0.01475926720843963,0.017399971483162132,-0.08938973572608583,0.9957353464503886
1763249753.774058,-0.027171,0.007195,-0.041948,-0.002053,0.004859,0.001864,-0.042809,0.17576350000000002,0.050416499999999975,0.042828992068411266,0.015621421380880003,0.01743305802875846,-0.09009455419917337,0.9956580893988957
1763249753.827403,-0.029397,0.004075,-0.0512,-0.003283,0.004975,0.002209,-0.043414,0.1770605,0.05092949999999996,0.043434006619288014,0.016625779883708124,0.01744238839038966,-0.09076488994214027,0.9955807758711939
1763249753.857389,-0.030621,0.01548,-0.056934,-0.003158,0.007546,0.005063,-0.043925000000000006,0.17837950000000002,0.05145549999999999,0.043945011466066504,0.017722994623713073,0.01737295239000014,-0.09144472074757866,0.9955008483342543
1763249753.897431,-0.029236,0.025346,-0.052167,-0.001761,0.005803,0.00527,-0.044196,0.17981049999999998,0.05202949999999995,0.04421601661330326,0.018864918308018352,0.017162356264082412,-0.09218076304188474,0.9954156294280859
1763249753.954359,-0.028022,0.029481,-0.047766,-0.001578,0.004436,0.001473,-0.044025,0.18112850000000003,0.052562499999999956,0.044045017063922984,0.019911450106684003,0.01674957636634614,-0.09285613809272282,0.9953395016097283
1763249753.982352,-0.020158,0.033887,-0.04255,-0.00083,0.003244,0.002477,-0.043664,0.18213450000000003,0.05297350000000001,0.043684007190726244,0.020859895895620387,0.01626838801875019,-0.09336562572052674,0.9952803947774265
1763249754.072474,-0.017252,0.025031,-0.04188,9.1e-05,0.001613,0.002277,-0.043496,0.18282150000000003,0.053253499999999954,0.04351600648367037,0.021710903376689742,0.01591749511441946,-0.0937072709000112,0.9952357597093879
1763249754.072694,-0.014345,0.016175,-0.041209,0.001013,-2e-05,0.002077,-0.04333,0.1835075,0.05353450000000004,0.04335000133628081,0.02256298307772083,0.015567478974127101,-0.094048892211421,0.9951901181517174
1763249754.102179,-0.025477,0.000255,-0.055611,0.000161,0.000628,0.000312,-0.043589,0.18426150000000002,0.05384049999999996,0.04360900746115459,0.023553872252334945,0.015395920683539724,-0.09442772746972446,0.9951339533013284
1763249754.133193,-0.025975,-0.012563,-0.043772,0.00026,-0.003359,0.000308,-0.044615,0.1852855,0.054253499999999955,0.04463502412582295,0.024559150715191623,0.015617772899807803,-0.09495979292429751,0.9950555617720918
1763249754.188058,-0.021203,-0.017141,-0.030296,0.000292,-0.001963,0.000499,-0.045649,0.18612450000000003,0.05459349999999996,0.045669032547835435,0.025272893037787923,0.015931863298816386,-0.09540263797365388,0.9949903483335888
1763249754.218544,-0.027802,-0.016428,-0.026761,-0.000429,-0.001155,-0.000369,-0.046541,0.18691750000000001,0.054916500000000035,0.04656103805844396,0.025819897515948907,0.016222296714289788,-0.09582394121013067,0.9949311243862748
1763249754.27346,-0.03312,-0.0153,-0.023328,-0.000552,-0.004007,0.000398,-0.047422,0.18795450000000002,0.05534349999999999,0.04744203814077516,0.02630977471148294,0.016522731481498427,-0.09638012911402266,0.9948596211581742
1763249754.303604,-0.028329,-0.002705,-0.022672,-0.000431,-0.006087,0.003609,-0.048048,0.1890735,0.05580549999999995,0.048068039814039724,0.02676040650011613,0.016698794496551084,-0.09697772838644884,0.994786585707364
1763249754.393383,-0.005393,0.006584,-0.013831,-0.001835,-0.003836,0.001927,-0.047785,0.18936950000000002,0.05592850000000005,0.047805039937793746,0.027069387659286792,0.016463936425437083,-0.09712521279160995,0.9947677518342234
1763249754.393631,0.017543,0.015874,-0.004989,-0.003239,-0.001586,0.000245,-0.047522,0.1896645,0.05605150000000003,0.04754203970713937,0.027379245814122512,0.016228066349662576,-0.09727161865866948,0.9947488421529945
1763249754.425937,0.032271,0.013567,0.005535,-0.002749,0.001387,-0.002265,-0.046929,0.18890050000000003,0.05573550000000005,0.04694903880349099,0.02744609330492924,0.015907541754109415,-0.09685041185908685,0.9947932749070852
1763249754.455584,0.038144,0.005377,0.019033,-0.002734,0.004242,-0.002149,-0.046273,0.1874925,0.055155500000000024,0.046293034450160725,0.027193024009787334,0.015659014360286615,-0.09609033376460996,0.9948778731439721
1763249754.455842,0.044018,-0.002812,0.03253,-0.002718,0.007099,-0.002036,-0.045617000000000005,0.18608249999999998,0.05457650000000003,0.04563703184436961,0.026939935497830688,0.0154104759447435,-0.09533018770712648,0.9949617642996404
1763249754.511106,0.026712,0.002933,0.051585,-0.000793,0.003405,0.002019,-0.045043,0.18463650000000004,0.05398550000000002,0.045063028286117836,0.02597390118238317,0.015419546021792333,-0.09457393242267603,0.9950594783046693
1763249754.542273,0.007674,-0.000463,0.054801,-0.001138,0.001104,0.001527,-0.044141,0.1840905,0.05376649999999994,0.04416101986995862,0.02492226602152986,0.015273291674311743,-0.09430018125256066,0.9951146079892095
1763249754.576833,-0.006931,-0.0053,0.057287,-0.000522,0.004852,0.000551,-0.043291,0.1839845,0.05372849999999996,0.04331100608779718,0.023723395745679228,0.015192837936556017,-0.09427016136173355,0.9951479864053187
1763249754.641605,-0.008784,0.013897,0.062055,0.000636,0.003177,0.003845,-0.042304,0.1843185,0.05387249999999999,0.04232398208774204,0.022541489969753577,0.015030186762564884,-0.09447478845918696,0.9951585245886294
1763249754.676962,-0.019884,0.00935,0.046553,-0.001484,0.006636,0.00409,-0.041038000000000005,0.1848955,0.05411949999999999,0.04105794221416417,0.02143923397846357,0.014696967228706365,-0.09480603127125758,0.9951563569787858
1763249754.706847,-0.01591,0.035842,0.041356,0.00434,0.007317,0.00451,-0.040083,0.1857415,0.05447550000000001,0.040102906007725654,0.020638174418435233,0.014433675818635179,-0.09527789575637793,0.9951320803487714
1763249754.736915,-0.011523,0.000727,0.030277,-0.000671,0.012564,-0.004289,-0.038807,0.18619249999999998,0.05467449999999996,0.03882684351979453,0.01988358264444195,0.01399170593136823,-0.09553215328870146,0.9951293800277308
1763249754.792386,0.011534,-0.013949,0.033578,0.000699,0.011251,-0.00418,-0.038366000000000004,0.18607050000000003,0.0546295,0.03838581749148827,0.019126046327148257,0.01399155067476051,-0.09548746568205312,0.9951485189454016
1763249754.846124,0.032974,-0.012043,0.042389,0.001849,0.015668,-0.000599,-0.038077,0.1851175,0.05424149999999994,0.03809680159273808,0.018236985171445137,0.014117062008822932,-0.09500094883152253,0.9952099982683081
1763249754.875568,0.029468,-0.012112,0.026518,0.00055,0.012717,0.002594,-0.038103,0.18404550000000003,0.053802499999999975,0.03812280235432246,0.017537211487956193,0.014350761756260575,-0.09444734441287674,0.9952719231363845
1763249754.940711,0.026996,-0.009386,0.017493,0.000727,0.009542,0.003825,-0.038257,0.18309350000000002,0.053412499999999974,0.03827680893792896,0.017211749389898168,0.014536107886142915,-0.09394706221754617,0.9953222627627468
1763249754.941039,0.024524,-0.00666,0.008469,0.000904,0.006366,0.005055,-0.038412,0.1821415,0.05302249999999997,0.03843182711726544,0.01688721164392273,0.014721346441287367,-0.09344692487504677,0.9953721797766132
1763249754.994865,0.015665,0.001396,0.006187,-0.000667,0.004941,0.004799,-0.038430000000000006,0.1814905,0.05275850000000004,0.03844982416106424,0.016714315593793355,0.01478678215935405,-0.09310363607534328,0.995406296783958
1763249755.027374,0.008171,0.003748,0.003119,0.0003,0.006535,0.003243,-0.038343,0.18116150000000003,0.05262650000000002,0.038362816068124694,0.01660483410701222,0.014775681334747486,-0.09292927715267925,0.9954245868840358
1763249755.056864,-0.003325,0.004305,-0.004421,0.001717,0.005117,0.00235,-0.037995,0.1810795,0.052597499999999964,0.03801479416906059,0.016580047877021133,0.014602492292750948,-0.0928829732682668,0.9954318773819142
1763249755.120603,0.001564,-0.000303,-0.001928,-0.000637,0.002849,0.000218,-0.037885,0.1811775,0.05263850000000003,0.0379047874070106,0.016628669201012556,0.014529899314822656,-0.0929343307741582,0.9954273351430851
1763249755.151201,0.003549,-0.013357,-0.006362,-0.001867,0.002305,-0.001067,-0.038193000000000005,0.1810345,0.052576500000000026,0.038212810647130176,0.016698483129455946,0.01467119448769022,-0.0928571379553304,0.9954312978022263
1763249755.181043,0.001482,-0.011443,-0.002828,-0.00043,-0.001157,0.001255,-0.038773,0.1809465,0.05253450000000004,0.03879284069772998,0.01679975602046493,0.014943918487376976,-0.09281078297930968,0.9954298599402487
1763249755.244166,-0.000361,-0.011796,-0.002193,-0.002107,-0.002112,0.000549,-0.039289000000000004,0.18087350000000002,0.05249950000000003,0.0393088656391629,0.016881254077198534,0.015188756211330545,-0.09277246502177461,0.9954283473356168
1763249755.274239,0.006385,-0.010825,0.00795,-0.002284,-0.002213,0.000475,-0.039753000000000004,0.1807645,0.05244950000000004,0.03977289703687754,0.01680263552397594,0.01545501101531666,-0.0927199783879503,0.9954304695365231
1763249755.302305,0.004669,-0.014115,0.009618,-0.004207,-0.002215,0.000139,-0.040112,0.18056850000000002,0.05236750000000001,0.040131905087393706,0.016614755231350833,0.015700597026977885,-0.09262381620240512,0.9954387323354973
1763249755.357399,0.005679,-0.011532,0.011938,-0.004008,-0.000795,-3.4e-05,-0.040417,0.1802565,0.05223750000000005,0.040436925669427276,0.01639517597697725,0.01592727830990511,-0.09246452395872978,0.9954535809465996
1763249755.387381,0.007799,-0.0131,0.009554,-0.002719,-0.000841,0.001597,-0.040943,0.18000549999999998,0.0521315,0.04096294330447233,0.016199763774602475,0.01626159533636577,-0.09234007757112145,0.9954629266049654
1763249755.417443,0.011329,0.009335,0.008844,-0.001545,0.002024,0.002719,-0.040806,0.17954950000000003,0.05194949999999998,0.040825933443877443,0.015957295134959235,0.016266114650453672,-0.09210182594242759,0.9954888406728751
1763249755.479841,0.002704,-0.002148,0.012076,-0.0038,0.002226,-0.000998,-0.040456000000000006,0.1792455,0.05182949999999997,0.04047592700870023,0.015739745410333232,0.01614987807858625,-0.09194196726634389,0.9955089735947433
1763249755.539958,0.001158,-0.000584,0.005875,-0.003769,0.002303,-5e-06,-0.040368,0.17913850000000003,0.051787499999999986,0.04038792169106581,0.01565758886036328,0.01612941297912022,-0.09188667741887414,0.9955157057831627
1763249755.540235,-0.000388,0.000981,-0.000325,-0.003737,0.00238,0.000987,-0.04028,0.1790315,0.0517455,0.04029991645778799,0.01557445305952503,0.01610896533852128,-0.09183237145696353,0.9955223519340032
1763249755.594983,-0.00064,0.003669,0.003443,-0.003554,0.002449,0.002291,-0.040288000000000004,0.17904350000000002,0.05175050000000003,0.040307914682270136,0.015547537341210376,0.016121250132043418,-0.09183888920194447,0.9955219725385055
1763249755.62495,-0.004489,0.002797,-0.000101,-0.002462,0.000965,0.000614,-0.040065,0.1791395,0.05179149999999999,0.04008490383058267,0.015484809289373857,0.016022606987245974,-0.09189083908033795,0.9955197488948753
1763249755.681502,-0.00455,0.010207,-0.003451,-0.000851,0.001837,0.000673,-0.039758,0.1792065,0.051821499999999965,0.03977789085443774,0.015480382426442084,0.01586405872950855,-0.09192480364162971,0.9955192212488947
1763249755.70972,-0.014373,0.000786,-0.020712,-0.001813,0.002181,-0.000901,-0.039762000000000006,0.17960550000000003,0.05198250000000004,0.039781888100724846,0.01576486274805583,0.015778293207826467,-0.09213012851266596,0.9954971391150367
1763249755.743572,-0.013559,0.007362,-0.024253,-0.002252,0.003961,0.000555,-0.039979,0.1801855,0.052213500000000024,0.03999890450803447,0.016283777624551094,0.015732936103634538,-0.09242697581862046,0.9954619869431767
1763249755.798625,-0.015352,0.009024,-0.035022,-0.002499,0.004198,-0.000338,-0.040191000000000004,0.1807895,0.05245549999999999,0.04021091341882976,0.016917891944308504,0.015649928373828774,-0.09273307263008468,0.9954242522234619
1763249755.8427,-0.016128,0.009138,-0.029827,-0.002495,0.002446,0.001328,-0.040349,0.1814715,0.052730500000000013,0.04036891678325641,0.017554213670860203,0.01553612217564651,-0.09308075955822633,0.9953825649920762
1763249755.872576,-0.013003,0.013838,-0.030811,-0.002853,0.00322,0.001617,-0.040316000000000005,0.18199550000000003,0.05294350000000003,0.040335914673638715,0.018195982621337342,0.015322826211880688,-0.09334258760585563,0.9953498272227548
1763249755.902415,-0.012257,0.023059,-0.023425,-0.000892,0.002841,0.002528,-0.040158,0.18246650000000003,0.05313650000000003,0.0401779075076734,0.018802628338366052,0.015053959062877254,-0.09357520151204726,0.9953208131783854
1763249755.958704,-0.007872,0.029697,-0.017294,-0.000614,0.002156,0.001028,-0.039421,0.1827745,0.05326849999999994,0.03944088187409772,0.019217924552883046,0.014541368869831647,-0.09372072757952989,0.9953068095764415
1763249755.988636,-0.009718,0.022967,-0.017619,-0.001211,0.001224,0.000323,-0.038637000000000005,0.18317850000000002,0.05344249999999995,0.03865683326559591,0.019601980220083595,0.014013611839902615,-0.09391838366496144,0.9952882588800157
1763249756.047671,-0.012181,0.028028,-0.017672,-0.00094,0.002349,6.6e-05,-0.037915000000000004,0.18360150000000003,0.053623500000000046,0.03793479022977031,0.020031202198083586,0.013503649177307708,-0.09412589093451243,0.9952671596376422
1763249756.078252,-0.014765,0.025978,-0.026182,-0.000979,0.003119,0.000563,-0.037232,0.1841855,0.05387050000000004,0.03725174519584344,0.020564493496286806,0.012980519734939067,-0.09441544832564051,0.9952358166947772
1763249756.147364,-0.007865,0.025568,-0.023252,-0.000747,0.002959,0.001523,-0.036637,0.1844475,0.05398550000000002,0.036656700942071026,0.02102477333209293,0.012528868620004234,-0.09453589637857765,0.9952205537735521
1763249756.147409,-0.000966,0.025157,-0.020322,-0.000516,0.002798,0.002482,-0.036043000000000006,0.1847105,0.054101500000000025,0.03606265077146509,0.021484944069822227,0.0120762202752847,-0.09465622566593326,0.9952048839434317
1763249756.187424,-0.004772,0.011822,-0.018259,-0.000575,-0.000146,0.001181,-0.035842,0.18494549999999998,0.054200499999999985,0.03586163492018998,0.021917165134342914,0.01183797864277265,-0.09476574554196224,0.9951878986432678
1763249756.242638,-0.005167,0.022903,-0.007578,-0.000692,0.00092,0.003593,-0.035542000000000004,0.18523050000000002,0.05432249999999994,0.03556159766420289,0.02219706802579381,0.011594585800602733,-0.09490585451686578,0.9951712086518552
1763249756.274978,-0.009081,0.010293,0.000406,-0.002847,0.002153,-0.001641,-0.034820000000000004,0.1854905,0.0544405,0.03483952141127573,0.022290291759022186,0.011186513925305775,-0.09503525802400188,0.9951614464657522
1763249756.304783,-0.002057,0.012465,0.000679,-0.001204,0.005386,0.001116,-0.0344,0.1857145,0.054538500000000045,0.03441948480670515,0.02226870123414928,0.010970532840649973,-0.09515258774524728,0.9951531225896442
1763249756.344896,0.012691,0.011703,-0.000142,-0.00174,0.010879,0.001078,-0.034049,0.18547249999999998,0.05444450000000001,0.034068449970542626,0.022310560497876913,0.010777610983719944,-0.09501712311366883,0.9951672363512357
1763249756.400007,0.017721,0.012109,0.00154,-0.003467,0.025053,0.002831,-0.033725000000000005,0.18491950000000001,0.05422349999999998,0.033744406006759785,0.022320302524676552,0.010611469796256223,-0.09471542716991133,0.995197562627638
1763249756.441889,0.020109,0.033877,-0.004726,-0.001806,0.053011,-0.002083,-0.032869,0.18419449999999998,0.053941499999999976,0.032888297368565286,0.022386349725508032,0.010152209654193506,-0.09431471510614113,0.9952389253337873
1763249756.469937,0.030204,0.02427,-0.006906,-0.002022,0.077625,0.000783,-0.032206,0.18367050000000001,0.05373949999999994,0.032225203419911114,0.022616237099690958,0.009741468818290137,-0.09401837986877687,0.9952658709367881
1763249756.524832,0.098389,0.026256,-0.013475,-0.001879,0.108384,0.004969,-0.004804000000000003,0.27448399999999995,0.06808700000000001,0.004804987596826911,0.009649569110186862,0.004420485381152583,-0.14834712150795798,0.9888783932644529
1763249756.554774,0.189835,0.017649,-0.027195,-0.003737,0.131063,0.001783,-0.003916000000000003,0.269142,0.06595600000000001,0.003916837688365388,0.010109131025546888,0.0038796686269194224,-0.14548340471943957,0.9893014366675575
1763249756.609451,0.304638,0.02784,-0.02531,-0.002799,0.127647,0.010223,-0.0031480000000000015,0.259846,0.062317999999999985,0.0031486895886719754,0.01072532285116191,0.0033879717004076815,-0.14052099487783956,0.9900138075279747
1763249756.639843,0.39309,0.02529,0.007095,-0.004885,0.111263,0.023412,-0.0022199999999999998,0.24678599999999998,0.05738299999999996,0.0022205179229501035,0.011035732706486053,0.00291275927842332,-0.13358831035686689,0.9909711861467085
1763249756.678556,0.428129,0.025729,0.039209,-0.005368,0.102847,0.032136,-0.0008510000000000011,0.231438,0.05185600000000001,0.0008512138622043738,0.010660649557742452,0.0023778966584823234,-0.1254989675478324,0.9920336210547085
1763249756.764994,0.445426,0.028018,0.047194,-0.007178,0.101615,0.039188,0.0009929999999999974,0.21468600000000002,0.046154999999999946,-0.0009932723742126191,0.009566022563314404,0.001751976623235776,-0.11673133973895111,0.9931159127277035
1763249756.765171,0.462722,0.030307,0.055179,-0.008955,0.100485,0.045941,0.0028049999999999985,0.19783199999999998,0.04075200000000001,-0.002805807431854837,0.008471080603798689,0.0011267144699369878,-0.10795418387998987,0.9941191404910744
1763249756.794807,0.449414,0.040018,0.043007,-0.01168,0.092996,0.047362,0.004892999999999998,0.180806,0.03563699999999992,-0.004894546482606815,0.007468951080604312,0.00032615194760144724,-0.09912655363455519,0.9950467500370012
1763249756.849997,0.445228,0.066918,0.029475,-0.011589,0.078478,0.050291,0.007337,0.16411499999999998,0.030957000000000012,-0.0073395478238505694,0.006813268603621565,-0.0007333041400357087,-0.09050050245547753,0.9958728335943697
1763249756.8798,0.432573,0.079778,0.014087,-0.010021,0.068238,0.04757,0.010270999999999995,0.147642,0.026666999999999996,-0.010275016887057793,0.006505293798777059,-0.0021102795648954165,-0.08200844594770741,0.9966081690744822
1763249756.909762,0.40801,0.089938,0.005755,-0.010898,0.052354,0.04464,0.013580999999999996,0.131704,0.022824999999999984,-0.01358698309607409,0.006485606767310166,-0.0037288125044717874,-0.0738132279211357,0.9972440224167949
1763249756.966145,0.395098,0.102244,-0.023386,-0.005957,0.051888,0.041844,0.017382999999999996,0.11638099999999998,0.019426999999999972,-0.017391738211514247,0.006696894557325299,-0.005630613813622119,-0.06594764404810809,0.9977847242947118
1763249756.996096,0.394984,0.126752,-0.058188,-0.003309,0.045896,0.037138,0.02173,0.10097999999999999,0.016305000000000014,-0.021742646156967867,0.007617692474074717,-0.007905083227679612,-0.05803735792788874,0.9982540485794605
1763249757.042112,0.337261,0.028578,-0.07585,-0.020715,0.014683,0.016475,0.025070999999999996,0.08690999999999999,0.013657999999999948,-0.025087188202729004,0.009273932421991073,-0.009760404182450987,-0.0507934911354769,0.9986184205921188
1763249757.069931,0.333958,-0.008278,-0.023302,-0.002186,-0.016485,0.0342,0.024755,0.073884,0.011232999999999937,-0.024770817040848152,0.010301213681785815,-0.009667847934357557,-0.04413324261053045,0.9989257603093837
1763249757.124768,0.321174,0.058173,-0.014397,0.009304,-0.024817,0.050696,0.025658,0.060918,0.009054999999999924,-0.025674836730542487,0.01071790679558077,-0.01009867158031453,-0.03753626931471273,0.9991867552125416
1763249757.154787,0.262781,0.090966,-0.011068,0.004557,-0.044299,0.026768,0.028955999999999996,0.04926,0.007373999999999992,-0.028976961001176152,0.011035273807903407,-0.011729166389500166,-0.03160543779044535,0.999370674819842
1763249757.209762,0.239034,0.075578,-0.003864,0.004408,-0.085985,-0.004735,0.032082,0.039691000000000004,0.006129999999999969,-0.03210736744843567,0.01139902904613172,-0.01328578310224183,-0.02673636197700323,0.9994892280822242
1763249757.239722,0.23874,-0.003471,0.01176,0.001988,-0.11021,-0.038564,0.033528,0.030262999999999984,0.004912999999999945,-0.033555633648357376,0.011352705407793151,-0.01394819518838518,-0.02196964038092454,0.999596868158581
1763249757.269642,0.285121,-0.063318,0.012046,-0.000626,-0.139411,-0.047178,0.032279999999999996,0.019871,0.0035169999999999924,-0.032305685653273165,0.011171765326358137,-0.013233516603337867,-0.016743199305091386,0.9997098233861824
1763249757.370928,0.424192,-0.079686,0.031832,0.000743,-0.171076,-0.049457,0.027721999999999997,0.0032799999999999913,0.0013879999999999448,-0.027741350495118812,0.010474166917854782,-0.0107697209983914,-0.008441987692260955,0.9998515078654417
1763249757.37115,0.563263,-0.096053,0.051618,0.002148,-0.202716,-0.052035,0.023129999999999998,-0.013336,-0.00044200000000005346,-0.023144065635981155,0.009776599488645977,-0.00830476397223593,-0.0001391996822393575,0.9999177114249215
1763249757.405796,0.694471,-0.015078,0.070656,0.006179,-0.186021,-0.039147,0.020571,-0.038164000000000003,-0.00243900000000008,-0.020582523295055513,0.00859427669868096,-0.0068019627027526685,0.01226143518460405,0.9998647553137529
1763249757.435787,0.667851,0.038584,0.076697,-0.001593,-0.131306,-0.020349,0.021345999999999997,-0.06613000000000001,-0.003783000000000092,-0.021358227814870026,0.00722347727163724,-0.006979447064592468,0.02622019924218393,0.9996057271977181
1763249757.490952,0.495495,0.06836,0.072433,-0.001836,-0.070726,0.016491,0.023377999999999996,-0.09005500000000001,-0.004246000000000083,-0.023392329241615564,0.005741740113758544,-0.007834115429124782,0.038139433546199475,0.9992252211912409
1763249757.52083,0.289621,0.094637,0.040099,0.001276,-0.040245,0.02738,0.026688999999999997,-0.105934,-0.004141000000000061,-0.02670706041165838,0.004542675422334268,-0.009394677125569174,0.04604271125989822,0.9988849647890148
1763249757.550345,0.161388,0.110597,0.015417,0.005162,-0.038038,0.020728,0.030829999999999996,-0.114944,-0.0038449999999999873,-0.0308535544163826,0.003886412705121745,-0.011423134321424376,0.05053233674889585,0.9986495334907319
1763249757.642917,0.114516,0.106112,0.006682,0.004686,-0.032432,0.002792,0.035498,-0.11925200000000001,-0.0035160000000000746,-0.03552883256566117,0.00375219448449668,-0.01374802302509486,0.05269478612155736,0.9985089746291995
1763249757.643221,0.067644,0.101627,-0.002053,0.004213,-0.026826,-0.015185,0.04016499999999999,-0.12356,-0.003146000000000093,-0.040204413008755976,0.003617324667442223,-0.01607310100270965,0.05485578660274461,0.9983583590387779
1763249757.679901,0.018475,0.072235,-0.012368,0.003527,-0.017863,-0.014256,0.04374499999999999,-0.12551700000000002,-0.0028690000000000104,-0.04379188018364444,0.003692752889559515,-0.01786547359829938,0.055849131507281824,0.998272539409498
1763249757.73584,-0.016992,0.038636,-0.020927,0.000825,-0.006515,-0.007913,0.046238,-0.125636,-0.0026970000000000605,-0.04629060596901005,0.003957756153574744,-0.019123389013452754,0.055929934604607434,0.9982436949833409
1763249757.765894,-0.037183,0.008242,-0.02987,-0.001068,0.000283,-0.001628,0.047286999999999996,-0.124562,-0.002650000000000041,-0.04734211736168187,0.004411579822719759,-0.019666979535151414,0.055419745519858045,0.998259685495686
1763249757.797669,-0.064663,-0.016482,-0.045599,-0.001252,0.00703,-0.000295,0.047104999999999994,-0.122521,-0.0027080000000000437,-0.047159693349824214,0.005124570543381179,-0.019603260284983128,0.05443355633295012,0.9983117944349315
1763249757.850896,-0.10078,-0.013588,-0.057472,-0.000675,0.00807,0.001503,0.046370999999999996,-0.119037,-0.002827000000000024,-0.046423932486723024,0.006176613103432724,-0.01928213204853592,0.0527409558201368,0.9984029449142323
1763249757.8808,-0.128509,-0.004389,-0.055854,-0.002471,0.006329,-0.00161,0.04602099999999999,-0.114149,-0.002925999999999984,-0.04607311393016186,0.007329339445288273,-0.019166047125206507,0.05035213649017349,0.9985207087345586
1763249757.943208,-0.136013,0.003205,-0.043011,-0.001891,0.003747,0.000448,0.045973,-0.10857900000000001,-0.002986000000000044,-0.04602497420283126,0.00827359740039239,-0.01920128009095961,0.047613976099563526,0.9986469685073475
1763249757.971847,-0.12022,0.015736,-0.030965,-0.000215,2.5e-05,0.004262,0.046380000000000005,-0.103231,-0.002983000000000069,-0.046432922669514654,0.008967917460250517,-0.019459636650474642,0.044976148169535775,0.9987582515772723
1763249758.001605,-0.106755,0.021788,-0.016292,-0.000225,0.000903,0.002387,0.047132999999999994,-0.09863000000000001,-0.0029290000000000704,-0.047187743322325684,0.009390062420819403,-0.019878688190345817,0.04270070919686295,0.998845991090543
1763249758.054666,-0.113978,0.012391,-0.008758,8.4e-05,0.004613,-0.001651,0.04786599999999999,-0.09421700000000001,-0.0028560000000000807,-0.04792255174934801,0.009543867474911606,-0.020276503821158167,0.040505496603976114,0.9989279667379811
1763249758.084669,-0.128553,-0.006196,0.003711,0.000141,0.002151,-0.002876,0.04782,-0.089205,-0.002811000000000008,-0.04787644966693547,0.009581712175024766,-0.02028228630647588,0.037999506437709135,0.9990259541996233
1763249758.124763,-0.138038,-0.030117,0.019531,-0.001388,0.002632,-0.00583,0.047112,-0.083814,-0.0027810000000000334,-0.047166699265751316,0.00930132137932054,-0.019940539277811364,0.03528426602853074,0.9991350663872911
1763249758.154662,-0.128299,-0.057548,0.033941,-0.001764,0.001463,-0.004609,0.045274999999999996,-0.078464,-0.0028000000000000247,-0.045325314995348503,0.008728332099782037,-0.019014816139996175,0.03256887240045451,0.999250479878034
1763249758.244728,-0.102044,-0.061169,0.040876,-0.002005,0.001999,-0.001357,0.042409,-0.07454200000000001,-0.0028930000000000344,-0.042452999912396205,0.007812590784730573,-0.01754422642352854,0.03054752754487537,0.9993487940180472
1763249758.24521,-0.075788,-0.064791,0.047812,-0.002252,0.002531,0.001871,0.03955,-0.07061400000000001,-0.00296200000000002,-0.03958821527862603,0.006897381497813932,-0.016073768568822568,0.02852588321875276,0.9994400102452672
1763249758.297484,-0.051915,-0.052142,0.045681,-0.002547,0.003116,0.002615,0.037098,-0.06797,-0.003027000000000002,-0.03713164841936194,0.005943556056265387,-0.014795765947571001,0.02714942527125988,0.9995042111761566
1763249758.326766,-0.040356,-0.029154,0.035635,-0.003099,0.003181,0.003842,0.035517,-0.06617800000000001,-0.003059000000000034,-0.03554789223857835,0.0051016586897456835,-0.013957487771936396,0.026209008076639354,0.9995460217065287
1763249758.357252,-0.045528,-0.01285,0.022464,-0.001776,0.003262,0.001865,0.034686999999999996,-0.064698,-0.003054000000000001,-0.03471649737677481,0.004515239404105273,-0.013508670243846716,0.02543961647868288,0.9995748868167829
1763249758.412164,-0.050987,0.000234,0.002913,-0.001926,0.003531,0.001653,0.034483,-0.062948,-0.0030000000000000027,-0.034512162559449694,0.004296248408054441,-0.013397132093319105,0.024552655586870444,0.9995995329155186
1763249758.442175,-0.057671,0.005409,-0.015886,-0.001674,0.003737,-0.000218,0.034648,-0.060799000000000006,-0.002906000000000075,-0.03467741338171453,0.004435330720586566,-0.013495301340386186,0.023483468840366294,0.9996232947337487
1763249758.499734,-0.063874,0.000725,-0.027271,-0.00211,0.004542,-0.00261,0.034851,-0.058267000000000006,-0.0027880000000000127,-0.034880768866525476,0.004868995302636962,-0.01363157579585661,0.022234962241671704,0.9996479777802665
1763249758.545011,-0.058829,-0.00937,-0.027129,-0.001631,0.001467,-0.002584,0.034721999999999996,-0.055629000000000005,-0.002678000000000069,-0.03475156568755629,0.005419674117086017,-0.013611697100309607,0.020938452754283982,0.9996734116854217
1763249758.574492,-0.042627,-0.019213,-0.015208,-0.002433,-0.000929,-0.003223,0.03417,-0.05350300000000001,-0.002610000000000001,-0.03419866476000601,0.005819456731369153,-0.013368052688988549,0.019888854679731543,0.9996958850321355
1763249758.602987,-0.02482,-0.028948,0.000737,-0.001388,-0.003183,-0.001895,0.03301,-0.052083000000000004,-0.002607000000000026,-0.03303679090026016,0.006000396732696279,-0.01280294918922173,0.0191812060661464,0.9997160402158988
1763249758.657185,-0.014198,-0.025248,0.013628,-0.002515,0.000323,-0.001794,0.031964,-0.051439000000000006,-0.0026329999999999965,-0.03198918963655496,0.005820702071225605,-0.012268218161423225,0.018846993527124316,0.9997301641370687
1763249758.685814,-0.017185,-0.028839,0.019127,-0.002143,0.001953,-0.000191,0.030833,-0.050836000000000006,-0.0026639999999999997,-0.03085653332206508,0.005482835831180631,-0.011678300334257747,0.018527225728961753,0.999745116376839
1763249758.740754,-0.026354,-0.028495,0.014793,-0.001801,0.002213,0.000847,0.029703,-0.04999000000000001,-0.0026800000000000157,-0.02972499067610465,0.005166448902065913,-0.011092361614878577,0.01808664891612025,0.9997615417941081
1763249758.770946,-0.040668,-0.030176,0.013137,-0.002759,0.001075,-0.000203,0.028560000000000002,-0.048669000000000004,-0.00267100000000009,-0.02858043114422315,0.00490347340014824,-0.010504360770570787,0.017410970177794024,0.9997812123014134
1763249758.800931,-0.046687,-0.024839,0.014761,-0.002268,0.000476,0.000518,0.0274,-0.046895000000000006,-0.002635000000000054,-0.02741892822184886,0.00461396568819259,-0.009906198532331436,0.01650769519882457,0.9998040180707862
1763249758.84157,-0.046228,-0.021781,0.026652,-0.002416,-0.001183,-0.000329,0.026444000000000002,-0.044965000000000005,-0.002574999999999994,-0.026461771691451072,0.0042019111365264265,-0.009402441224176114,0.015520870199997504,0.9998265052648192
1763249758.903766,-0.036492,-0.01737,0.028102,-0.001521,-0.00066,-3.9e-05,0.025654999999999997,-0.04329500000000001,-0.0025180000000000202,-0.02567182608114773,0.003652330719034267,-0.008970497771929839,0.01466031197557753,0.9998456210349783
1763249758.933493,-0.023978,-0.015309,0.021543,-0.001002,0.000469,-0.000823,0.025097,-0.04206300000000001,-0.0024720000000000297,-0.02511320419444619,0.003120587535451618,-0.008654080698626049,0.014021154786793192,0.9998593781323153
1763249758.963077,-0.019404,-0.014635,0.015662,-0.001308,0.002475,-0.001139,0.024452,-0.04116100000000001,-0.0024490000000000345,-0.02446746355790102,0.0027574948261613955,-0.008304717846759825,0.013553345156638533,0.9998698588910632
1763249759.018491,-0.017968,-0.017075,0.012643,-0.000918,0.001749,-0.00127,0.023772,-0.04039100000000001,-0.0024340000000000472,-0.02378672676759877,0.0024622649661545973,-0.007942739723276627,0.013154735094881975,0.9998788942074476
1763249759.048269,-0.012286,-0.018946,0.018057,-0.001799,-0.000179,0.000149,0.022959,-0.039767000000000004,-0.0024330000000000185,-0.022972874690717578,0.0021449707455595784,-0.007512782270145775,0.012828512841656708,0.9998871868672653
1763249759.102201,-0.016831,-0.021171,0.02714,-0.001003,0.000692,6.3e-05,0.022122999999999997,-0.03916900000000001,-0.0024340000000000472,-0.022136011525988007,0.001633192358570836,-0.007055703854612976,0.012508078754123462,0.9998955433902667
1763249759.140818,-0.02198,-0.029132,0.040717,-0.002016,-0.000244,0.000299,0.021136999999999996,-0.038424000000000014,-0.002431000000000072,-0.021149047972953347,0.0009238504171910848,-0.006507905446342038,0.012106911674187365,0.9999051036757546
1763249759.17081,-0.027128,-0.03091,0.045937,-0.002095,-9.6e-05,-8.8e-05,0.020039,-0.03750300000000001,-0.0024200000000000887,-0.020050025651299437,1.2700048775168406e-06,-0.005888656267814275,0.01161107039674211,0.9999152497936955
1763249759.200791,-0.033931,-0.035731,0.048228,-0.002501,0.000685,-0.001037,0.018825999999999996,-0.03638100000000001,-0.00239900000000004,-0.018835941596850363,-0.0009913688435444932,-0.005203965077730038,0.011011647625195957,0.9999253369886496
1763249759.262278,-0.041424,-0.04182,0.049299,-0.002485,0.000655,-0.001043,0.017474999999999997,-0.03495200000000001,-0.0023600000000000287,-0.017483825641145,-0.0020249663509396263,-0.004445369299575316,0.010259290679110819,0.99993544049495
1763249759.292149,-0.044761,-0.04277,0.044878,-0.002664,0.000999,-0.001436,0.015934999999999998,-0.033319,-0.002311000000000063,-0.01594262423274488,-0.003012072536235522,-0.003595156984396144,0.009407108985537418,0.9999447527567852
1763249759.322076,-0.039575,-0.045136,0.042886,-0.001509,0.001139,-0.001391,0.014288000000000002,-0.03170100000000001,-0.0022619999999999862,-0.014294440503111065,-0.00393998579887859,-0.002693684772955863,0.008566212938608729,0.9999519191291845
1763249759.377121,-0.034848,-0.051102,0.033126,-0.002482,0.001127,-0.003138,0.012535999999999999,-0.03028900000000001,-0.0022250000000000325,-0.012541329749396458,-0.0047601258797767875,-0.0017466969376410072,0.007833854130399696,0.9999564595425545
1763249759.467093,-0.028067,-0.036161,0.028795,-0.002339,0.003362,-0.001259,0.011272999999999998,-0.02951300000000001,-0.0022140000000000493,-0.01127754804748974,-0.005407580588745762,-0.0010596872977553828,0.007426818836890436,0.9999572378341842
1763249759.467319,-0.021286,-0.021219,0.024464,-0.002198,0.005596,0.000617,0.010012,-0.02873500000000001,-0.002199000000000062,-0.010015875209090176,-0.006054033055257599,-0.00037272125483780354,0.007019788906402848,0.9999569652371755
1763249759.49706,-0.026514,-0.013361,0.01194,-0.001944,0.005396,0.000274,0.009328999999999997,-0.027781,-0.0021520000000000428,-0.009332494441262836,-0.006482334942320221,8.026095599193013e-06,0.006529558186743818,0.9999576711737169
1763249759.549798,-0.029834,-0.011103,-0.001931,-0.002552,0.003842,-8.5e-05,0.008879999999999999,-0.026629000000000014,-0.002080000000000082,-0.008883289889793575,-0.006562676695027461,0.00024295308023118258,0.0059501998672306005,0.9999607329140167
1763249759.57981,-0.029284,-0.019227,-0.014106,-0.002028,0.003429,-0.001943,0.008239,-0.025411000000000003,-0.0020080000000000098,-0.008241980470910584,-0.006375388084302113,0.00055368043046943,0.005347153293906198,0.9999652273036332
1763249759.609655,-0.03308,-0.020886,-0.018918,-0.001925,0.004017,-0.001996,0.0074,-0.024149000000000004,-0.0019370000000000775,-0.007402583925004865,-0.0060365094550445175,0.0009508430778042095,0.004727243986208125,0.9999701543622866
1763249759.665021,-0.030451,-0.020183,-0.020214,-0.001778,-0.000146,0.000131,0.006447999999999999,-0.022787,-0.001859000000000055,-0.006450164524345037,-0.005594562670524321,0.0013963889386928471,0.004059247896123606,0.999975136427389
1763249759.694826,-0.023393,-0.012269,-0.011992,-0.002462,-0.00143,0.001159,0.005705999999999999,-0.02163000000000001,-0.0017890000000000406,-0.005707846409258938,-0.005244678309932031,0.0017423708197288445,0.0034919824660838024,0.9999786315475989
1763249759.742149,-0.017605,-0.005459,-0.006594,-0.002291,-0.000635,0.000315,0.005391,-0.020791000000000004,-0.0017300000000000093,-0.005392735066546618,-0.005041274779017378,0.0018863357953815502,0.003077718796487964,0.9999807772816832
1763249759.77441,-0.015334,0.001484,-0.005102,-0.002255,0.00171,0.00023,0.005367999999999998,-0.020079000000000014,-0.0016730000000000356,-0.005369722539685446,-0.004925239700920306,0.001889717183340871,0.002723838126491362,0.99998237568905
1763249759.804153,-0.018788,0.003106,-0.006742,-0.001822,0.001701,0.000565,0.005471,-0.019360000000000002,-0.001611000000000029,-0.005472769794840047,-0.004800866501983201,0.001829295035026653,0.0023663437310491218,0.99998400276097
1763249759.859774,-0.023402,0.005205,-0.009372,-0.002065,0.001154,0.000428,0.005635999999999999,-0.01849500000000001,-0.001535000000000064,-0.005637830524482211,-0.004623044920389805,0.0017335769775159132,0.001936589663925168,0.9999859357945994
1763249759.889661,-0.030864,0.00198,-0.010289,-0.002611,0.000365,7.9e-05,0.005756999999999998,-0.017346,-0.001435000000000075,-0.005758890629084065,-0.004410433602481121,0.001657008269282446,0.0013655699791430187,0.9999879687364572
1763249759.952248,-0.036176,-0.002501,-0.00798,-0.002248,0.000209,0.000576,0.0056149999999999985,-0.015915000000000012,-0.0013180000000000414,-0.005616817328022099,-0.004191198174120675,0.0017132626515262343,0.0006543205369194781,0.9999895351720373
1763249759.982407,-0.042411,-0.008175,-0.009946,-0.002638,0.00232,-0.001491,0.005377,-0.014305000000000012,-0.0011849999999999916,-0.005378734840805786,-0.003979697919506299,0.0018180036143268749,-0.0001475441014702108,0.9999904175031209
1763249760.06843,-0.043302,-0.01157,-0.012547,-0.002056,0.002159,-0.00168,0.004739999999999998,-0.012377000000000013,-0.0010330000000000616,-0.004741475278055709,-0.0036575580787049796,0.0021131535326623183,-0.001104246818449805,0.9999904686995833
1763249760.068502,-0.044193,-0.014966,-0.015147,-0.001472,0.002,-0.001873,0.0041010000000000005,-0.010451000000000002,-0.0008759999999999879,-0.004102255340287419,-0.0033364106375489916,0.0024083454247965743,-0.002060960865161334,0.9999894102822714
1763249760.097712,-0.037565,-0.017303,-0.01589,-0.001347,0.001097,-0.00115,0.0033799999999999976,-0.008787000000000003,-0.0007420000000000204,-0.0033810013294543854,-0.002985203813375109,0.002742085480174059,-0.002885484246483457,0.9999876216764263
1763249760.126664,-0.025917,-0.020962,-0.016675,-0.001918,0.001638,-0.002634,0.0026680000000000002,-0.00754500000000001,-0.0006440000000000889,-0.0026687710104605043,-0.0026558835140239436,0.0030717690115831275,-0.0034993161111527044,0.999985632549115
1763249760.18239,-0.015977,-0.010304,-0.018352,-0.000593,0.002029,-0.000225,0.0019109999999999995,-0.006738000000000008,-0.0005870000000000042,-0.001911526519430648,-0.002283388110557409,0.003419201483526359,-0.00389305805179382,0.9999839695209904
1763249760.212219,-0.018216,-0.013806,-0.017656,-0.001085,0.003001,-0.000826,0.0013869999999999993,-0.006068000000000004,-0.000536000000000092,-0.0013873699790492716,-0.001912958213755658,0.0036497831586922505,-0.004219870625371315,0.999982606031561
1763249760.267454,-0.021155,-0.012998,-0.017162,-0.000419,0.004907,0.000532,0.0008769999999999993,-0.005335000000000006,-0.0004770000000000607,-0.0008772442897537133,-0.001557443146865651,0.003873962054878451,-0.004577523439144644,0.9999808063498049
1763249760.297388,-0.021069,-0.010595,-0.017256,-0.000659,0.003702,0.000254,0.0004359999999999989,-0.004490000000000008,-0.00040600000000001746,-0.00043611272406953935,-0.0012178040252483486,0.004064929140477814,-0.004992404866241112,0.9999785343686586
1763249760.351995,-0.01743,-0.010563,-0.011186,4.8e-05,0.002642,0.000756,-2.7000000000002716e-05,-0.0036680000000000046,-0.00033600000000000296,2.7000661626218336e-05,-0.00093978780122138,0.004272289166514338,-0.005398142069114303,0.9999758619118604
1763249760.382392,-0.015131,-0.01264,-0.00903,-0.001471,0.00305,-0.001696,-0.0003600000000000027,-0.0029730000000000034,-0.0002750000000000252,0.000360082769378392,-0.0007712737400157218,0.004424430222702146,-0.0057423278229465045,0.9999734272595429
1763249760.414523,-0.005268,-0.003866,-0.00765,-0.000524,0.003415,0.000888,-0.0006330000000000016,-0.002604000000000009,-0.00024500000000005073,0.0006331597293719356,-0.0006461182359885221,0.004550216105871844,-0.0059237818579913094,0.9999718930415564
1763249760.472379,-0.001261,-0.002937,-0.011087,-0.001707,0.002291,-0.000474,-0.0008280000000000023,-0.0024520000000000097,-0.0002340000000000675,0.0008282020371479619,-0.0004510778032767087,0.004630015123830691,-0.005995899003008917,0.9999712039273503
1763249760.50411,0.000337,-0.007129,-0.011001,-0.000754,-3e-06,-0.001996,-0.0011130000000000029,-0.0024380000000000096,-0.00023899999999998922,0.0011132729181079631,-0.0001820082829105655,0.004747476037129681,-0.005995330377686851,0.9999707417509396
1763249760.534512,-0.005112,-0.004452,-0.006626,-0.000305,-0.000358,-0.001318,-0.0013699999999999997,-0.0023340000000000027,-0.0002340000000000675,0.0013703277348152375,3.7061223342906584e-05,0.004855990958579263,-0.0060419721472435,0.9999699558240978
1763249760.572093,-0.011485,-0.003674,0.004007,-0.000473,-0.002157,-0.00013,-0.0015870000000000016,-0.0019330000000000042,-0.00019900000000006024,0.0015873836183738985,8.727749960511323e-05,0.004960802846600515,-0.0062420315299701766,0.9999682094247467
1763249760.639636,-0.018574,-0.001652,0.01399,-0.001003,-0.001682,0.000446,-0.0016120000000000023,-0.0012810000000000044,-0.0001340000000000785,0.0016123848938528508,-9.497466077015454e-05,0.004990902663971467,-0.0065745190697157185,0.9999659282042637
1763249760.669513,-0.023649,0.001026,0.012558,-0.001512,0.000328,-0.000398,-0.001473000000000002,-0.0004850000000000132,-5.100000000002325e-05,0.001473359982439977,-0.0003578331975947892,0.004946413189799765,-0.00698127932817655,0.9999633326732038
1763249760.699509,-0.026124,-0.003607,0.006446,-0.001702,0.000956,-0.001157,-0.001361000000000001,0.0004849999999999993,5.099999999991223e-05,0.0013613170165502168,-0.0005532156029800829,0.0049081592563720985,-0.007474971708167338,0.9999598635561193
1763249760.754612,-0.031771,-0.007352,0.005641,-0.002211,0.001492,-0.000408,-0.0014780000000000001,0.0015899999999999942,0.00016199999999999548,0.0014783473062830142,-0.0006377714557435631,0.004976074453849764,-0.008032563343157665,0.9999551539227838
1763249760.795835,-0.026864,-0.001473,0.015744,-0.001574,-0.000903,-4.4e-05,-0.001635000000000001,0.0027589999999999976,0.00027999999999994696,0.001635388249706507,-0.0008110191086906802,0.005071746470786491,-0.008624265245354092,0.9999496195732659
1763249760.825839,-0.004694,0.010195,0.036328,-0.0023,-0.001692,0.000981,-0.0013890000000000013,0.0033439999999999998,0.0003469999999999862,0.0013893250571997001,-0.0013262914246984013,0.004998938360316551,-0.008932055348157171,0.9999467335581351
1763249760.855778,0.00443,0.014604,0.051755,-0.003432,0.002432,-0.000382,-0.0006770000000000005,0.0032269999999999938,0.00034999999999996145,0.0006771621580126605,-0.00225176409429803,0.004729388074084512,-0.008898710280914188,0.999946686279946
1763249760.940286,-0.001825,0.014925,0.045229,-0.003416,0.004886,-0.000477,-2.6000000000001716e-05,0.003027999999999989,0.0003429999999999822,2.6015878057769615e-05,-0.003238283202295915,0.00449731315380137,-0.008825490327946554,0.9999456977340168
1763249760.940495,-0.00808,0.015245,0.038704,-0.0034,0.007342,-0.000573,0.0006249999999999971,0.002826999999999996,0.0003369999999999207,-0.0006251562824251891,-0.004223903487059459,0.004264118091639291,-0.008753232401786784,0.9999436768432275
1763249760.997796,-0.019563,0.007551,0.019709,-0.003069,0.007943,5.8e-05,0.0011019999999999988,0.0031919999999999865,0.0003869999999999152,-0.0011022982994519787,-0.004885546704186902,0.0040894541165607855,-0.008955781714673879,0.9999395990620178
1763249760.998004,-0.031047,-0.000142,0.000714,-0.002738,0.008546,0.000689,0.001578999999999997,0.0035559999999999897,0.0004369999999999097,-0.0015794398898989724,-0.005547303153524433,0.003913782793207703,-0.009158313405532989,0.9999350154022694
1763249761.027435,-0.027691,0.006722,-0.014091,-0.002192,0.006576,1.7e-05,0.0017849999999999984,0.004823999999999995,0.0005759999999999099,-0.0017854872257661754,-0.005419234924223673,0.003801568838415389,-0.009792553986478625,0.9999301404866368
1763249761.055448,-0.022236,-0.00139,-0.010582,-0.00189,0.001653,-0.001851,0.001794999999999998,0.005881999999999998,0.0006899999999999684,-0.0017954964601805262,-0.005116287161232764,0.003770184382095639,-0.010316535167332679,0.999926586514005
1763249761.110871,-0.013218,0.005666,0.008215,-0.000939,-0.000256,0.000106,0.001686,0.00660899999999999,0.0007659999999999334,-0.0016864646516490008,-0.005097445718931597,0.0038252695720785565,-0.010681313300270768,0.9999226434609954
1763249761.140775,-0.010424,-0.011647,0.013227,-0.001581,-0.001935,-0.001018,0.0013989999999999975,0.007194999999999993,0.0008229999999999071,-0.0013993853990507468,-0.005280316943928362,0.003989005235760352,-0.010980659861307647,0.9999178122221901
1763249761.195892,-0.009163,-0.013182,0.006515,-0.000681,0.001125,-0.001349,0.0010359999999999987,0.00748299999999999,0.0008460000000000134,-0.0010362875639178884,-0.005519316956482966,0.004195271305337741,-0.011131025479162214,0.9999140148586732
1763249761.264343,-0.010182,-0.019921,-0.012895,-0.000405,0.000912,-0.000358,2.5999999999998247e-05,0.007952999999999988,0.0008739999999999304,-2.6015878057766145e-05,-0.005223336819715536,0.004675655749662504,-0.011357044934102405,0.9999109322965437
1763249761.264561,-0.0112,-0.02666,-0.032304,-0.000128,0.0007,0.000632,-0.0009840000000000022,0.008421999999999999,0.0009029999999999871,0.000984235642502232,-0.004927483630970434,0.005155100338414715,-0.011582053349135223,0.9999074961644129
1763249761.29718,-0.014632,-0.022608,-0.032942,-0.000872,-0.000251,0.000182,-0.002132000000000002,0.009052999999999992,0.0009479999999999489,0.002132501424278562,-0.004207042839155587,0.005663081881890934,-0.011877829013803102,0.9999045691825132
1763249761.352227,-0.015847,-0.007694,-0.021718,-0.000677,0.002512,0.001296,-0.0028339999999999997,0.009576999999999988,0.0009919999999999929,0.0028346454575043957,-0.003704002489098637,0.0059661080055498725,-0.01212758486418302,0.9999017989813744
1763249761.382193,-0.01677,-0.001653,-0.015946,-0.000559,0.002033,0.000724,-0.0032390000000000023,0.010249999999999995,0.0010599999999999499,0.0032397101048889133,-0.0033034586655868317,0.006131095974292588,-0.012454710835592775,0.9998981833171818
1763249761.440914,-0.018741,-0.000546,-0.014012,-0.000746,0.001938,-0.000579,-0.0033470000000000028,0.010917999999999997,0.0011329999999999396,0.003347732401530936,-0.0029884186694295947,0.006156303215281023,-0.012783670318417146,0.9998948680025155
1763249761.470833,-0.019931,0.005895,-0.007573,-0.000566,0.001994,0.000587,-0.0033760000000000005,0.011748999999999996,0.001226999999999978,0.0033767308023886777,-0.0027471698014806816,0.006147156637652534,-0.013195588075795323,0.9998902649684555
1763249761.500837,-0.021667,0.007155,0.007257,-0.00064,0.001304,-0.001202,-0.003054000000000001,0.012636999999999995,0.0013339999999999463,0.0030546841163211665,-0.002735037546796953,0.005985372296010436,-0.013642379875392888,0.9998852835997895
1763249761.543889,-0.017291,0.006105,0.010385,-0.00075,0.001876,-0.000725,-0.002663000000000002,0.013392999999999988,0.0014290000000000136,0.002663603296233167,-0.0029478598953828813,0.005812541234061325,-0.014029043227199361,0.9998803480579909
1763249761.577138,-0.026493,-0.007743,0.005199,-0.001639,0.003616,-0.002536,-0.002745000000000001,0.014160999999999993,0.0015159999999999618,0.002745626012705074,-0.0030793477604355393,0.005868605743363537,-0.014418993506142275,0.9998740769268244
1763249761.631637,-0.039936,-0.038146,-0.015867,-0.003748,0.003103,-0.004882,-0.0034080000000000013,0.015514,0.0016609999999999125,0.003408755479096373,-0.002990846103259243,0.00619457593620421,-0.015097267098743749,0.9998623678260457
1763249761.663306,-0.044369,-0.01473,-0.017502,-0.001513,0.0019,0.001473,-0.004504000000000001,0.017287999999999998,0.001850999999999936,0.004504939841070546,-0.002644604526593536,0.00671311066404803,-0.01597989385521967,0.9998462797872911
1763249761.718269,-0.044719,-0.00969,-0.022807,-0.001657,0.001655,-0.000307,-0.004898,0.019123999999999988,0.0020649999999999835,0.004899000952705047,-0.0022487612926918375,0.006873167106957242,-0.016894247134402945,0.9998311292715035
1763249761.748453,-0.038602,0.00065,-0.022331,-0.001774,0.00224,0.000106,-0.005246000000000001,0.02077799999999999,0.0022609999999999575,0.005247052505915461,-0.0017681437296413907,0.0070005126711391065,-0.0177159770302879,0.9998169885773871
1763249761.778313,-0.027874,-0.001268,-0.012564,-0.002998,-0.000663,-0.00198,-0.005304,0.022198999999999997,0.0024359999999999937,0.005305057700129099,-0.0013623163213121214,0.006988431710470926,-0.018421952492348823,0.9998049497691229
1763249761.83934,-0.020507,-0.007134,0.002648,-0.002021,0.001284,-0.001898,-0.005614000000000001,0.023050999999999988,0.0025370000000000115,0.005615104124129373,-0.0012636850933185572,0.007135128960794858,-0.018848215796707354,0.9997960981099989
1763249761.869743,-0.008685,-0.016909,0.008166,-0.002318,0.000114,-0.001754,-0.006029,0.023728,0.002614999999999923,0.006030163618792845,-0.0013954892678373302,0.00735778009694229,-0.019192173049759027,0.9997877655659608
1763249761.907162,0.005475,-0.011411,0.011442,-0.001859,0.002022,-9.5e-05,-0.006513000000000001,0.023750999999999994,0.002610000000000001,0.006514227197087025,-0.0016342062566883188,0.0076271114500093525,-0.019209163226195664,0.9997850591947197
1763249761.962333,0.012142,-0.014092,0.001658,-0.001764,0.004797,-7e-06,-0.006945,0.023364999999999997,0.002553999999999945,0.006946289788190049,-0.0018136296224861878,0.007862537925628443,-0.01901835117858235,0.9997865740063769
1763249761.992198,0.010145,-0.019169,-0.004998,-0.0017,0.006446,-0.002465,-0.007542000000000002,0.022735999999999992,0.0024659999999999682,0.007543359143135735,-0.0018370826075507062,0.008164636074486708,-0.018701553641967007,0.9997900858363424
1763249762.022273,0.002908,-0.022204,-0.009531,-0.001741,0.005418,-0.000357,-0.008396,0.022416999999999992,0.002413999999999916,0.008397444676936639,-0.0017182323410028712,0.008580631765647181,-0.018537092262409474,0.9997898762472941
1763249762.077165,0.005863,-0.02255,-0.007249,-0.002153,0.003894,8.3e-05,-0.009343,0.022253999999999996,0.0023799999999999377,0.009344542073452153,-0.0015575471528419904,0.009039722873473816,-0.018450364380505783,0.9997876982197091
1763249762.139634,0.011641,-0.013421,-0.001342,-0.002404,0.003033,0.000189,-0.009756,0.021809999999999996,0.0023199999999999887,0.009757569404398378,-0.001576002466232608,0.009249099184670232,-0.01822669485341868,0.9997898569075498
1763249762.139828,0.017419,-0.004291,0.004565,-0.002656,0.002172,0.000295,-0.010169000000000001,0.021365999999999996,0.002259000000000011,0.010170612025740355,-0.0015943896907901559,0.009458477948646528,-0.01800296104604513,0.999791922606891
1763249762.194602,0.014257,0.003103,0.003485,-0.001801,0.004163,-0.000517,-0.010022000000000001,0.020686999999999997,0.0021780000000000133,0.01002359024189237,-0.0017094353656018477,0.00939503956694764,-0.017662802193483377,0.9997983979187706
1763249762.224732,0.013205,0.005338,0.002177,-0.000571,0.001215,-0.000653,-0.009838000000000001,0.020135999999999987,0.0021120000000000028,0.009839585418330209,-0.0017656008202667365,0.009307653388785076,-0.01738655569340855,0.9998039597457383
1763249762.279616,0.009588,-0.000258,0.000468,-0.002732,0.000535,0.000276,-0.009804000000000002,0.01958399999999999,0.0020449999999999635,0.00980558351737633,-0.0017775207321381215,0.00929157783834552,-0.017109526183495403,0.9998088672916925
1763249762.309564,0.011703,0.004498,-0.002834,-0.001689,0.00149,0.000741,-0.009701000000000001,0.01905599999999999,0.001982999999999957,0.009702564591408882,-0.0017668888222972133,0.009237700718642154,-0.01684271403940774,0.9998139156728661
1763249762.364047,0.005417,-0.005241,-0.00301,-0.003239,-0.000705,-0.003953,-0.009511,0.018740999999999994,0.001946999999999921,0.009512553053200692,-0.0017279789488624942,0.009137230574286625,-0.01668387634838946,0.9998175700477444
1763249762.393985,0.011636,0.016828,-0.003077,-0.001002,-0.000268,0.00162,-0.009372000000000002,0.018358999999999986,0.001902999999999988,0.00937353748585584,-0.0016054173717379688,0.009054498932526783,-0.016489018535232904,0.9998217595911224
1763249762.441522,-0.000913,0.016315,-0.003029,-0.001161,0.002579,-0.000243,-0.008572000000000001,0.018185999999999994,0.0018929999999999225,0.008573464999475202,-0.0015351825557422985,0.008644910904629806,-0.01640147047703501,0.9998269352723813
1763249762.469078,-0.011718,0.023981,-0.007755,-0.000852,0.003223,0.001607,-0.007909000000000001,0.018549999999999997,0.0019460000000000033,0.00791040326764164,-0.0013838977584945387,0.008296068187296427,-0.016581991201128556,0.9998271338823684
1763249762.52593,-0.016948,0.018559,-0.011204,-0.002032,0.002938,-0.001197,-0.007182000000000001,0.019232999999999986,0.0020399999999999308,0.007183316657576688,-0.0011612667248736782,0.00790840250298056,-0.016920652672593836,0.9998248847386116
1763249762.555866,-0.012134,0.013618,-0.004759,-0.000758,0.001637,-0.000239,-0.006775,0.019965999999999998,0.0021359999999999157,0.006776261890078284,-0.0010012852594882885,0.007687241344012171,-0.017286371999976916,0.9998205264403339
1763249762.58552,-0.009781,0.008464,-0.003475,-0.002637,0.001825,-0.001966,-0.006252000000000001,0.020454999999999987,0.0022039999999999837,0.00625319953109758,-0.0009610363643601167,0.0074211762815629915,-0.017533123698014196,0.9998182795513866
1763249762.642266,-0.001736,0.009935,-0.002288,-0.0018,0.002266,0.000793,-0.005866,0.02072299999999999,0.002242999999999995,0.005867152464601764,-0.0009350280599817717,0.007224470320074857,-0.01766718404465375,0.9998173850054087
1763249762.672159,-0.003093,0.008088,-0.004771,-0.002375,0.002686,-0.002388,-0.005423000000000001,0.020863999999999994,0.0022679999999999367,0.005424087482825284,-0.000868083869857196,0.006995095734420738,-0.01773732330149523,0.9998178346219673
1763249762.767023,-0.010431,0.002928,-0.008619,-0.001618,0.002054,-0.001938,-0.005307000000000003,0.02133299999999999,0.0023279999999999967,0.00530806776027962,-0.0006592907944053308,0.006915181594736599,-0.01796831779010267,0.9998144253585033
1763249762.767186,-0.017769,-0.002231,-0.012467,-0.000861,0.001421,-0.001489,-0.005191000000000001,0.02180299999999999,0.0023879999999999457,0.005192054048357122,-0.000449532748211295,0.006834159191253194,-0.018200228301588805,0.9998109040604763
1763249762.797152,-0.017136,-0.003748,-0.010382,-0.00111,-0.001118,0.000964,-0.005542000000000002,0.022615999999999997,0.002483000000000013,0.0055431075328188605,-0.00016659432605677224,0.006981219702224779,-0.018603151728199145,0.9998025592903718
1763249762.827239,-0.018876,-0.005832,-0.014939,-0.002133,0.00249,-0.000708,-0.005816000000000002,0.02335799999999999,0.0025719999999999077,0.005817134376711528,0.00012322073683278126,0.0070883072216073205,-0.018969139897084365,0.9997949351986871
1763249762.882188,-0.018448,-0.001551,-0.020636,-0.001414,0.003067,-0.000684,-0.006013000000000001,0.02407999999999999,0.002658999999999967,0.006014172735378624,0.0004910751906793243,0.007148447054824415,-0.01932500669503544,0.99978757877166
1763249762.912141,-0.019427,-0.000926,-0.019628,-0.001774,0.001913,-0.001604,-0.006061,0.024803999999999993,0.002749999999999919,0.006062178651943653,0.0009344891401681477,0.007126055795213588,-0.019679450912156334,0.9997805085470743
1763249762.945809,-0.01441,0.004277,-0.006614,-0.001366,0.000698,-0.000783,-0.005993000000000002,0.025500999999999996,0.0028399999999999537,0.005994169066588062,0.0012413864169106975,0.007058280485920136,-0.020023495613591687,0.9997738240520996
1763249763.001052,-0.006553,0.006631,0.000702,-0.000418,0.000691,0.000327,-0.005826000000000001,0.026017999999999986,0.0029089999999999394,0.0058271464414446535,0.001341396635869822,0.006963374405245337,-0.020281014568198388,0.9997691696186887
1763249763.039631,-0.000436,0.005312,0.005079,-0.001036,0.000408,-0.000315,-0.0055709999999999996,0.026171,0.0029329999999999634,0.0055721100619473204,0.0013176967323316093,0.006837816989676936,-0.02035924548769589,0.9997684777273732
1763249763.069573,0.004144,-0.004889,-0.004319,-0.001672,0.00127,-0.001494,-0.0055070000000000015,0.026025999999999994,0.0029159999999999187,0.005508091894656016,0.0012745611941433845,0.006810485680057607,-0.020286641785235558,0.9997701960668971
1763249763.137226,-0.000811,0.006817,-0.005386,-0.00241,0.004001,-0.00026,-0.005319000000000001,0.02579899999999999,0.002889999999999948,0.005320066591114,0.0013279661513390304,0.006709506958453012,-0.020170782752561418,0.9997731535430547
1763249763.167365,-0.008741,0.002159,-0.005289,-0.0012,0.003538,0.001453,-0.005152,0.026062000000000002,0.002927000000000013,0.005153035508872479,0.0014265576305172417,0.006615156819324366,-0.020300832795728606,0.9997710141934415
1763249763.196422,-0.010579,0.006399,-0.002468,-0.000721,0.002402,0.000886,-0.004903000000000001,0.026517999999999986,0.002989999999999937,0.004903998242641774,0.0014795317161962374,0.006484157082539207,-0.02052938422339086,0.9997671284235335
1763249763.227149,-0.005494,0.0008,-0.000197,-0.001926,0.000595,-0.001038,-0.004668000000000002,0.026903999999999983,0.0030439999999999356,0.0046689616645724415,0.0014865064225304749,0.006365487012811071,-0.02072420755526043,0.9997638611667018
1763249763.282103,0.001983,0.008809,0.010241,-0.001659,0.000845,-0.001161,-0.0043890000000000005,0.026997999999999994,0.0030609999999999804,0.004389920399289912,0.0013091897472014824,0.006243567182529628,-0.020775471261680493,0.999763813950524
1763249763.325664,0.006084,0.00212,0.008059,-0.001117,8e-06,-0.000203,-0.0042780000000000006,0.026962999999999987,0.003058999999999923,0.0042788931097636936,0.0011428555209906108,0.0062057413255396186,-0.020761959981668045,0.9997645341146976
1763249763.356924,0.007503,0.005693,0.002083,-0.000624,0.000951,-5.4e-05,-0.004077000000000001,0.026639999999999997,0.0030209999999999404,0.004077859166734584,0.0010537811555064315,0.006115111084461777,-0.02060136404601206,0.9997685125873612
1763249763.411364,0.005583,0.003804,-0.001075,-0.000407,0.000713,-0.000506,-0.0038660000000000014,0.026402999999999982,0.002993999999999941,0.003866830268501365,0.001106647213673287,0.006003434672473234,-0.020480791839268934,0.9997716095537593
1763249763.44724,-0.003293,0.001541,-0.001588,-0.000771,-1.8e-05,-3.1e-05,-0.0037470000000000003,0.02642799999999998,0.002998999999999974,0.0037478181351902756,0.0011670412412984115,0.005936815990581958,-0.020491629799598076,0.9997717166127432
1763249763.477214,-0.008452,0.004167,0.006513,-0.001527,-0.000442,0.000214,-0.0035690000000000027,0.026813000000000003,0.0030529999999999724,0.003569768485053748,0.001140293176181009,0.005849776912461475,-0.02068598200317017,0.9997682581429115
1763249763.532831,-0.012817,0.003948,0.007317,-0.001632,0.001029,-0.000311,-0.0032259999999999997,0.02732699999999999,0.003125999999999962,0.00322670847368188,0.0009739020936564255,0.005695096122122322,-0.02094985746180624,0.9997638325460677
1763249763.564684,-0.0138,0.002956,-0.001364,-0.000528,0.00286,0.000285,-0.003098,0.027934999999999988,0.00320699999999996,0.0030986951116571335,0.0009166131590948731,0.005636926747806844,-0.021257975444699793,0.9997577123269162
1763249763.609668,-0.017473,-0.001539,-0.006115,-0.001,0.003129,-0.000393,-0.0031470000000000005,0.028607999999999995,0.003293999999999908,0.003147704047127841,0.000991274583326886,0.00565315709598276,-0.021595600809398253,0.9997503134359248
1763249763.639592,-0.020912,-0.013864,-0.008562,-0.000752,0.001804,-0.001073,-0.003556,0.029451000000000005,0.0033969999999999834,0.0035567773169096553,0.0011587611134005306,0.005840316788594228,-0.022015719420905588,0.999739894207924
1763249763.669594,-0.020845,-0.022242,-0.012152,-0.001356,0.002713,-0.002702,-0.004235000000000003,0.030428999999999984,0.003513999999999906,0.0042358898364311635,0.001315990419240452,0.0061647270619435155,-0.022505442188121737,0.999726847384517
1763249763.725919,-0.015556,-0.031101,-0.011775,-0.001774,0.004424,-0.001766,-0.005221,0.03118499999999999,0.0035969999999999613,0.00522204714067067,0.001492695761375643,0.006641186026625947,-0.022883616066129337,0.9997149626884965
1763249763.755937,-0.007432,-0.02657,-0.010115,-0.002049,0.002369,0.001091,-0.006348000000000003,0.031707999999999986,0.0036479999999999846,0.006349205576849114,0.0016811115133845032,0.007187267115048034,-0.023142844531857495,0.9997049193649449
1763249763.79836,-0.003411,-0.00962,-0.003867,-0.000912,0.001141,0.003738,-0.007411000000000001,0.03198699999999999,0.0036680000000000046,0.0074123466674438625,0.0018648570376826484,0.007701567328581935,-0.023280395469716476,0.9996975699458742
1763249763.840847,-0.015088,-0.005689,-0.004689,-0.002336,0.004172,0.000816,-0.007794000000000001,0.03240899999999999,0.003718999999999917,0.0077953903181217175,0.0020322635921868806,0.007874713913995393,-0.02348979194041024,0.9996909964884454
1763249763.870866,-0.015344,-0.000338,-0.010453,-0.001244,0.005628,0.001555,-0.008102000000000002,0.03298099999999998,0.0037919999999999066,0.008103420183640462,0.002213855005780729,0.00800913790501971,-0.023773725190867106,0.9996828309751954
1763249763.934835,-0.011615,-0.000357,-0.009912,-0.001355,0.003957,-0.000892,-0.008235000000000001,0.033547999999999994,0.003866999999999954,0.008236434831389387,0.0024504593203890923,0.008050011629619973,-0.02405473577978496,0.9996752283859228
1763249763.964701,-0.003978,-0.001186,0.001634,-0.002734,0.001497,-0.000894,-0.008407000000000001,0.03387599999999999,0.00390899999999994,0.008408455324088692,0.0025877563347270517,0.008120282943813482,-0.024217419645496365,0.999670386231271
1763249763.994777,-0.002349,-0.000751,0.010151,-0.003137,0.001705,-0.002838,-0.008211000000000001,0.033973,0.003924999999999956,0.008212436298275318,0.002425317211236176,0.00803972788429395,-0.024270270644553272,0.9996701628911466
1763249764.049578,0.001765,0.005478,0.012995,-0.001797,0.00128,9e-05,-0.008091000000000001,0.033927999999999986,0.003920999999999952,0.008092418172654348,0.002167910182344468,0.008008201113238349,-0.024253334374738467,0.9996714183430867
1763249764.081064,-0.003671,0.002341,0.004928,-0.002467,0.001262,-0.001128,-0.007791000000000001,0.033870999999999984,0.003917999999999977,0.007792380967887376,0.001971430420744502,0.007880214695317016,-0.024228099600495094,0.9996734541179938
1763249764.137385,-0.004523,0.001623,0.000246,-0.001648,0.000632,-0.000727,-0.0076700000000000015,0.033991999999999994,0.0039359999999999395,0.007671372438877036,0.0019514191440381768,0.007820810173597181,-0.024289667701769994,0.9996724658279283
1763249764.166826,-0.011881,0.001921,-0.001179,-0.002589,1.7e-05,-0.000386,-0.007546000000000001,0.03433999999999998,0.003985999999999934,0.007547350362620449,0.0020094327035475594,0.007751378631142055,-0.02446410073320943,0.9996686381420806
1763249764.199179,-0.014373,0.003932,0.001948,-0.002905,-0.000189,-0.000272,-0.007346000000000002,0.034945000000000004,0.0040719999999999645,0.007347328373027932,0.0020323191947714714,0.007648751654868099,-0.02476829719320897,0.9996618917068719
1763249764.257305,-0.014587,0.006736,0.002802,-0.001994,0.002476,-0.000987,-0.0070290000000000005,0.03554499999999999,0.004158999999999913,0.007030300314458279,0.0019867483533690072,0.0074939821870996775,-0.025072819802179597,0.9996555640665076
1763249764.286344,-0.01758,0.004819,-0.003646,-0.001896,0.003791,-0.001676,-0.006603000000000001,0.03623699999999999,0.004261999999999988,0.006604241414950356,0.0019850554878414694,0.007279148016123261,-0.025421080015861797,0.9996483592992572
1763249764.316356,-0.019653,0.002863,-0.006549,-0.001725,0.004287,-0.001023,-0.006428,0.037055000000000005,0.004378999999999911,0.006429215021526342,0.0021113734835766433,0.0071758375548222255,-0.02583141658430085,0.999638328284109
1763249764.356007,-0.022547,0.004299,-0.008234,-0.001172,0.003204,-0.000356,-0.0062470000000000026,0.03798699999999999,0.0045119999999999605,0.006248200989008194,0.0022571333670383647,0.007067929149679552,-0.026297466895042136,0.9996266267769196
1763249764.410578,-0.018386,-0.001015,-0.005705,-0.001707,0.002585,-0.000905,-0.006191000000000002,0.03889999999999999,0.004641999999999924,0.006192189804143475,0.0023955307888118625,0.007023059830967107,-0.02675580172281958,0.9996144582472882
1763249764.44475,-0.013269,-0.008225,-0.009617,-0.001795,0.003808,-0.001635,-0.00639,0.03956399999999999,0.004732999999999987,0.006391215760911149,0.0025511635611455306,0.007104322184755507,-0.027086749395003624,0.9996045859128457
1763249764.497182,-0.008256,-0.013445,-0.013157,-0.002512,0.00261,-0.001259,-0.006763000000000002,0.04011199999999998,0.004804999999999948,0.006764265017129439,0.0027769381088533327,0.00726663939684059,-0.027358970889484,0.9995954037901957
1763249764.52659,0.002888,-0.00475,-0.009231,-0.001163,0.001318,0.002696,-0.007520000000000001,0.040331000000000006,0.004824999999999968,0.007521347777843327,0.0030591979896533467,0.007614175905361674,-0.027464127797694523,0.99958910924302
1763249764.556557,0.00054,-0.003741,-0.0103,-0.001535,0.003814,0.000984,-0.007839,0.04041,0.004830999999999919,0.007840390720805238,0.00330114450537953,0.007747497226085923,-0.02749920657343428,0.9995863506318592
1763249764.617747,-0.001562,0.00082,-0.009817,-0.000851,0.003144,0.002091,-0.008104000000000002,0.040514999999999995,0.004842000000000013,0.008105420802202478,0.0035579254706616784,0.007850272337727244,-0.02754611011935675,0.9995833763162837
1763249764.64768,-0.000696,-0.000654,-0.006203,-0.001095,0.001358,0.000439,-0.008320000000000001,0.040689,0.0048639999999999795,0.008321440340470358,0.0038101143199817285,0.007929804964943037,-0.027628609185043507,0.9995795421959108
1763249764.7015,-0.001076,-0.003268,0.002373,-0.001831,0.000944,0.00036,-0.008586000000000002,0.040802000000000005,0.0048759999999999915,0.008587472721294759,0.0038954117517359397,0.008053704252325154,-0.0276840632016625,0.9995766885335746
1763249764.73249,-0.003558,-0.008664,0.006124,-0.002269,0.002106,-0.0019,-0.008610000000000001,0.040902999999999995,0.004890999999999979,0.008611463478142421,0.0037777148196347556,0.008079384792707547,-0.027738539341375195,0.9995754227907566
1763249764.764693,0.004697,-0.003975,0.005776,-0.001637,0.001891,0.00066,-0.008705000000000001,0.04072299999999998,0.004862999999999951,0.008706484065684545,0.0036272518061064196,0.008145172785547302,-0.027650339992008718,0.9995778898629937
1763249764.803358,0.00746,0.000392,0.00122,-0.001957,0.000723,2e-05,-0.008665,0.04041,0.004818999999999907,0.008666476158003283,0.0035598276714573778,0.008132520644080748,-0.027494624397963574,0.9995825305416948
1763249764.858378,0.005107,0.000905,8e-05,-0.001146,0.001044,-0.000835,-0.008691,0.040032999999999985,0.004764999999999908,0.008692475112872359,0.0035504082755071424,0.008147710635549268,-0.02730390969411758,0.9995876679550885
1763249764.887744,0.001936,0.00213,0.003395,-0.001202,0.000595,-0.000644,-0.008624000000000001,0.039836999999999984,0.004737999999999909,0.008625468347280835,0.0035059499243017943,0.008119187374992351,-0.02720512533282258,0.9995907503909405
1763249764.944512,-0.001008,0.002015,0.008393,-0.001587,-0.000145,-5.7e-05,-0.008504000000000001,0.039799,0.004734000000000016,0.008505460477528835,0.0033544440272915976,0.008076791020449057,-0.02719013263477163,0.9995920216965437
1763249764.974774,-0.003465,0.005094,0.00865,-0.00171,0.00136,7.5e-05,-0.008269000000000002,0.039859000000000006,0.004745999999999917,0.008270435704962864,0.003125084533565666,0.007984377872532979,-0.027224940654165385,0.9995925600778669
1763249765.006366,-0.003999,0.003765,0.006254,-0.001758,0.001942,0.000126,-0.008110000000000001,0.040048,0.004774999999999974,0.008111423215703833,0.0029819069782828747,0.007919945146498951,-0.027323831143658727,0.9995908117581325
1763249765.084912,-0.006281,0.003273,0.006542,-0.002236,0.002201,-5.9e-05,-0.008035,0.04039899999999999,0.004825999999999997,0.008036419331361,0.0028983260091839927,0.00789262704673411,-0.027502902672825506,0.999586362696698
1763249765.084988,-0.008563,0.002781,0.006829,-0.002714,0.002461,-0.000245,-0.007961000000000001,0.04074899999999998,0.004877999999999938,0.007962400632464277,0.002814763931310256,0.007864316572061103,-0.02768183492313589,0.9995818854121726
1763249765.141826,-0.004003,0.000902,0.006188,-0.002902,0.002563,-0.000318,-0.007852000000000001,0.04106199999999999,0.0049239999999999284,0.007853397366810441,0.002655379345007611,0.007827528699990339,-0.02784309278432408,0.9995781314830715
1763249765.174823,0.001369,-0.000397,0.003736,-0.003569,0.004589,6.5e-05,-0.007814000000000002,0.04110900000000001,0.0049319999999999364,0.007815383383117708,0.0025170600578283023,0.007823891593051262,-0.027869707889143336,0.9995777761190869
1763249765.203112,0.00499,-0.001292,0.003386,-0.002983,0.002635,-0.000194,-0.007774000000000001,0.04100099999999998,0.004916999999999949,0.0077753799636559855,0.002385867135613699,0.0078191715588472,-0.0278178158807263,0.9995795802805151
1763249765.260257,0.012125,0.01325,0.007464,-0.00225,0.002014,0.002952,-0.007614000000000001,0.040633,0.004865999999999926,0.0076153707114529,0.0022466801351375856,0.007755324127279506,-0.027635461895932457,0.9995854583885511
1763249765.290475,0.002496,0.017533,0.005292,-0.00263,0.004566,0.002107,-0.006936000000000001,0.04030599999999998,0.004830000000000001,0.006937286133919276,0.002102229732688136,0.007430563709549855,-0.027472851796624276,0.9995927219459284
1763249765.321207,-0.003475,0.018584,-0.001853,-0.001818,0.002908,0.002164,-0.0062470000000000026,0.040346999999999994,0.004846999999999935,0.0062481979778156276,0.002092258728552011,0.007085493943267923,-0.02749405807530745,0.9995946653516836
1763249765.361347,-0.009883,0.013395,-0.003047,-0.002835,7e-05,0.000854,-0.005546000000000002,0.040651999999999994,0.004902999999999991,0.005547092064715382,0.002150259851839168,0.006725631622284306,-0.027646007419316276,0.9995928373771102
1763249765.41916,-0.017356,0.01477,0.003602,-0.001897,0.000214,4.5e-05,-0.005073000000000001,0.041206999999999994,0.004990999999999968,0.0050740213369520545,0.002141774557168259,0.00648753660573485,-0.027926491254685985,0.9995866324419997
1763249765.446743,-0.01761,0.006065,0.004733,-0.003863,-0.001788,-0.000233,-0.004531,0.04195399999999999,0.005108000000000001,0.0045319457519148384,0.0020249901978808844,0.006227617627402162,-0.02830536669857077,0.9995778721087442
1763249765.50241,-0.014553,0.012871,-0.012919,-0.004289,-0.004182,-0.001145,-0.003916000000000003,0.042491,0.005197999999999925,0.003916829048788151,0.002048228892527508,0.005915496566379734,-0.028576488331226994,0.9995720063974542
1763249765.53219,0.027262,-0.008684,-0.107276,-0.006976,-0.047016,0.011911,-0.004205,0.04271,0.005224000000000006,0.004205886729646845,0.00317723272952338,0.005929845324378505,-0.028658781857331433,0.9995666142629341
1763249765.563368,0.093698,0.061729,-0.107237,-0.005597,-0.125962,0.01154,-0.003971000000000002,0.040105,0.004852999999999996,0.003971842414484509,0.005367962993264333,0.005562664610829533,-0.02728801848494876,0.9995977219776441
1763249765.618788,0.066648,0.081353,-0.096672,-0.008852,-0.200228,-0.010557,-0.0015910000000000021,0.03706099999999998,0.004469999999999974,0.0015913860726899688,0.00750155704638198,0.004129715630526752,-0.025689322986745203,0.9996332981524643
1763249765.648556,-0.067427,0.168143,-0.01867,-0.004258,-0.204906,-0.04502,0.0036339999999999983,0.03592899999999999,0.004437999999999942,-0.0036350984950776107,0.00863005292506273,0.0013770515124234756,-0.025066807222581776,0.9996475784451783
1763249765.703472,-0.443432,0.092731,-0.019792,-0.003714,-0.14614,-0.07483,0.009147999999999996,0.04557999999999998,0.005984999999999907,-0.009151426779872983,0.00889307525469698,-0.0014732602619996623,-0.029912233557391903,0.999511881370263
1763249765.737534,-0.728867,0.048672,0.010691,0.001333,-0.104218,-0.039914,0.011929000000000002,0.069627,0.009950000000000014,-0.011933934027165388,0.008848432125809427,-0.0029801925231271397,-0.04207819619225338,0.9990706927473383
1763249765.78971,-0.770801,0.025213,0.006873,-0.000108,-0.065196,-0.004666,0.013774999999999996,0.09973699999999999,0.015719999999999956,-0.0137811044717659,0.00848546336773901,-0.0040025501665824454,-0.05739493106766876,0.9983074668614557
1763249765.806494,-0.666352,0.006532,0.021679,-0.002597,-0.0552,0.013863,0.014761999999999997,0.127609,0.021896999999999944,-0.014768781753232825,0.008089785123301505,-0.004569761673106186,-0.07165396150245032,0.9973862754499458
1763249765.860946,-0.593573,-0.012013,0.003861,-0.0032,-0.063423,0.017231,0.015265,0.15158000000000002,0.02787099999999998,-0.015272153112039964,0.0077341435176755255,-0.004873306740788356,-0.0839833324190998,0.9964252273910177
1763249765.890896,-0.517573,-0.005317,0.03101,-0.004234,-0.101582,0.004773,0.015467999999999996,0.17270099999999997,0.033650999999999986,-0.015475292221259172,0.007330568790607831,-0.004996087128647672,-0.09490747647964293,0.9954465695269009
1763249765.945688,-0.511938,0.003872,0.064793,-0.006954,-0.088016,-0.009685,0.016059999999999998,0.19187400000000002,0.03934899999999997,-0.016067725489641256,0.006221727752943778,-0.005165021004731928,-0.10489917788520256,0.9944499862440532
1763249765.97858,-0.530528,0.018825,0.018308,-0.003527,-0.054947,-0.017685,0.016931,0.21180000000000002,0.04572899999999991,-0.016939409071039392,0.005243826620959039,-0.0054844740102857,-0.11533165233090786,0.9932980583882275
1763249766.008466,-0.496353,0.013684,-0.028311,-0.003756,-0.036908,-0.021122,0.017606999999999998,0.23136900000000002,0.05243900000000001,-0.01761593038313252,0.005180983093992547,-0.005883368483799854,-0.1256030804238105,0.9920496003615512
1763249766.063396,-0.396591,-0.013564,-0.062242,-0.003032,-0.023804,-0.014546,0.017333,0.24796300000000002,0.05845099999999992,-0.017341700003980824,0.005964702946291167,-0.005977163436170495,-0.1343306097296266,0.9909005919494077
1763249766.095964,-0.31872,0.01364,-0.080573,0.003504,0.001786,-0.007433,0.016762,0.26066599999999995,0.06326399999999999,-0.016770243057521964,0.0073146146598039264,-0.006047905443772271,-0.14101654546407985,0.9899617432797587
1763249766.134592,-0.29222,-0.020185,-0.112896,0.00619,0.019917,0.014287,0.014739000000000002,0.272386,0.06781999999999999,-0.014745748662625263,0.009283811405966211,-0.005534744262353327,-0.147187563103808,0.9890495431065581
1763249766.191631,-0.210431,-0.025649,-0.087229,0.009737,0.032006,0.038788,0.012031,0.28197300000000003,0.07163799999999998,-0.012036009809887636,0.011196492633628423,-0.004662598306256517,-0.15224870195862147,0.9882677934050338
1763249766.22165,-0.154074,-0.01286,-0.064911,0.004862,0.052796,0.048499,0.010343999999999999,0.28857199999999994,0.07434399999999997,-0.010348049509114138,0.012592983350218046,-0.004185053293600438,-0.1557433331439696,0.98770841662936
1763249766.250589,-0.106619,-0.013252,-0.03123,-0.001559,0.059223,0.042255,0.009311,0.293257,0.07630599999999998,-0.009314497927939203,0.013449706017052782,-0.003902549299024845,-0.15823333551427682,0.9873024293746319
1763249766.312756,-0.096604,-0.013335,-0.010379,-0.003469,0.077877,0.039615,0.008534999999999997,0.29686899999999994,0.07783999999999991,-0.00853812499071831,0.01377298439801793,-0.0036123984744614356,-0.16016901405923997,0.9869869008316801
1763249766.391415,-0.096954,-0.01344,-0.006648,-0.000974,0.089752,0.039287,0.007782999999999998,0.301195,0.07970499999999991,-0.007785752496364193,0.013960030047589516,-0.003306982546645294,-0.16249653198357153,0.986604813753115
1763249766.391744,-0.097303,-0.013545,-0.002917,0.001522,0.101636,0.038939,0.007029999999999998,0.305511,0.08159099999999997,-0.007032412795690713,0.014146757684577332,-0.0030004987687997,-0.16482228099364007,0.9862172589963157
1763249766.420929,-0.085968,-0.006661,0.020722,0.002568,0.107452,0.042155,0.006658999999999998,0.30934300000000003,0.08329599999999993,-0.0066612533134602255,0.01390600414495749,-0.0027774727688402254,-0.16690243219836146,0.9858714352389009
1763249766.450883,-0.056621,0.001445,0.032175,0.005565,0.105908,0.04683,0.006872,0.31230899999999995,0.08464499999999997,-0.006874343040731066,0.013280960507829048,-0.002746812734793009,-0.16852748694215872,0.9856036511969454
1763249766.506217,-0.018633,0.021122,0.022498,0.005619,0.101254,0.049768,0.007761999999999998,0.313909,0.085403,-0.0077647365340654945,0.012638917437803614,-0.0030508291009796987,-0.16941256938362925,0.9854594520032948
1763249766.53603,-0.012579,0.005524,0.005402,0.003252,0.092897,0.034709,0.008503999999999998,0.31468799999999997,0.085785,-0.00850710920566352,0.012408177199894716,-0.003378873127230592,-0.16983932537247812,0.9853878545587964
1763249766.591313,-0.03455,-0.031612,-0.012103,0.000836,0.08818,0.021621,0.008097999999999998,0.315739,0.086252,-0.008100888517242118,0.012439492961772734,-0.0031857439286493536,-0.1704100251468761,0.9852895682894021
1763249766.624781,-0.051514,-0.06047,-0.017237,0.000332,0.07926,0.015727,0.006206999999999997,0.31749700000000003,0.08699999999999997,-0.006209074382218273,0.01259022630756192,-0.002258862430969851,-0.17136505030337199,0.9851245623151242
