timestamp,quat_x,quat_y,quat_z,quat_w,rot_x,rot_y,rot_z,acc_x,acc_y,acc_z,grav_x,grav_y,grav_z,pitch_rad
1763542421.084272,-0.135874,0.08954,0.085375,0.982971,0.038753,0.227622,-0.336116,0.004139,-0.007942,-0.000333,0.19923,0.251831,-0.947042,-0.20057210625956745
1763542421.084321,-0.135897,0.090701,0.083032,0.983062,0.037964,0.226047,-0.349241,0.00413,-0.006908,-0.000859,0.200897,0.252129,-0.946611,-0.2022733984140009
1763542421.105485,-0.136029,0.093741,0.076107,0.983319,0.026776,0.219039,-0.384079,0.006472,-0.003123,-0.006729,0.205061,0.253251,-0.945417,-0.20652609555537643
1763542421.14119,-0.136205,0.094703,0.073416,0.983407,0.019001,0.206761,-0.397974,0.006624,-0.001683,-0.007626,0.206262,0.253985,-0.944959,-0.20775327580218325
1763542421.141529,-0.13638,0.095664,0.070725,0.983487,0.011226,0.194482,-0.41187,0.006781,-0.000248,-0.008525,0.207459,0.254725,-0.944498,-0.2089766721278308
1763542421.16868,-0.137014,0.09778,0.062983,0.983717,0.015078,0.172721,-0.454966,0.008022,-0.01014,-0.011259,0.209635,0.257249,-0.943332,-0.21120174191609284
1763542421.200941,-0.137203,0.098386,0.059821,0.983828,0.020547,0.154512,-0.464035,0.008139,-0.012828,-0.00956,0.210004,0.258198,-0.942991,-0.2115790602998278
1763542421.201226,-0.137391,0.09899,0.056659,0.983928,0.026016,0.136302,-0.473104,0.008263,-0.015518,-0.007861,0.210367,0.259149,-0.942649,-0.21195038644160388
1763542421.225667,-0.137777,0.100151,0.047855,0.984224,0.02431,0.127968,-0.490576,0.011197,-0.016077,-0.001463,0.210328,0.261621,-0.941975,-0.21191041863211074
1763542421.261109,-0.137952,0.100573,0.044711,0.984304,0.015061,0.131456,-0.493423,0.011564,-0.014582,-0.002287,0.210325,0.26258,-0.941709,-0.21190730837723845
1763542421.261355,-0.138126,0.100994,0.041566,0.984375,0.005812,0.134945,-0.496269,0.011937,-0.013087,-0.003111,0.210315,0.263539,-0.941443,-0.21189714162240902
1763542421.286105,-0.138934,0.102047,0.032584,0.984491,-0.009832,0.117863,-0.505197,0.006529,-0.01268,-0.002323,0.209983,0.266907,-0.940568,-0.21155753238281053
1763542421.319831,-0.139286,0.102354,0.029308,0.984512,-0.011782,0.114031,-0.499571,0.010024,-0.013717,0.000976,0.209702,0.268257,-0.940246,-0.2112702496086334
1763542421.320073,-0.139636,0.10266,0.026032,0.984523,-0.013733,0.110199,-0.493946,0.013528,-0.014752,0.004275,0.209413,0.269606,-0.939925,-0.2109745886153309
1763542421.347102,-0.140654,0.103629,0.017641,0.984462,-0.022228,0.127132,-0.464604,0.0155,-0.018121,0.001609,0.209,0.273281,-0.938955,-0.21055226504395308
1763542421.381021,-0.141005,0.10402,0.014768,0.984418,-0.016663,0.120527,-0.447027,0.012184,-0.021494,-0.003146,0.208963,0.274544,-0.938595,-0.21051437402882017
1763542421.38136,-0.141355,0.10441,0.011894,0.984366,-0.011097,0.113923,-0.42945,0.008876,-0.024867,-0.0079,0.208918,0.275807,-0.938235,-0.2104682911204162
1763542421.408627,-0.141766,0.105017,0.005085,0.984301,0.02495,0.060038,-0.357241,0.008922,-0.022488,-0.010615,0.208178,0.278012,-0.937748,-0.20971177006895755
1763542421.440803,-0.141714,0.105059,0.0029,0.984313,0.030585,0.044119,-0.329397,0.008425,-0.020371,-0.009132,0.207645,0.278372,-0.937759,-0.20916693737387806
1763542421.440959,-0.141661,0.105102,0.000716,0.98432,0.036219,0.0282,-0.301553,0.007929,-0.018252,-0.007648,0.20711,0.27873,-0.937771,-0.2086200425469779
1763542421.46561,-0.141284,0.104686,-0.004003,0.98441,0.036155,-0.012189,-0.234869,0.007358,-0.017632,-0.011712,0.204977,0.279,-0.93816,-0.20644012906921913
1763542421.502336,-0.141099,0.104372,-0.005299,0.984464,0.043451,-0.028163,-0.220418,0.006112,-0.016909,-0.01144,0.204005,0.27892,-0.938395,-0.20544726842312264
1763542421.502654,-0.140914,0.104057,-0.006595,0.984516,0.050747,-0.044137,-0.205968,0.004866,-0.016183,-0.011167,0.203034,0.278837,-0.938631,-0.20445536130918673
1763542421.529898,-0.140072,0.102607,-0.00974,0.984762,0.067657,-0.084936,-0.179615,0.007613,-0.008369,-0.008444,0.199357,0.277873,-0.939704,-0.20070168265931443
1763542421.568446,-0.139726,0.101963,-0.010666,0.984869,0.066113,-0.093839,-0.170884,0.006912,-0.008605,-0.008324,0.19786,0.277398,-0.94016,-0.19917437267670188
1763542421.568685,-0.13938,0.10132,-0.011593,0.984974,0.064569,-0.102741,-0.162153,0.00621,-0.008839,-0.008205,0.196364,0.27692,-0.940615,-0.19764833127248077
1763542421.591462,-0.13859,0.099083,-0.013921,0.985283,0.0488,-0.131094,-0.141749,0.004237,-0.011205,-0.005226,0.19139,0.27586,-0.941951,-0.1925780765020277
1763542421.620016,-0.138341,0.097897,-0.014761,0.985424,0.044742,-0.148211,-0.126424,0.004969,-0.011181,-0.005547,0.188856,0.27554,-0.942556,-0.1899969852891908
1763542421.620244,-0.138093,0.096711,-0.0156,0.985563,0.040683,-0.165327,-0.1111,0.005703,-0.011153,-0.005874,0.186321,0.275215,-0.943155,-0.18741622010932005
1763542421.645661,-0.137598,0.093605,-0.016895,0.98591,0.029359,-0.176086,-0.082446,0.00871,-0.009199,0.00096,0.179922,0.274482,-0.94461,-0.18090712497366976
1763542421.682066,-0.137472,0.092542,-0.017205,0.986023,0.024843,-0.176493,-0.07442,0.007326,-0.009463,0.000997,0.177766,0.274285,-0.945075,-0.1787158473319741
1763542421.682321,-0.137345,0.091479,-0.017516,0.986134,0.020328,-0.176901,-0.066394,0.005942,-0.009725,0.00103,0.17561,0.274086,-0.945536,-0.17652533325413688
1763542421.719201,-0.137216,0.088748,-0.017976,0.986394,0.003842,-0.171512,-0.047263,0.007438,-0.010902,0.004736,0.170148,0.273888,-0.946591,-0.17097990036463245
1763542421.719515,-0.137206,0.087866,-0.018083,0.986472,-7.6e-05,-0.161838,-0.03809,0.00602,-0.011768,0.004618,0.168392,0.273878,-0.946908,-0.16919816469364682
1763542421.741824,-0.137279,0.086525,-0.018136,0.986579,-0.011011,-0.16299,-0.025255,0.002826,-0.011724,0.001734,0.165749,0.274012,-0.947336,-0.16651740084442157
1763542421.766706,-0.137435,0.085266,-0.018073,0.986668,-0.021891,-0.160482,-0.014477,0.003104,-0.00906,0.003272,0.163291,0.274288,-0.947682,-0.164025591904373
1763542421.799978,-0.137965,0.08275,-0.017675,0.986816,-0.043127,-0.145058,0.008245,0.00257,-0.004875,0.005539,0.158442,0.275217,-0.948236,-0.15911253844808526
1763542421.800214,-0.138215,0.081973,-0.017449,0.98685,-0.048445,-0.133565,0.014441,0.002293,-0.0032,0.007199,0.156967,0.275656,-0.948354,-0.1576188146000983
1763542421.826345,-0.13856,0.081126,-0.017149,0.986877,-0.051085,-0.119371,0.020407,0.001869,-0.003616,0.00795,0.15537,0.276265,-0.94844,-0.15600194189316327
1763542421.862912,-0.139377,0.079554,-0.016374,0.986903,-0.059315,-0.094955,0.033058,-0.002852,-0.002218,0.003813,0.15246,0.277708,-0.948491,-0.15305682190582273
1763542421.863157,-0.139688,0.079096,-0.016103,0.9869,-0.066634,-0.090179,0.033173,-0.005276,-0.002624,0.002278,0.151621,0.278263,-0.948462,-0.15220807411735773
1763542421.88734,-0.140176,0.078473,-0.015685,0.986887,-0.06841,-0.090178,0.037768,-0.004617,-0.002318,0.001754,0.15049,0.279137,-0.948386,-0.15106384470479026
1763542421.919578,-0.141235,0.077186,-0.014718,0.986853,-0.064633,-0.083316,0.039795,-0.001857,0.003193,0.000993,0.148186,0.281029,-0.94819,-0.14873371871597346
1763542421.91986,-0.141589,0.076732,-0.014375,0.986842,-0.056786,-0.075242,0.032953,-0.000428,0.009111,0.005713,0.147374,0.281659,-0.948129,-0.14791279211096175
1763542421.946448,-0.141909,0.076263,-0.014125,0.986836,-0.044336,-0.065634,0.019778,-0.000266,0.00978,0.006246,0.146509,0.282237,-0.948091,-0.14703832407799583
1763542421.981609,-0.142452,0.075279,-0.013911,0.986837,-0.02662,-0.054791,-0.018783,-0.002224,0.012432,0.00182,0.144613,0.283249,-0.948081,-0.1451218136531875
1763542421.981854,-0.142608,0.074948,-0.013979,0.986839,-0.027556,-0.056754,-0.02813,-0.001678,0.014278,0.001644,0.143936,0.283557,-0.948092,-0.1444376496622433
1763542422.007252,-0.14287,0.074493,-0.014216,0.986832,-0.030762,-0.059965,-0.045366,-0.002543,0.012872,0.000494,0.142962,0.284095,-0.948078,-0.14345351373895288
1763542422.041601,-0.143553,0.073284,-0.014892,0.986813,-0.03474,-0.075993,-0.059061,-0.00299,0.008962,-0.001567,0.140359,0.285502,-0.948044,-0.14082403258121087
1763542422.041897,-0.143814,0.072803,-0.015156,0.986807,-0.033337,-0.079791,-0.058267,-0.001363,0.005667,-0.002062,0.139325,0.286041,-0.948034,-0.1397797776581077
1763542422.066181,-0.144137,0.07211,-0.015466,0.986806,-0.030939,-0.084596,-0.053598,-0.002812,0.003053,-0.004108,0.137859,0.286701,-0.948049,-0.13829948473721762
1763542422.10079,-0.144727,0.070416,-0.015947,0.986834,-0.019378,-0.109786,-0.033319,-0.005099,-0.001795,-0.00722,0.134361,0.287889,-0.948191,-0.13476864622149745
1763542422.101054,-0.144881,0.069757,-0.016035,0.986857,-0.013053,-0.113628,-0.025128,-0.005245,-0.00354,-0.007927,0.133033,0.288191,-0.948287,-0.13342855206332635
1763542422.126004,-0.144975,0.068816,-0.016059,0.986909,-0.00198,-0.123568,-0.024029,-0.003538,-0.00372,-0.005951,0.131174,0.288364,-0.948493,-0.1315531603726173
1763542422.159743,-0.144837,0.066631,-0.016259,0.987075,0.030503,-0.129109,-0.045974,7.1e-05,0.003746,-0.002641,0.126829,0.288098,-0.949165,-0.12717148907362547
1763542422.160061,-0.144675,0.06581,-0.01647,0.987151,0.040527,-0.133546,-0.061451,-0.001072,0.006396,-0.000516,0.125163,0.287801,-0.949476,-0.12549212983203117
1763542422.186406,-0.144371,0.064836,-0.016896,0.987253,0.045056,-0.118419,-0.085869,0.000338,0.008656,0.004498,0.123141,0.287251,-0.949907,-0.12345434589345368
1763542422.221626,-0.143727,0.062912,-0.018536,0.987442,0.048618,-0.084486,-0.142099,0.000117,0.007353,0.008589,0.118915,0.286177,-0.950769,-0.11919707229489679
1763542422.221934,-0.14351,0.06235,-0.019346,0.987493,0.047326,-0.070766,-0.157761,-0.002485,0.003574,0.010375,0.117589,0.285843,-0.951035,-0.11786163027256948
1763542422.246579,-0.14325,0.061732,-0.020539,0.987546,0.047336,-0.054886,-0.164893,-0.003795,-0.001675,0.008752,0.116042,0.285468,-0.951337,-0.11630403384915562
1763542422.306024,-0.142449,0.060243,-0.024334,0.987667,0.046437,-0.02944,-0.15255,-0.006122,-0.009331,0.007001,0.112067,0.284317,-0.952158,-0.11230290938973939
1763542422.306598,-0.141889,0.05957,-0.026945,0.987721,0.026815,0.00163,-0.10932,-0.004397,-0.009477,0.004655,0.110031,0.283503,-0.952638,-0.1102542431294276
1763542422.30631,-0.142169,0.059906,-0.02564,0.987695,0.036626,-0.013905,-0.130935,-0.005259,-0.009405,0.005829,0.111048,0.283912,-0.952398,-0.11127753077054629
1763542422.340403,-0.141693,0.059477,-0.027938,0.987727,0.019699,0.005141,-0.08338,-0.007115,-0.01469,0.002565,0.109576,0.283232,-0.952771,-0.1097964799242414
1763542422.367107,-0.141341,0.059408,-0.028895,0.987754,0.019955,0.0109,-0.008737,-0.005749,-0.01506,0.004367,0.109192,0.282654,-0.952987,-0.10941013134879103
1763542422.366872,-0.141549,0.059372,-0.028621,0.987735,0.017761,0.00453,-0.04701,-0.00751,-0.017025,0.002017,0.109184,0.283024,-0.952878,-0.10940209341569133
1763542422.402526,-0.141104,0.059538,-0.028906,0.98778,0.018714,0.020494,0.014999,-0.004834,-0.009766,0.001986,0.109462,0.282201,-0.95309,-0.10968178793421751
1763542422.430481,-0.140798,0.059769,-0.028709,0.987815,0.025054,0.022864,0.033525,-0.005618,-0.009882,-0.003357,0.109996,0.281596,-0.953207,-0.11021908023210678
1763542422.43079,-0.140482,0.059931,-0.028329,0.987862,0.021277,-0.00084,0.0467,-0.008063,-0.008582,-0.009286,0.110447,0.280948,-0.953346,-0.11067285066678698
1763542422.464792,-0.140212,0.059967,-0.02784,0.987912,0.020884,0.002384,0.053725,-0.004188,-0.003734,-0.000293,0.110676,0.280372,-0.953489,-0.11090326370805742
1763542422.465131,-0.13997,0.060017,-0.027313,0.987958,0.01716,0.002666,0.05591,-0.001012,-0.002531,0.002233,0.110942,0.279847,-0.953613,-0.11117083865278213
1763542422.491353,-0.139706,0.060139,-0.026764,0.988003,0.017898,0.005748,0.055717,-0.003417,-0.001941,5.5e-05,0.111356,0.279279,-0.953731,-0.11158744705541464
1763542422.52288,-0.139437,0.060244,-0.026266,0.988047,0.022408,0.01291,0.049379,-0.00278,-0.000972,0.000445,0.111722,0.278706,-0.953856,-0.11195572449397864
1763542422.546137,-0.139162,0.060463,-0.025821,0.988085,0.017521,0.00885,0.044778,-0.004824,0.001132,-0.001952,0.112298,0.278131,-0.953956,-0.1125353927470058
1763542422.547802,-0.138976,0.060541,-0.025456,0.988116,0.013058,0.004503,0.034868,-0.003139,0.002536,-0.000466,0.112568,0.277731,-0.954041,-0.11280708461012519
1763542422.579459,-0.138845,0.060694,-0.025164,0.988132,0.010942,0.017212,0.026051,-0.002393,0.004195,0.000756,0.112959,0.27745,-0.954076,-0.11320065357430892
1763542422.605675,-0.13871,0.060877,-0.02498,0.988145,0.005459,0.016294,0.013377,-0.001494,0.004589,0.000693,0.11338,0.277172,-0.954107,-0.11362436116666132
1763542422.606606,-0.138677,0.061026,-0.024946,0.988141,0.00162,0.016435,0.003943,-0.004195,0.006382,0.004905,0.113686,0.277109,-0.954089,-0.11393234034831255
1763542422.639273,-0.138633,0.061243,-0.024989,0.988132,0.006079,0.03011,-0.009766,-0.003065,0.006288,0.00696,0.114104,0.277037,-0.95406,-0.11435307930747286
1763542422.666609,-0.13839,0.062105,-0.025596,0.988097,0.018995,0.055491,-0.032842,-0.00632,0.007767,0.002526,0.115647,0.276664,-0.953983,-0.1159063011198018
1763542422.666337,-0.138536,0.061609,-0.025236,0.988117,0.015176,0.050137,-0.023395,-0.004356,0.005152,0.008032,0.114761,0.276888,-0.954024,-0.11501447353727769
1763542422.703471,-0.138227,0.062617,-0.026116,0.988074,0.020442,0.061641,-0.049372,-0.004726,0.007923,0.001143,0.116521,0.276427,-0.953945,-0.11678628903655362
1763542422.728434,-0.138062,0.063178,-0.026783,0.988044,0.022646,0.066859,-0.062817,-0.004909,0.005853,0.000539,0.11745,0.276206,-0.953895,-0.11772172174232114
1763542422.728548,-0.13788,0.063683,-0.027531,0.988016,0.024602,0.063998,-0.060414,-0.005049,0.002339,-0.001224,0.118249,0.275962,-0.953867,-0.11852631817463029
1763542422.758591,-0.137655,0.064191,-0.02825,0.987994,0.028452,0.064933,-0.058289,-0.005679,0.000482,-0.002483,0.119062,0.275632,-0.953861,-0.1193451347608061
1763542422.785116,-0.137418,0.064678,-0.028934,0.987976,0.03136,0.059361,-0.054426,-0.007088,-0.000808,-0.001726,0.119848,0.275275,-0.953866,-0.12013676448954869
1763542422.785179,-0.137102,0.065131,-0.029495,0.987973,0.040095,0.049913,-0.04367,-0.005259,-0.004169,-0.001789,0.120608,0.274748,-0.953922,-0.12090233448838611
1763542422.819735,-0.136683,0.065553,-0.02999,0.987988,0.047901,0.044695,-0.032177,-0.005731,-0.00283,-0.002397,0.121333,0.274014,-0.954041,-0.12163271881087265
1763542422.847092,-0.136208,0.065913,-0.030363,0.988019,0.050637,0.0447,-0.018845,-0.0057,-0.00201,-0.000662,0.121975,0.273155,-0.954206,-0.12227945875479093
1763542422.849534,-0.135735,0.066304,-0.030623,0.98805,0.044362,0.034821,-0.010856,-0.00421,-0.00461,-0.002394,0.122711,0.272287,-0.954359,-0.12302111240816241
1763542422.879682,-0.135271,0.066612,-0.030775,0.988088,0.0457,0.038127,0.000576,-0.005561,-0.003534,0.001842,0.123311,0.27142,-0.954529,-0.12362565895397279
1763542422.904801,-0.134803,0.067035,-0.030831,0.988121,0.047696,0.045485,0.005033,-0.003392,-0.00389,0.004474,0.124164,0.270538,-0.954669,-0.12448524146949003
1763542422.908172,-0.13429,0.067522,-0.030887,0.988156,0.051729,0.060321,0.001908,-0.002419,-0.003073,0.00527,0.125148,0.26957,-0.954814,-0.12547701633612166
1763542422.942886,-0.133729,0.068132,-0.031034,0.988186,0.055003,0.074516,-0.000744,-0.001367,-0.000771,0.00452,0.126353,0.268527,-0.954949,-0.1266916813288713
1763542422.968675,-0.133116,0.06887,-0.031204,0.988212,0.058429,0.076194,-0.005159,-0.000191,-0.000108,0.000633,0.12781,0.267392,-0.955074,-0.12816053984111056
1763542422.968731,-0.132556,0.069619,-0.031427,0.988228,0.053755,0.078456,-0.011076,-0.000109,-0.000664,-0.001661,0.129267,0.266367,-0.955164,-0.12962976786606775
1763542422.999413,-0.132032,0.070325,-0.031708,0.988239,0.051452,0.063345,-0.020446,-0.000195,-0.000156,-0.001407,0.130624,0.265418,-0.955244,-0.13099831707465492
1763542423.029948,-0.131554,0.070897,-0.032033,0.988251,0.050304,0.058387,-0.021557,0.000358,-0.002365,-0.002531,0.1317,0.264558,-0.955335,-0.13208367066226429
1763542423.029961,-0.131083,0.071388,-0.032366,0.988268,0.047093,0.045545,-0.021837,0.000907,-0.004387,-0.003278,0.132615,0.263711,-0.955442,-0.13300684348742678
1763542423.06462,-0.130595,0.071747,-0.032686,0.988296,0.047046,0.040036,-0.015878,0.001631,-0.006325,-0.002821,0.133278,0.262824,-0.955594,-0.13367579993002376
1763542423.087532,-0.130163,0.072095,-0.032929,0.98832,0.043292,0.02937,-0.015053,0.001745,-0.006628,-0.002749,0.133934,0.262034,-0.95572,-0.13433763477716767
1763542423.087559,-0.129726,0.072341,-0.0331,0.988353,0.04444,0.02823,-0.003525,0.002224,-0.008348,-0.00331,0.134409,0.261219,-0.955876,-0.13481702150376776
1763542423.120502,-0.129277,0.072549,-0.033151,0.988395,0.043063,0.014183,0.002786,0.001192,-0.008997,-0.005542,0.134843,0.260363,-0.956048,-0.13525506096530823
1763542423.144678,-0.128804,0.072632,-0.033093,0.988453,0.042985,0.007046,0.015655,0.002552,-0.007998,0.000175,0.135061,0.25944,-0.956268,-0.13547508933602276
1763542423.149365,-0.128342,0.07275,-0.032954,0.988509,0.043985,0.014583,0.020718,0.003177,-0.006494,0.001021,0.135368,0.258529,-0.956472,-0.13578484271203362
1763542423.180671,-0.127873,0.072914,-0.03277,0.988564,0.037167,0.012357,0.023996,0.003008,-0.001532,-0.001326,0.13578,0.257601,-0.956664,-0.1362006774235658
1763542423.204562,-0.127485,0.073033,-0.032599,0.988611,0.03187,0.005834,0.018632,0.001386,-0.000591,-0.000926,0.136092,0.256827,-0.956828,-0.1365155683366636
1763542423.209288,-0.127149,0.07308,-0.032463,0.988655,0.025252,-0.004358,0.016703,0.000441,-0.001233,-0.001284,0.136245,0.256157,-0.956985,-0.13667011423184985
1763542423.239265,-0.126857,0.073046,-0.032293,0.9887,0.029923,-0.008995,0.015585,0.000608,-0.00124,0.000867,0.136248,0.255565,-0.957143,-0.1366731211347708
1763542423.265254,-0.126532,0.072986,-0.032129,0.988752,0.032089,-0.008248,0.016231,0.001347,-0.003364,0.001265,0.136199,0.254908,-0.957325,-0.13662368050715049
1763542423.269233,-0.126209,0.07294,-0.031995,0.988801,0.031641,-0.007215,0.013054,0.000797,-0.002819,-0.000858,0.13617,0.254258,-0.957502,-0.13659440312080334
1763542423.3004,-0.125856,0.072864,-0.031867,0.988856,0.033024,-0.006525,0.012193,-0.000688,-0.003758,-0.001565,0.136082,0.25355,-0.957703,-0.13650547529842666
1763542423.324173,-0.125526,0.072815,-0.031741,0.988905,0.031583,-0.01046,0.01361,0.000136,-0.002404,-0.001951,0.136046,0.25289,-0.957882,-0.13646921683623112
1763542423.329283,-0.125213,0.072692,-0.031603,0.988958,0.02844,-0.007545,0.014146,0.000893,-0.002522,0.000693,0.135864,0.252256,-0.958075,-0.13628550908759918
1763542423.359704,-0.124933,0.072645,-0.031461,0.989002,0.024718,-0.006835,0.015835,0.000483,-0.002735,0.002432,0.135832,0.251688,-0.958229,-0.13625319756984353
1763542423.384477,-0.124658,0.072614,-0.031319,0.989043,0.029886,0.004519,0.01471,-0.000945,-0.004954,0.00033,0.135829,0.251133,-0.958375,-0.13625017337592973
1763542423.38929,-0.124367,0.07259,-0.031161,0.989087,0.028501,-0.014646,0.015927,-0.002953,-0.005976,-0.006441,0.135845,0.250543,-0.958527,-0.13626634177770683
1763542423.419484,-0.124078,0.072354,-0.030962,0.989146,0.028119,-0.020991,0.020715,0.001493,-0.005725,0.002373,0.135454,0.249943,-0.958739,-0.13587168772272762
1763542423.444457,-0.12377,0.072192,-0.030735,0.989204,0.028849,-0.015223,0.021253,0.001469,-0.005425,0.003835,0.135217,0.249306,-0.958938,-0.1356325247341706
1763542423.449133,-0.123447,0.072124,-0.030515,0.989256,0.027613,-0.00763,0.025635,-8.2e-05,-0.004735,0.00108,0.135164,0.248642,-0.959118,-0.13557901438150752
1763542423.481796,-0.123192,0.07208,-0.030242,0.9893,0.01928,-0.007538,0.033349,-0.002761,-0.003663,-0.001929,0.135167,0.248107,-0.959256,-0.1355820567725224
1763542423.506974,-0.123036,0.072025,-0.02989,0.989334,0.006741,-0.020109,0.03299,-0.003912,0.000339,-0.00324,0.135159,0.247752,-0.959349,-0.13557396646338302
1763542423.539957,-0.122948,0.071746,-0.029221,0.989385,0.002295,-0.015873,0.025455,-0.001783,0.002505,0.003426,0.134783,0.247479,-0.959473,-0.13519440984705625
1763542423.539947,-0.122978,0.071861,-0.029542,0.989363,0.000345,-0.018499,0.029998,-0.00386,0.002457,0.000679,0.134926,0.247585,-0.959425,-0.1353388003825321
1763542423.564904,-0.122903,0.071684,-0.028933,0.989403,0.00196,-0.00772,0.025227,-0.002125,0.000567,0.004816,0.134737,0.247349,-0.959513,-0.13514798409896964
1763542423.601155,-0.122839,0.071694,-0.028707,0.989417,0.005876,0.004409,0.021913,-0.003644,0.001306,0.003699,0.134819,0.247194,-0.959541,-0.13523079472324157
1763542423.601167,-0.12276,0.071742,-0.028508,0.989429,0.005435,0.004598,0.017217,-0.003956,0.002606,0.001243,0.134968,0.247014,-0.959566,-0.13538122235843877
1763542423.628005,-0.122691,0.071779,-0.028373,0.989439,0.005418,0.006887,0.01173,-0.003424,0.00367,0.001058,0.13508,0.246864,-0.959589,-0.1354942368055517
1763542423.659797,-0.122575,0.071878,-0.028278,0.989449,0.013877,0.009165,0.007966,-0.002391,0.001477,0.001525,0.135308,0.246629,-0.959618,-0.1357242583661896
1763542423.659841,-0.122367,0.072009,-0.028256,0.989466,0.024917,0.014909,0.005411,-0.001537,0.001692,0.002036,0.135586,0.246225,-0.959682,-0.13600491028389403
1763542423.687631,-0.122081,0.072139,-0.02825,0.989492,0.029378,0.012545,-0.001593,-0.00221,0.003091,-0.000393,0.135865,0.245671,-0.959785,-0.13628645241346474
1763542423.724379,-0.121509,0.07227,-0.028363,0.989549,0.025894,0.005314,-0.002528,-0.002063,-0.000127,-0.000956,0.136137,0.244578,-0.960025,-0.1365610790394878
1763542423.724379,-0.121795,0.072205,-0.028307,0.989521,0.027636,0.00893,-0.002061,-0.002137,0.001482,-0.000674,0.136001,0.245125,-0.959905,-0.13642377032707098
1763542423.74794,-0.121239,0.072324,-0.028408,0.989577,0.028078,0.003105,0.001167,-0.001889,-0.000486,-1.5e-05,0.136252,0.24406,-0.960141,-0.13667709539838885
1763542423.779811,-0.120672,0.072331,-0.028339,0.989648,0.029505,0.001774,0.007767,-0.002578,-0.001275,0.000301,0.136324,0.242944,-0.960413,-0.13674987536729036
1763542423.779814,-0.12096,0.072341,-0.028394,0.989611,0.029031,-0.000569,0.007384,-0.002114,-0.002282,-0.000165,0.136309,0.243514,-0.960271,-0.13673470275769345
1763542423.808823,-0.12037,0.072334,-0.028285,0.989686,0.02711,0.000479,0.007322,-0.002306,0.001261,-0.001806,0.136366,0.24235,-0.960558,-0.13679215229387542
1763542423.841216,-0.120103,0.072351,-0.02822,0.989719,0.02868,0.001939,0.005753,-0.001371,0.000619,0.000129,0.136435,0.24182,-0.960681,-0.13686190476788038
1763542423.841303,-0.11978,0.072384,-0.028161,0.989758,0.029405,0.002428,0.007322,-0.002136,-0.000953,0.000872,0.136539,0.241184,-0.960826,-0.13696689983293506
1763542423.865745,-0.119477,0.072416,-0.028133,0.989793,0.030823,0.008258,0.00829,-0.002025,-0.00233,0.001071,0.136631,0.240589,-0.960963,-0.13705964872018797
1763542423.900732,-0.11917,0.072537,-0.028084,0.989822,0.029252,0.011301,0.008781,-0.002229,-0.002255,0.000632,0.136903,0.239989,-0.961074,-0.13733427016895022
1763542423.900777,-0.118884,0.072642,-0.028005,0.989851,0.023784,0.006249,0.012003,-0.002354,-0.00278,-0.000965,0.13715,0.239423,-0.96118,-0.13758361504492791
1763542423.931195,-0.118667,0.072678,-0.027908,0.989877,0.019171,0.004864,0.012364,-0.000922,-0.002438,-0.000651,0.13726,0.238988,-0.961272,-0.137694738567111
1763542423.961307,-0.118452,0.07275,-0.027792,0.989901,0.02034,0.006339,0.012998,-0.001341,-0.001573,0.000527,0.137447,0.238556,-0.961353,-0.137883472178963
1763542423.961347,-0.118228,0.072852,-0.027682,0.989923,0.021409,0.013244,0.012739,-0.001078,-0.001724,0.00232,0.13769,0.238106,-0.961429,-0.1381289095387372
1763542423.988848,-0.117964,0.073005,-0.027584,0.989946,0.023016,0.015644,0.012444,-0.001872,-0.002572,0.000513,0.138033,0.237583,-0.96151,-0.138475108759354
1763542424.019863,-0.117706,0.073117,-0.027505,0.989971,0.023581,0.011203,0.011607,-0.00145,-0.002599,-0.000116,0.138292,0.237072,-0.961599,-0.1387366043972658
1763542424.019874,-0.117452,0.073233,-0.027392,0.989996,0.021776,0.007201,0.011802,-0.001544,-0.00319,-0.002709,0.138566,0.236566,-0.961684,-0.13901329052682884
1763542424.047782,-0.117234,0.073294,-0.027298,0.99002,0.020898,0.001814,0.010152,-0.002001,-0.002996,-0.000953,0.138724,0.236129,-0.961769,-0.1391727796774401
1763542424.080395,-0.116989,0.073328,-0.027221,0.990048,0.022301,0.002831,0.007316,-0.0014,-0.004225,-0.002942,0.138827,0.235643,-0.961873,-0.13927683049685285
1763542424.080562,-0.116729,0.073271,-0.027164,0.990085,0.023319,-0.011955,0.006156,-0.002955,-0.004147,-0.004267,0.138748,0.235124,-0.962011,-0.13919711176187466
1763542424.11012,-0.116494,0.073131,-0.027077,0.990125,0.022669,-0.010605,0.011525,-0.000629,-0.0032,0.00072,0.138509,0.234647,-0.962162,-0.13895576719058
1763542424.14109,-0.116284,0.073079,-0.026953,0.990157,0.017207,-0.003853,0.011688,0.000217,-0.002867,0.00317,0.138452,0.234218,-0.962275,-0.1388981754995493
1763542424.14141,-0.116087,0.073122,-0.026842,0.99018,0.015055,0.008124,0.011318,-0.000119,-0.001952,0.002024,0.138575,0.23382,-0.962354,-0.13902238381180204
1763542424.165854,-0.115927,0.073187,-0.026763,0.990196,0.010576,0.004481,0.00829,-0.001747,-0.000167,-0.0001,0.138733,0.233498,-0.962409,-0.13918198085228028
1763542424.200832,-0.115787,0.07324,-0.026682,0.990211,0.009666,0.000511,0.004537,-0.001369,0.00218,-0.000498,0.138867,0.233216,-0.962458,-0.13931729740763552
1763542424.201186,-0.115693,0.07325,-0.026654,0.990222,0.00711,-0.000474,-0.001092,-0.000258,0.002738,0.000675,0.138899,0.233029,-0.962499,-0.13934956681893107
1763542424.226769,-0.115616,0.073247,-0.026707,0.99023,0.005869,6.7e-05,-0.003783,-0.000707,0.000656,0.00032,0.138886,0.232885,-0.962536,-0.13933640287384003
1763542424.269101,-0.115504,0.073206,-0.026742,0.990245,0.011353,-0.00323,-0.002164,-0.001001,-0.001571,0.000377,0.138807,0.23267,-0.962599,-0.13925668266182348
1763542424.269339,-0.115392,0.073166,-0.026778,0.99026,0.016837,-0.006527,-0.000544,-0.001294,-0.003797,0.000435,0.138727,0.232455,-0.962663,-0.13917583019288374
1763542424.290118,-0.11519,0.073087,-0.026769,0.990289,0.024987,-0.007423,0.00467,0.000289,-0.004936,0.001165,0.138587,0.232056,-0.962779,-0.13903452156272264
1763542424.321235,-0.114918,0.073019,-0.026731,0.990327,0.028897,-0.003347,0.00593,-0.000911,-0.003411,-0.000794,0.138481,0.231517,-0.962924,-0.1389274900791992
1763542424.321519,-0.11464,0.072952,-0.026697,0.990365,0.025415,-0.006548,0.002583,-0.000809,0.000185,-0.000717,0.138376,0.230966,-0.963072,-0.13882138905366107
1763542424.346068,-0.114362,0.072935,-0.026725,0.990398,0.025336,0.000581,-0.000954,-0.000651,-0.001531,-0.001505,0.138356,0.230425,-0.963204,-0.1388012561973481
1763542424.38261,-0.1141,0.072883,-0.026788,0.99043,0.02474,-0.009927,-0.006065,-0.003465,-0.003047,-0.004084,0.138257,0.22992,-0.963339,-0.13870127986082884
1763542424.383744,-0.113832,0.072739,-0.026815,0.990471,0.028608,-0.011073,-0.003827,-0.000408,-0.003199,0.002831,0.137987,0.229395,-0.963503,-0.1384286477435882
1763542424.408715,-0.113533,0.072621,-0.026863,0.990512,0.025928,-0.004077,-0.003773,0.000329,-0.003339,0.003315,0.137763,0.228814,-0.963673,-0.13820251345090495
1763542424.442417,-0.113081,0.07261,-0.026939,0.990563,0.014694,0.000859,0.000177,-0.001324,-0.003098,-0.000815,0.137757,0.22794,-0.963881,-0.1381964504708247
1763542424.442163,-0.113282,0.072595,-0.026907,0.990542,0.022939,0.001421,-0.00174,0.000765,-0.003319,0.000668,0.137721,0.228329,-0.963794,-0.13816011351640062
1763542424.469783,-0.112949,0.072564,-0.026936,0.990581,0.007457,-0.005601,0.002742,-0.001506,-0.002369,-0.000972,0.137676,0.227679,-0.963954,-0.13811470564193776
1763542424.501139,-0.112898,0.072485,-0.026912,0.990594,0.004563,-0.006993,0.002725,-0.001718,-0.001216,-0.000131,0.137529,0.227574,-0.964,-0.1379662640629568
1763542424.501473,-0.112876,0.072395,-0.026881,0.990604,0.00414,-0.009183,0.002717,-0.002313,-0.00147,-0.000186,0.13736,0.227523,-0.964036,-0.13779566262073648
1763542424.525752,-0.112848,0.072256,-0.026835,0.990618,0.004362,-0.014559,0.0038,-0.002519,-0.001558,-0.000205,0.137099,0.227457,-0.964089,-0.13753213322447225
1763542424.561453,-0.112721,0.071957,-0.0267,0.990658,0.00392,-0.008728,0.006746,-0.001879,-8e-05,0.001728,0.13655,0.227178,-0.964233,-0.13697787965565822
1763542424.561184,-0.11278,0.072076,-0.026771,0.990641,0.005183,-0.013347,0.006633,-0.002145,-0.000495,0.000573,0.136765,0.227308,-0.964171,-0.13719503409698308
1763542424.585841,-0.112673,0.071887,-0.026614,0.990671,0.001784,-0.002031,0.006793,-0.001994,0.000467,0.001695,0.136436,0.22707,-0.964274,-0.1368628791783768
1763542424.620964,-0.112635,0.071898,-0.026546,0.990676,0.002966,0.001921,0.005533,-0.001888,-0.000226,0.000805,0.136474,0.226987,-0.964288,-0.1369012597639317
1763542424.621283,-0.112582,0.071924,-0.026507,0.990681,0.006782,0.003531,0.001862,-0.001337,0.000165,0.000826,0.136539,0.22688,-0.964304,-0.1369668712550003
1763542424.645703,-0.112489,0.07198,-0.026524,0.990687,0.012556,0.005581,-0.00199,-0.002029,-0.000923,0.001032,0.136653,0.2267,-0.96433,-0.13708197448366477
1763542424.681406,-0.112354,0.072006,-0.026595,0.990699,0.012325,0.003696,-0.006456,-0.001113,-0.000925,0.000907,0.136697,0.226448,-0.964383,-0.13712638745345063
1763542424.681805,-0.112243,0.072045,-0.026699,0.990706,0.009361,0.003904,-0.007673,-0.001484,-0.002082,-0.001639,0.136758,0.226246,-0.964422,-0.13718793402465893
1763542424.706326,-0.112191,0.072017,-0.026784,0.990712,0.004008,-0.002061,-0.006272,-0.001921,-0.003526,-0.002467,0.136685,0.226155,-0.964454,-0.1371142010201389
1763542424.741023,-0.11222,0.07192,-0.02682,0.990714,-0.002642,-0.007652,-0.001334,-0.00225,-0.005031,-0.001811,0.136485,0.226213,-0.964468,-0.13691240487289585
1763542424.741536,-0.112252,0.071818,-0.026778,0.990719,-0.002999,-0.009932,0.004574,-0.002239,-0.005541,-0.000712,0.136291,0.226267,-0.964483,-0.13671654390967197
1763542424.76572,-0.112279,0.071745,-0.026682,0.990724,-0.002555,-0.00693,0.009989,-0.001601,-0.005062,0.000881,0.136167,0.226304,-0.964492,-0.13659135492258426
1763542424.804216,-0.112266,0.071705,-0.026553,0.990732,0.001044,-0.004669,0.011414,-0.001744,-0.002276,0.000524,0.13612,0.226259,-0.964509,-0.13654393859873518
1763542424.804797,-0.112259,0.071645,-0.026448,0.99074,0.001602,-0.004081,0.006841,-0.000656,-0.000856,0.000197,0.136024,0.226228,-0.96453,-0.13644701278439636
1763542424.867243,-0.112234,0.071616,-0.026415,0.990746,0.000947,-0.000858,0.002539,-0.000535,0.000263,0.000906,0.135978,0.226175,-0.964549,-0.13640057018096735
1763542424.867788,-0.112188,0.071626,-0.026415,0.99075,0.000374,0.005498,-0.005268,-0.000158,0.000527,0.000616,0.136,0.226085,-0.964567,-0.13642277618202808
1763542424.867561,-0.11221,0.071588,-0.026383,0.990751,0.000291,0.002364,-0.001763,-0.000415,0.001382,0.001614,0.135931,0.226121,-0.964568,-0.13635316746252985
1763542424.893965,-0.112197,0.071683,-0.026496,0.990743,0.001135,0.007832,-0.007633,-0.001752,-0.000363,0.000524,0.136094,0.226115,-0.964547,-0.1365176198613842
1763542424.924865,-0.112203,0.071706,-0.026584,0.990738,-0.000285,0.006363,-0.008157,-0.001601,-0.000897,0.000812,0.136117,0.226139,-0.964538,-0.1365408528517463
1763542424.925179,-0.112207,0.07176,-0.026673,0.990731,-0.001835,0.006353,-0.005659,-0.002103,-0.001289,0.001018,0.136203,0.226162,-0.96452,-0.1366277232098064
1763542424.954001,-0.112251,0.071817,-0.026743,0.99072,-0.003156,0.005217,-0.003672,-0.001193,-0.003739,-0.000668,0.136298,0.22626,-0.964484,-0.1367235637996417
1763542424.98343,-0.112282,0.071882,-0.026781,0.990711,-0.001765,0.003634,-0.001432,-0.001397,-0.004875,-0.001226,0.136414,0.226328,-0.964452,-0.1368406103222072
1763542424.983712,-0.112288,0.071937,-0.026773,0.990707,-0.001385,0.005613,0.003585,-0.002992,-0.004055,-0.000424,0.136524,0.22634,-0.964433,-0.136951731367176
1763542425.01134,-0.112332,0.071964,-0.026715,0.990701,-0.003803,-0.001525,0.004642,-0.003119,-0.004008,-0.001444,0.136587,0.226421,-0.964405,-0.13701533593042936
1763542425.041213,-0.112378,0.071938,-0.026628,0.9907,-0.005237,-0.003619,0.011012,-0.003527,-0.004549,-0.00134,0.136553,0.226498,-0.964392,-0.13698097894139039
1763542425.041443,-0.112423,0.071891,-0.026473,0.990703,-0.006613,-0.012611,0.014901,-0.003389,-0.004661,-0.003035,0.136492,0.226561,-0.964386,-0.13691938074561036
1763542425.06783,-0.112464,0.071747,-0.026238,0.990715,-0.003956,-0.015116,0.02262,-0.002293,-0.00349,0.001114,0.136261,0.226605,-0.964408,-0.13668624575754856
1763542425.099919,-0.112487,0.071686,-0.025989,0.990723,-0.005211,-0.000314,0.021072,-0.000555,-0.000412,0.00453,0.136195,0.226612,-0.964416,-0.1366195819850409
1763542425.100468,-0.112525,0.07177,-0.025788,0.990718,-0.005459,0.010045,0.016016,-0.00062,0.001439,0.002641,0.136403,0.226663,-0.964374,-0.13682962339551852
1763542425.12674,-0.112572,0.071912,-0.025663,0.990706,-0.007558,0.009214,0.007044,-0.001281,0.002841,-0.000552,0.136709,0.226743,-0.964312,-0.13713849877396878
1763542425.162044,-0.11268,0.07198,-0.025617,0.99069,-0.011688,0.0026,0.000919,-0.001423,0.003447,-0.001031,0.136848,0.226949,-0.964244,-0.1372787938790431
1763542425.162191,-0.112809,0.072006,-0.025636,0.990672,-0.013722,-0.001057,-0.005599,-0.000568,0.003995,0.001105,0.136886,0.227205,-0.964179,-0.13731706383070152
1763542425.189959,-0.112957,0.072,-0.025726,0.990654,-0.012342,0.001631,-0.008798,-0.000233,0.001636,0.000453,0.136841,0.227508,-0.964113,-0.13727176118456869
1763542425.221145,-0.113081,0.072014,-0.025799,0.990637,-0.008371,0.002145,-0.005657,-0.001296,0.000273,-0.000433,0.136844,0.22776,-0.964054,-0.13727466626215556
1763542425.221432,-0.113159,0.071972,-0.025853,0.990629,-0.003504,-0.002549,-0.002157,-0.001878,-0.002043,-0.001508,0.136743,0.227919,-0.96403,-0.13717280817237745
1763542425.245838,-0.113195,0.071925,-0.025844,0.990629,0.000439,-0.004692,0.003091,-0.0004,-0.001574,0.000172,0.136651,0.227986,-0.964028,-0.137079830325855
1763542425.280973,-0.113172,0.071883,-0.025773,0.990636,0.003806,-0.002452,0.007288,-0.000512,-0.001196,0.00056,0.136586,0.22793,-0.96405,-0.13701427538846592
1763542425.281217,-0.113108,0.071876,-0.025698,0.990646,0.005516,0.000279,0.007264,0.00012,0.000881,0.001335,0.136593,0.227794,-0.964081,-0.13702136189370237
1763542425.306784,-0.113033,0.071896,-0.025641,0.990655,0.008044,0.004565,0.002758,-0.000481,0.000192,0.000651,0.136651,0.22764,-0.964109,-0.1370799315428944
1763542425.341475,-0.11292,0.071949,-0.025634,0.990664,0.013665,0.003665,0.001116,-0.001548,-0.001627,-0.003888,0.136765,0.22742,-0.964145,-0.13719497933316702
1763542425.341772,-0.112749,0.071926,-0.025646,0.990685,0.018128,-0.006936,-0.000194,-0.000996,-0.001222,-0.001161,0.136728,0.227087,-0.964229,-0.1371575930368763
1763542425.371588,-0.112555,0.071871,-0.025667,0.990711,0.020915,-0.004395,-0.002845,0.000476,-0.001058,0.000202,0.136628,0.226708,-0.964332,-0.13705669277063268
1763542425.409153,-0.112363,0.071842,-0.025702,0.990733,0.017438,0.000141,-0.003425,0.000705,-0.001955,8.4e-05,0.136576,0.226336,-0.964427,-0.1370041667155477
1763542425.409445,-0.112223,0.071814,-0.025735,0.99075,0.008565,-0.002073,0.000875,-0.001379,-0.002227,-0.002039,0.136523,0.226066,-0.964498,-0.13695064279502842
1763542425.431538,-0.112145,0.071749,-0.025718,0.990764,0.002731,-0.011182,0.002631,-0.002517,-0.001595,-0.002944,0.136405,0.22591,-0.964551,-0.1368315611744161
1763542425.461397,-0.112119,0.071581,-0.025651,0.990781,0.001385,-0.01387,0.005536,-0.001573,-0.002095,7.3e-05,0.13609,0.225843,-0.964611,-0.13651362043104856
1763542425.461772,-0.112093,0.071469,-0.025559,0.990795,0.000962,-0.010842,0.008933,-0.001687,-0.002483,0.001456,0.135892,0.225775,-0.964655,-0.1363137414638267
1763542425.48888,-0.112066,0.071382,-0.025456,0.990807,0.002851,-0.008845,0.010046,-0.002285,-0.001596,0.000896,0.135745,0.225706,-0.964692,-0.13616534584387496
1763542425.520896,-0.112039,0.071304,-0.025349,0.990818,0.002033,-0.007702,0.008393,-0.003307,-0.000644,0.000743,0.135619,0.225636,-0.964726,-0.1360381825137165
1763542425.521245,-0.112026,0.071229,-0.025251,0.990827,0.002344,-0.006162,0.006733,-0.003118,-2.1e-05,0.001356,0.135495,0.225593,-0.964753,-0.13591309055127332
1763542425.558845,-0.112007,0.071199,-0.025197,0.990833,0.002954,-0.00124,0.003368,-0.00265,0.001196,0.002303,0.135448,0.225548,-0.96477,-0.13586566920434426
1763542425.582066,-0.111948,0.071237,-0.02518,0.990837,0.007365,0.005558,0.001029,-0.002254,0.00057,0.00157,0.13553,0.225432,-0.964786,-0.13594837910032095
1763542425.582375,-0.111828,0.071327,-0.025207,0.990844,0.013408,0.008287,-0.003742,-0.002016,-9e-05,0.000866,0.13571,0.225204,-0.964814,-0.1361300503146707
1763542425.609966,-0.111691,0.071425,-0.025296,0.99085,0.013308,0.010192,-0.007012,-0.001646,0.00052,0.000471,0.135893,0.224952,-0.964847,-0.13631476537691964
1763542425.640902,-0.111581,0.071508,-0.025424,0.990853,0.008499,0.009449,-0.012311,-0.001864,-0.000146,-0.000375,0.136033,0.224757,-0.964873,-0.13645603991267766
1763542425.641207,-0.111524,0.071547,-0.025573,0.990853,0.004276,0.006803,-0.011119,-0.002278,-0.001756,-0.001799,0.136081,0.224668,-0.964887,-0.13650448499374707
1763542425.665791,-0.111518,0.071535,-0.025671,0.990852,0.000751,-0.001368,-0.006894,-0.002748,-0.004983,-0.002263,0.136035,0.224668,-0.964893,-0.13645811767876093
1763542425.700876,-0.111531,0.071459,-0.025698,0.990855,-0.000906,-0.005048,0.001176,-0.002223,-0.006178,-0.001052,0.135879,0.224694,-0.964909,-0.13630064586628318
1763542425.701296,-0.111529,0.071412,-0.025638,0.99086,0.000869,-0.002656,0.007277,-0.001526,-0.004557,-0.000304,0.135799,0.224682,-0.964923,-0.13621990487492516
1763542425.728295,-0.111536,0.071387,-0.02552,0.990864,-0.000945,-5.8e-05,0.011107,-0.002633,-0.003105,-0.00017,0.135777,0.224679,-0.964927,-0.13619767202216138
1763542425.766099,-0.111552,0.071386,-0.025396,0.990866,-0.003265,-0.002573,0.010185,-0.002693,-0.001908,0.000178,0.135801,0.224693,-0.96492,-0.13622194435608154
1763542425.766348,-0.11159,0.071365,-0.025302,0.990866,-0.005475,-0.002501,0.005307,-0.002222,-0.0012,0.000251,0.135779,0.224753,-0.964909,-0.13619975485293198
1763542425.793884,-0.111656,0.071346,-0.025252,0.990861,-0.004546,0.000555,0.000365,-0.002506,-0.001045,0.000368,0.135748,0.224874,-0.964886,-0.13616835537097186
1763542425.828546,-0.111716,0.071345,-0.025271,0.990854,-0.005695,0.002214,-0.003932,-0.00216,-0.002397,0.00042,0.135738,0.224994,-0.964859,-0.13615831907013964
1763542425.828812,-0.111806,0.071372,-0.025333,0.99084,-0.009416,0.001905,-0.006862,-0.003715,-0.003583,-0.00078,0.135773,0.225179,-0.964811,-0.13619363510155916
1763542425.854018,-0.111945,0.071366,-0.025397,0.990823,-0.017333,-0.001886,-0.005555,-0.003954,-0.005541,-0.001331,0.135736,0.22546,-0.96475,-0.13615636606438197
1763542425.882262,-0.11219,0.071328,-0.025438,0.990797,-0.027224,-0.004929,-0.004683,-0.002791,-0.006408,-0.00065,0.135635,0.225943,-0.964652,-0.1360543179820901
1763542425.882508,-0.112538,0.071289,-0.02545,0.99076,-0.038341,-0.002266,-0.001973,-0.002545,-0.008469,0.001294,0.135533,0.226624,-0.964506,-0.1359514438245597
1763542425.908894,-0.112987,0.071305,-0.025431,0.990708,-0.048676,0.001127,-0.000781,-0.003145,-0.009657,0.000813,0.135538,0.227501,-0.964299,-0.13595646574552694
1763542425.944619,-0.113526,0.071324,-0.02537,0.990647,-0.059754,0.001369,0.006037,-0.003097,-0.010485,-0.001314,0.135553,0.228547,-0.96405,-0.135971541599079
1763542425.944774,-0.114191,0.07134,-0.025236,0.990573,-0.073086,-0.003579,0.009967,-0.003175,-0.008576,-0.001655,0.135572,0.229829,-0.963742,-0.13599078502009526
1763542425.975536,-0.114968,0.071371,-0.025051,0.990485,-0.084579,-0.003003,0.012465,-0.001684,-0.010274,-0.001175,0.135623,0.231323,-0.963377,-0.13604230195710768
1763542426.003464,-0.115849,0.071373,-0.024855,0.990387,-0.094797,-0.004353,0.014457,-0.000847,-0.012182,0.000938,0.135615,0.233019,-0.96297,-0.13603413626654107
1763542426.003705,-0.116787,0.071387,-0.024644,0.990282,-0.101597,-0.001807,0.016281,-0.00101,-0.015185,0.001009,0.13563,0.234822,-0.96253,-0.13604925109470462
1763542426.03158,-0.117799,0.07141,-0.024388,0.990166,-0.108977,-0.00662,0.019557,-0.001639,-0.016775,-0.002555,0.135669,0.236765,-0.962048,-0.13608866780553075
1763542426.060947,-0.118929,0.071383,-0.024089,0.99004,-0.123264,-0.012494,0.021467,-0.000793,-0.017149,-1e-05,0.135615,0.238927,-0.961521,-0.1360341588852586
1763542426.087366,-0.120218,0.071354,-0.023763,0.989895,-0.145528,-0.008978,0.020765,-0.000312,-0.016152,0.000755,0.135553,0.241397,-0.960913,-0.13597152986925987
1763542426.087791,-0.121757,0.071369,-0.023433,0.989713,-0.17289,-0.003769,0.018442,-0.000125,-0.016834,-0.001381,0.135564,0.244353,-0.960163,-0.1359827655972325
1763542426.122992,-0.123585,0.071364,-0.02309,0.989495,-0.204403,-0.011273,0.017024,-9.5e-05,-0.016798,-0.002038,0.135522,0.247869,-0.959268,-0.1359402802455677
1763542426.149744,-0.125701,0.071288,-0.02273,0.989242,-0.232977,-0.019373,0.017199,-0.001244,-0.019825,-0.002383,0.135327,0.251939,-0.958235,-0.1357434246676176
1763542426.150035,-0.128132,0.071125,-0.022342,0.988951,-0.263124,-0.027992,0.019325,-0.000556,-0.021993,-0.003062,0.134953,0.25661,-0.957047,-0.13536603080411472
1763542426.181572,-0.130852,0.070877,-0.021889,0.988623,-0.294616,-0.039319,0.020419,-0.000927,-0.022512,-0.003304,0.134414,0.26183,-0.955708,-0.13482208214812083
1763542426.206067,-0.133847,0.070561,-0.021411,0.988255,-0.322647,-0.04605,0.01865,-0.000937,-0.023083,-0.003064,0.133733,0.267571,-0.954212,-0.1341349151830118
1763542426.206342,-0.137112,0.070198,-0.020944,0.987843,-0.345697,-0.047967,0.014867,-0.000226,-0.02425,-0.000485,0.132946,0.273831,-0.952545,-0.1333407746008608
1763542426.240814,-0.140588,0.069809,-0.020503,0.987391,-0.367884,-0.050327,0.00833,-0.001435,-0.029076,-0.000946,0.132093,0.280494,-0.950723,-0.1324802088515593
1763542426.265603,-0.144286,0.069413,-0.020097,0.986894,-0.392627,-0.050164,0.00725,-0.001746,-0.031698,-0.000116,0.131207,0.28758,-0.948727,-0.13158637741001997
1763542426.272355,-0.148265,0.069011,-0.019682,0.986341,-0.424244,-0.0514,0.00192,-0.001922,-0.027014,-0.000719,0.130301,0.295196,-0.94651,-0.13067254815746118
1763542426.300177,-0.152584,0.068618,-0.019326,0.985716,-0.461285,-0.048803,-0.008943,-0.00257,-0.02083,-0.002903,0.129378,0.30346,-0.94402,-0.1297416559656338
1763542426.326482,-0.157258,0.068159,-0.019078,0.985018,-0.495616,-0.060367,-0.022514,-0.004314,-0.020142,-0.007548,0.128275,0.312405,-0.941248,-0.12862946806846212
1763542426.326719,-0.162214,0.067575,-0.018894,0.984258,-0.514483,-0.066715,-0.030223,-0.003759,-0.023418,-0.002384,0.126892,0.321874,-0.938241,-0.1272349781943643
1763542426.36085,-0.167296,0.066914,-0.018774,0.983454,-0.522984,-0.072521,-0.041079,-0.004939,-0.029941,0.00062,0.125333,0.331569,-0.935069,-0.12566344562064144
1763542426.386269,-0.172432,0.066238,-0.018717,0.982614,-0.528508,-0.069935,-0.04365,-0.005151,-0.028972,6.4e-05,0.123717,0.341347,-0.93176,-0.12403477073384084
1763542426.386558,-0.177654,0.065543,-0.018707,0.98173,-0.541426,-0.077194,-0.053517,-0.005042,-0.026587,-0.001395,0.122044,0.351269,-0.928286,-0.12234904568388373
1763542426.420486,-0.182986,0.064769,-0.018755,0.9808,-0.550071,-0.081532,-0.060825,-0.006086,-0.029442,-0.001039,0.120186,0.361375,-0.924642,-0.12047727507598252
1763542426.446365,-0.188395,0.063903,-0.018847,0.979831,-0.559736,-0.09133,-0.061832,-0.006529,-0.034488,-0.001394,0.118127,0.3716,-0.920847,-0.11840347846548506
1763542426.44661,-0.193881,0.062963,-0.018882,0.97882,-0.56975,-0.09941,-0.050155,-0.00592,-0.040001,-0.002596,0.115937,0.381927,-0.916892,-0.11619827662915264
1763542426.481635,-0.199568,0.061936,-0.01872,0.977745,-0.604013,-0.121214,-0.036863,-0.007392,-0.027324,-0.007882,0.113643,0.392573,-0.912673,-0.11388902711812773
1763542426.481902,-0.205248,0.060907,-0.018558,0.976637,-0.638276,-0.143018,-0.023571,-0.008864,-0.014596,-0.013296,0.111349,0.403167,-0.908327,-0.11158037917688947
1763542426.506211,-0.211587,0.059485,-0.018147,0.975378,-0.663415,-0.142707,-0.036418,-0.003807,-0.010023,0.001001,0.108362,0.414914,-0.903385,-0.10857517647964358
1763542426.506542,-0.218073,0.058142,-0.01787,0.974035,-0.669615,-0.136068,-0.046966,-0.002518,-0.011026,0.006476,0.10547,0.426899,-0.898128,-0.10566649451074236
1763542426.543602,-0.224483,0.056912,-0.017665,0.972654,-0.655304,-0.121165,-0.05415,-0.005136,-0.019086,0.011468,0.10278,0.4387,-0.892737,-0.10296178256662822
1763542426.570291,-0.230787,0.055793,-0.017588,0.971244,-0.650965,-0.105305,-0.047451,-0.002939,-0.021314,0.008567,0.100259,0.450265,-0.887249,-0.10042766762870746
1763542426.570585,-0.237107,0.054803,-0.017423,0.96978,-0.661199,-0.09849,-0.047419,-0.002347,-0.010522,0.003109,0.098031,0.461792,-0.881554,-0.09818872754769631
1763542426.601589,-0.243552,0.053848,-0.017314,0.968237,-0.669365,-0.100956,-0.051503,-0.003195,-0.002768,0.000696,0.095842,0.473497,-0.875565,-0.09598937907768387
1763542426.626422,-0.24996,0.052887,-0.017244,0.966657,-0.654434,-0.09033,-0.059891,-0.000389,-0.003717,0.009034,0.093626,0.485075,-0.869446,-0.09376333056890207
1763542426.626691,-0.256137,0.052052,-0.017318,0.965083,-0.633553,-0.077562,-0.069304,-0.002512,-0.00589,0.009764,0.091597,0.496189,-0.863369,-0.09172558934428895
1763542426.661474,-0.262131,0.051318,-0.01747,0.963508,-0.61721,-0.059357,-0.060883,-0.004379,-0.005866,0.005374,0.089732,0.506924,-0.857307,-0.0898528983257954
1763542426.693482,-0.268087,0.050616,-0.017558,0.961904,-0.615037,-0.071967,-0.054752,-0.004962,-0.001863,-0.001599,0.087962,0.517525,-0.851135,-0.08807581833235768
1763542426.693752,-0.273932,0.049827,-0.017543,0.960297,-0.598578,-0.082301,-0.047201,-0.002858,-0.000967,0.000364,0.086087,0.52786,-0.844957,-0.08619370990125816
1763542426.721506,-0.27953,0.04905,-0.01746,0.958724,-0.566263,-0.079215,-0.039939,-0.002157,-0.000728,0.004326,0.08429,0.537697,-0.838914,-0.08439014942424737
1763542426.745312,-0.284791,0.048346,-0.017327,0.957213,-0.535286,-0.073426,-0.029833,-0.002263,-0.002817,0.005331,0.082686,0.546886,-0.833114,-0.08278050276080501
1763542426.746415,-0.289763,0.047691,-0.017079,0.955757,-0.514216,-0.062608,-0.01045,-0.001503,-0.003364,0.003331,0.081264,0.555515,-0.827526,-0.08135370785597057
1763542426.779634,-0.294556,0.047172,-0.016659,0.954324,-0.497472,-0.064936,0.006822,-0.001806,-0.000802,0.000521,0.08022,0.563775,-0.822023,-0.08030631709040949
1763542426.80657,-0.29913,0.0467,-0.016083,0.952933,-0.47196,-0.063742,0.028838,-0.001139,-0.001076,0.003489,0.079382,0.571604,-0.81668,-0.07946565377948273
1763542426.806827,-0.303513,0.046311,-0.015266,0.951579,-0.456476,-0.068547,0.055703,-0.00088,-0.002368,0.002444,0.078871,0.579047,-0.81147,-0.07895301591543923
1763542426.841134,-0.307767,0.045946,-0.01417,0.950246,-0.451591,-0.078419,0.08338,-0.002487,-0.001669,3e-06,0.078597,0.58621,-0.806338,-0.07867812324353307
1763542426.872089,-0.311961,0.045475,-0.012843,0.948919,-0.445908,-0.086796,0.101817,-0.001155,-0.00313,0.005417,0.078291,0.593219,-0.801225,-0.07837121124008868
1763542426.872321,-0.316081,0.045145,-0.011354,0.94759,-0.430118,-0.077106,0.113252,-0.00139,-0.004036,0.007879,0.07838,0.600055,-0.79611,-0.07846045428439126
1763542426.899101,-0.32003,0.044836,-0.009796,0.946295,-0.41676,-0.069624,0.119712,-0.000115,-0.003029,0.012285,0.078585,0.606564,-0.791141,-0.07866612750112259
1763542426.925854,-0.323823,0.044665,-0.008278,0.945026,-0.413215,-0.064218,0.120984,-0.001227,0.005865,0.006127,0.079059,0.612783,-0.786287,-0.07914156704377226
1763542426.926124,-0.327732,0.044503,-0.006805,0.943697,-0.425262,-0.054724,0.109983,-0.00044,0.012259,0.005119,0.079535,0.619166,-0.781222,-0.07961908698332355
1763542426.961592,-0.331765,0.044337,-0.005444,0.942304,-0.446528,-0.061748,0.096074,-0.003649,0.016368,0.003471,0.079946,0.625729,-0.775933,-0.08003139990696477
1763542426.986223,-0.335931,0.044063,-0.004235,0.940846,-0.451319,-0.055536,0.082202,-0.00268,0.012034,0.007078,0.080068,0.632491,-0.770418,-0.08015381315132786
1763542426.986472,-0.340098,0.043801,-0.003185,0.939364,-0.445344,-0.056549,0.061164,-0.001917,0.011135,0.010493,0.080124,0.63923,-0.76483,-0.08020998832540294
1763542427.022324,-0.344183,0.043511,-0.002346,0.937891,-0.433522,-0.047775,0.044288,-0.002475,0.006961,0.009941,0.080001,0.645816,-0.75929,-0.08008659248056713
1763542427.046452,-0.348155,0.043244,-0.001709,0.936437,-0.421418,-0.038031,0.025478,-0.003124,0.006934,0.001941,0.079801,0.652199,-0.753835,-0.07988598409137469
1763542427.046593,-0.352055,0.042911,-0.001175,0.934994,-0.412872,-0.052348,0.013106,-0.005507,0.005524,0.000797,0.079416,0.65844,-0.748432,-0.07949969232281409
1763542427.082486,-0.355809,0.042486,-0.000751,0.933592,-0.397481,-0.040424,0.005036,-0.001976,0.007256,0.005467,0.078795,0.664424,-0.74319,-0.07887679222719728
1763542427.106577,-0.359466,0.042157,-0.000483,0.932205,-0.3842,-0.030056,-0.007894,-0.001944,0.006071,0.006193,0.07825,0.670233,-0.738014,-0.07833007573730053
1763542427.107889,-0.362974,0.041874,-0.000333,0.930858,-0.371846,-0.02137,-0.017631,-0.001596,0.002251,0.006418,0.077716,0.675782,-0.732993,-0.07779445137878516
1763542427.142922,-0.366377,0.041678,-0.000308,0.929533,-0.357409,-0.008404,-0.02631,-0.000964,-0.004967,0.007296,0.077257,0.681144,-0.728062,-0.07733405775229493
1763542427.171242,-0.369622,0.041503,-0.000366,0.928255,-0.348136,-0.009195,-0.021291,-0.003576,-0.008105,0.003135,0.076781,0.686236,-0.723315,-0.07685665158001286
1763542427.171494,-0.372824,0.041402,-0.000415,0.926978,-0.342457,-0.000384,-0.019307,-0.000931,-0.005679,0.004931,0.076448,0.691234,-0.718576,-0.0765226527074696
1763542427.203539,-0.37602,0.041386,-0.000459,0.925687,-0.348894,0.005907,-0.020538,-0.003043,-0.002444,0.006621,0.076276,0.696191,-0.713792,-0.07635019690414897
1763542427.226401,-0.379273,0.041407,-0.000542,0.924357,-0.356561,0.013233,-0.01645,-0.001563,-0.001362,0.003008,0.076138,0.701213,-0.708874,-0.07621179213103757
1763542427.226547,-0.382626,0.041468,-0.000543,0.922972,-0.373425,0.005413,-0.011793,-0.000805,0.002054,0.001626,0.076131,0.706351,-0.703756,-0.07620472755806561
1763542427.261786,-0.386087,0.041511,-0.000523,0.921528,-0.372353,0.009103,-0.010705,-0.000431,0.003277,0.004279,0.076104,0.711623,-0.698427,-0.07617767894493557
1763542427.286253,-0.389475,0.041571,-0.000452,0.920098,-0.362391,0.010506,-0.002704,0.001274,0.007066,0.006024,0.076146,0.716748,-0.693162,-0.07621979813804099
1763542427.292006,-0.392758,0.041686,-0.000374,0.918696,-0.356998,0.009566,-0.001932,0.001887,0.012042,0.006621,0.076301,0.721682,-0.688007,-0.07637521535300423
1763542427.321707,-0.395974,0.041776,-0.000278,0.917311,-0.351994,0.008361,-5.9e-05,1.4e-05,0.017049,0.003327,0.076424,0.726486,-0.682918,-0.07649860821949968
1763542427.348058,-0.399165,0.041778,-0.000115,0.915927,-0.350469,-0.007281,0.004396,-0.001517,0.016276,0.007669,0.076439,0.731221,-0.677844,-0.0765136511098954
1763542427.352606,-0.402306,0.041749,0.000122,0.914553,-0.336392,-0.007767,0.009848,-0.000648,0.018918,0.010409,0.076461,0.73585,-0.672814,-0.07653569169681274
1763542427.380243,-0.40532,0.04174,0.000414,0.913222,-0.323514,-0.006772,0.013744,0.00077,0.019799,0.014119,0.076571,0.740259,-0.667948,-0.07664598246936248
1763542427.405918,-0.40825,0.04177,0.000717,0.911914,-0.315079,-0.003359,0.016767,0.00269,0.020511,0.015641,0.076766,0.744517,-0.663175,-0.07684161087936293
1763542427.411624,-0.411092,0.041858,0.001005,0.910632,-0.312177,0.003646,0.017926,0.000295,0.024466,0.017287,0.077061,0.748623,-0.658502,-0.07713748679817058
1763542427.441673,-0.413919,0.041968,0.001295,0.909345,-0.309108,0.00342,0.020097,0.00061,0.024272,0.015251,0.077398,0.752682,-0.653819,-0.07747548665263188
1763542427.466006,-0.416675,0.042095,0.001613,0.908079,-0.298713,0.00194,0.025853,-0.001652,0.028168,0.013898,0.077795,0.756612,-0.64922,-0.0778736693321413
1763542427.472613,-0.419362,0.042165,0.001981,0.906837,-0.293025,-0.009999,0.02584,-0.003294,0.030858,0.010349,0.078136,0.76042,-0.644715,-0.07821567698736015
1763542427.501617,-0.422072,0.042077,0.002405,0.905582,-0.293457,-0.02683,0.017823,0.003064,0.035931,0.018504,0.078239,0.76424,-0.640169,-0.07831902361240518
1763542427.525788,-0.424715,0.041983,0.002705,0.904349,-0.284577,-0.007375,0.005906,0.009854,0.035284,0.024933,0.078233,0.767954,-0.635709,-0.0783130360142539
1763542427.532475,-0.427262,0.041984,0.002829,0.903148,-0.273843,0.011105,-0.003038,0.009061,0.032124,0.022251,0.078254,0.771524,-0.631369,-0.07833409650749318
1763542427.559322,-0.429656,0.042104,0.002853,0.902006,-0.254203,0.019528,-8e-06,0.007493,0.027558,0.015462,0.078409,0.774864,-0.627246,-0.0784895762543926
1763542427.585845,-0.431886,0.042256,0.002909,0.900933,-0.233819,0.015209,0.007251,0.004943,0.024152,0.010659,0.078653,0.777955,-0.623378,-0.07873430562419233
1763542427.592722,-0.433955,0.042386,0.003067,0.899932,-0.215865,0.000536,0.013961,0.005604,0.0204,0.01072,0.078951,0.7808,-0.619773,-0.07903323259063504
1763542427.622853,-0.435802,0.042501,0.003336,0.899032,-0.191011,-0.00354,0.022055,0.006504,0.018147,0.012332,0.079327,0.783317,-0.61654,-0.07941043957234938
1763542427.65205,-0.437471,0.042596,0.003635,0.898216,-0.17425,0.001639,0.026121,0.006819,0.019403,0.01203,0.079701,0.785577,-0.61361,-0.07978559406098906
1763542427.65233,-0.438978,0.042763,0.003963,0.897471,-0.159269,0.002026,0.025316,0.007273,0.01981,0.009724,0.080237,0.7876,-0.61094,-0.0803233677175926
1763542427.681592,-0.440348,0.042918,0.004231,0.896791,-0.142551,0.006575,0.027189,0.006019,0.019454,0.005112,0.080703,0.789437,-0.608503,-0.08079087458963001
1763542427.712398,-0.441549,0.04303,0.00452,0.896193,-0.126989,-0.006414,0.022186,0.00421,0.019991,0.001041,0.081117,0.791038,-0.606365,-0.08120623865630106
1763542427.712694,-0.442639,0.04304,0.00482,0.895654,-0.108668,-0.016748,0.01807,0.004908,0.019924,0.001561,0.081365,0.792487,-0.604437,-0.08145504498839061
1763542427.742819,-0.443547,0.042961,0.005053,0.895207,-0.09181,-0.017145,0.0108,0.004865,0.018724,0.002843,0.0814,0.793698,-0.602842,-0.08149012240026016
1763542427.771894,-0.444335,0.042855,0.005237,0.89482,-0.078398,-0.016289,0.001199,0.003998,0.018159,0.002222,0.081348,0.79475,-0.60146,-0.08143802126418141
1763542427.772214,-0.444996,0.042711,0.005343,0.894497,-0.064488,-0.016923,-0.004806,0.001433,0.01558,0.002028,0.081165,0.795639,-0.600308,-0.08125442710305718
1763542427.801868,-0.445505,0.042502,0.005408,0.894253,-0.048188,-0.021566,-0.003778,-0.00103,0.010491,0.0009,0.080834,0.79633,-0.599437,-0.08092227686992784
1763542427.825645,-0.445894,0.042252,0.005455,0.894071,-0.034961,-0.023983,-0.006997,-0.00114,0.008321,0.001653,0.080418,0.796862,-0.598786,-0.08050489987173512
1763542427.861319,-0.446156,0.041981,0.005546,0.893952,-0.022564,-0.028085,-0.006915,-0.001409,0.008255,0.001327,0.080007,0.79722,-0.598364,-0.08009258950299589
1763542427.861629,-0.44636,0.041713,0.005647,0.893863,-0.015785,-0.030047,-0.005323,-0.000635,0.008519,0.002149,0.079612,0.797498,-0.598046,-0.07969633257546964
1763542427.892096,-0.446504,0.041397,0.00576,0.893805,-0.013205,-0.029157,-0.006171,-0.001408,0.007717,0.004112,0.079145,0.797698,-0.597841,-0.07922786455393452
1763542427.892365,-0.44663,0.041102,0.005834,0.893755,-0.010962,-0.025154,-0.007858,-0.002553,0.005575,0.004332,0.078682,0.797876,-0.597665,-0.07876339524214829
1763542427.924009,-0.44674,0.040827,0.005883,0.893712,-0.00991,-0.025049,-0.007282,-0.002749,0.003445,0.001863,0.078231,0.798034,-0.597513,-0.07831101187193291
1763542427.952186,-0.44683,0.040551,0.005939,0.89368,-0.010738,-0.029688,-0.004667,-0.005538,0.003593,6.2e-05,0.077787,0.798164,-0.597398,-0.07786562279258985
1763542427.952516,-0.446945,0.040234,0.00604,0.893636,-0.013891,-0.027597,-0.005754,-0.004896,0.00355,0.002984,0.077309,0.798326,-0.597243,-0.07738620535751742
1763542427.981689,-0.44708,0.039944,0.0061,0.893581,-0.014272,-0.020493,-0.008487,-0.003973,0.003257,0.003142,0.076841,0.798517,-0.597047,-0.07691685635038453
1763542428.007318,-0.447227,0.039731,0.006122,0.893517,-0.013676,-0.016241,-0.00944,-0.006064,0.000276,0.001645,0.076477,0.798722,-0.59682,-0.07655175817925391
1763542428.011445,-0.447312,0.039518,0.006116,0.893484,-0.008115,-0.016474,-0.007404,-0.006074,-0.001931,0.001736,0.076088,0.798848,-0.596701,-0.07616162451596317
1763542428.041797,-0.447374,0.039337,0.006129,0.893461,-0.004671,-0.015898,-0.003124,-0.006351,-0.000509,-0.000326,0.075775,0.798939,-0.596619,-0.07584771771095276
1763542428.072348,-0.447449,0.039188,0.006176,0.893429,-0.008952,-0.013278,-0.001271,-0.005149,-0.000746,0.000964,0.075551,0.799044,-0.596507,-0.07562306382159281
1763542428.072642,-0.447571,0.039096,0.006224,0.893372,-0.014356,-0.007677,0.00166,-0.00605,-0.001747,0.001054,0.075425,0.799208,-0.596304,-0.0754966673513459
1763542428.109115,-0.4477,0.03895,0.006296,0.893313,-0.016281,-0.014602,0.00096,-0.006289,-0.003064,-0.000877,0.075227,0.799382,-0.596095,-0.0752981367180249
1763542428.124622,-0.447834,0.038809,0.006417,0.893251,-0.015244,-0.013953,0.006389,-0.007186,-0.001635,0.001615,0.07508,0.799558,-0.595877,-0.07515073982667929
1763542428.16161,-0.447985,0.038723,0.00654,0.893178,-0.016461,-0.003906,0.009665,-0.006083,0.000776,0.005503,0.075033,0.799755,-0.595619,-0.07510358416296797
1763542428.161848,-0.448137,0.038784,0.006625,0.893099,-0.018129,0.005773,0.007489,-0.003968,0.002069,0.005319,0.075213,0.799947,-0.595338,-0.07528411202978931
1763542428.19169,-0.448292,0.038886,0.006633,0.893017,-0.017396,0.012072,0.00353,-0.004609,0.003057,0.003448,0.075398,0.800148,-0.595045,-0.07546961241400453
1763542428.220984,-0.448463,0.039004,0.006607,0.892925,-0.017078,0.008813,0.001627,-0.003573,0.003242,0.00124,0.075581,0.800373,-0.594719,-0.07565314048197357
1763542428.221333,-0.448625,0.039073,0.006582,0.892841,-0.014926,0.005475,-0.000112,-0.00193,0.005273,0.003727,0.075678,0.800587,-0.594418,-0.07575044385101007
1763542428.251389,-0.448753,0.039167,0.006516,0.892773,-0.011748,0.012473,-0.004355,-0.001057,0.004476,0.003985,0.075783,0.800759,-0.594174,-0.07585569617118522
1763542428.277447,-0.448868,0.039249,0.006399,0.892713,-0.011172,0.012405,-0.003505,-0.001539,0.005009,0.001209,0.075821,0.800919,-0.593954,-0.07589378142078809
1763542428.27769,-0.449,0.039303,0.006293,0.892645,-0.011187,0.007262,-0.005883,-0.001077,0.003348,0.000371,0.075819,0.8011,-0.593709,-0.0758918256539797
1763542428.311439,-0.449114,0.039326,0.006228,0.892587,-0.007471,0.00492,-0.003259,-0.000409,0.001505,0.000587,0.075798,0.801256,-0.593501,-0.07587077098416523
1763542428.343053,-0.449164,0.039386,0.006197,0.892559,-0.003675,0.006093,-6e-05,-0.000837,0.00073,0.00076,0.075876,0.801323,-0.593401,-0.07594897673229872
1763542428.343338,-0.449201,0.039475,0.006152,0.892537,-0.003552,0.009114,-9e-06,0.000606,0.00302,0.002372,0.075992,0.801371,-0.593321,-0.0760653275132641
1763542428.372131,-0.449214,0.039598,0.006075,0.892525,-0.001549,0.016702,-0.000627,-9.7e-05,0.000854,-0.001127,0.076142,0.801389,-0.593277,-0.0762157840029309
1763542428.400908,-0.44924,0.039706,0.006015,0.892508,-0.00049,0.00528,-0.000198,-0.001412,-0.001183,-0.002942,0.07628,0.801423,-0.593214,-0.07635415667890225
1763542428.401411,-0.449267,0.039715,0.006023,0.892494,0.000285,0.000835,0.000865,-0.001503,-0.00321,-0.000157,0.076303,0.801458,-0.593163,-0.07637725814818816
1763542428.431489,-0.449269,0.039748,0.006051,0.892491,0.001309,0.002647,0.003773,0.000254,-0.002763,0.000874,0.076387,0.801457,-0.593154,-0.07646148312556822
1763542428.458918,-0.449253,0.039849,0.006072,0.892495,0.00079,0.010829,0.006348,0.000584,-0.001221,0.002589,0.076586,0.801428,-0.593167,-0.07666109159581469
1763542428.45916,-0.449253,0.039946,0.006056,0.89249,-0.004933,0.007681,0.004541,-0.000375,-0.000581,-0.002839,0.076743,0.801425,-0.593152,-0.07681849852484132
1763542428.490751,-0.449338,0.039988,0.00607,0.892446,-0.010074,-0.001288,0.002034,-0.00034,0.000228,-0.001387,0.07683,0.801534,-0.592993,-0.07690577590343438
1763542428.519249,-0.449434,0.039962,0.006104,0.892398,-0.010677,-0.002881,0.001922,-0.000546,0.000908,-0.00137,0.076812,0.801661,-0.592823,-0.07688775138921798
1763542428.519472,-0.449526,0.039926,0.006132,0.892354,-0.009501,-0.003917,0.000765,-0.000409,0.001683,0.000914,0.07677,0.801782,-0.592665,-0.0768456170220604
1763542428.551497,-0.449606,0.039853,0.006145,0.892316,-0.010609,-0.004757,-0.001226,-0.001583,0.001532,0.001877,0.076648,0.801892,-0.592532,-0.07672325432764715
1763542428.579692,-0.449732,0.039798,0.006156,0.892255,-0.012066,-0.004436,0.001035,-0.001973,0.001482,0.002197,0.076557,0.802062,-0.592314,-0.07663196948380134
1763542428.579924,-0.449842,0.039786,0.006191,0.8922,-0.012072,-0.001278,0.002492,-0.002709,0.001263,0.002407,0.076564,0.802206,-0.592118,-0.07663899247807236
1763542428.611939,-0.449956,0.039777,0.006245,0.892143,-0.011372,-0.000944,0.005681,-0.002642,0.002255,0.002376,0.076593,0.802353,-0.591915,-0.07666807968647685
1763542428.641664,-0.450061,0.039826,0.006295,0.892087,-0.008526,0.002915,0.005254,-0.001429,0.003944,0.003956,0.076723,0.802486,-0.591717,-0.0767985012123202
1763542428.641899,-0.450136,0.039886,0.006303,0.892046,-0.00493,0.006068,2.9e-05,-0.001214,0.00398,0.00226,0.076835,0.802582,-0.591573,-0.07691079850309918
1763542428.672821,-0.45018,0.039911,0.006234,0.892023,-0.00529,0.005672,-0.006029,-0.00129,0.004894,0.00257,0.076816,0.802645,-0.59149,-0.07689174157920722
1763542428.702035,-0.450229,0.039928,0.006127,0.891999,-0.003501,0.003325,-0.009211,-0.001019,0.00341,0.000895,0.076748,0.802718,-0.5914,-0.07682352912156756
1763542428.702203,-0.450264,0.039892,0.006017,0.891984,-0.001051,-0.001617,-0.007657,-0.001445,0.002249,-2.8e-05,0.076586,0.802776,-0.591342,-0.0766610632497499
1763542428.734305,-0.450282,0.039851,0.005955,0.891976,0.000641,-0.004949,-0.005349,-0.001904,0.000797,-0.00025,0.076455,0.802808,-0.591315,-0.07652970109308381
1763542428.760863,-0.45025,0.039794,0.005942,0.891995,0.00707,-0.006056,-0.001822,-0.001646,-0.000515,0.000553,0.076343,0.80277,-0.591382,-0.07641733006510441
1763542428.761177,-0.450153,0.039702,0.005941,0.892049,0.010193,-0.009911,-0.002341,-0.002389,0.000624,-0.000919,0.07618,0.802645,-0.591572,-0.07625388372435693
1763542428.789584,-0.450018,0.039592,0.005956,0.892122,0.012403,-0.008098,-0.00555,-0.002003,0.001711,-0.000226,0.076002,0.80247,-0.591833,-0.076075332428236
1763542428.827319,-0.449905,0.039458,0.005914,0.892185,0.008992,-0.009001,-0.007765,-0.00215,0.001585,0.00025,0.07573,0.80233,-0.592057,-0.07580257490712064
1763542428.827544,-0.449791,0.039325,0.005872,0.892248,0.005581,-0.009904,-0.009979,-0.002297,0.001459,0.000726,0.075458,0.802189,-0.592282,-0.0755298278368203
1763542428.84869,-0.449748,0.039216,0.00582,0.892275,0.003505,-0.006806,-0.009037,-0.00252,0.000429,0.001864,0.075218,0.802142,-0.592377,-0.07528910687155992
1763542428.878312,-0.449722,0.039127,0.005752,0.892293,0.00266,-0.001095,-0.008022,-0.003485,-0.001163,0.002472,0.074999,0.802117,-0.592439,-0.0750694694341787
1763542428.879144,-0.4497,0.03909,0.005679,0.892306,0.000498,0.003128,-0.006589,-0.003908,-0.001307,0.003126,0.074867,0.802096,-0.592484,-0.0749371029151012
1763542428.904654,-0.449709,0.039124,0.005583,0.8923,-0.001448,0.004289,-0.005868,-0.003317,-0.000191,0.00231,0.074842,0.802114,-0.592462,-0.07491206769931173
1763542428.917073,-0.449756,0.03915,0.005516,0.892276,-0.007601,0.006562,-0.0031,-0.001949,0.000604,0.001813,0.074826,0.802181,-0.592374,-0.07489599165788559
1763542428.938352,-0.449869,0.039218,0.005441,0.892217,-0.013125,0.009059,-0.002538,-0.003772,0.001492,0.000642,0.074877,0.802334,-0.59216,-0.07494714881441351
1763542428.987473,-0.450009,0.039274,0.005398,0.892143,-0.014228,0.007572,-0.00148,-0.002401,0.002049,0.001192,0.074934,0.802522,-0.591898,-0.07500430831469862
1763542428.994249,-0.450151,0.039338,0.005354,0.892069,-0.015043,0.007791,-0.001933,-0.00133,0.003349,0.003002,0.075004,0.802711,-0.591633,-0.07507449649966995
1763542428.996155,-0.45029,0.039431,0.005276,0.891996,-0.014564,0.012661,-0.003332,-0.002467,0.004229,0.003029,0.075096,0.802898,-0.591368,-0.07516673549473143
1763542429.02515,-0.450434,0.039508,0.005161,0.89192,-0.018775,0.012131,-0.003935,-0.002813,0.003239,0.000925,0.075126,0.803095,-0.591096,-0.07519684845418895
1763542429.055779,-0.450638,0.03957,0.005084,0.891815,-0.023081,0.008329,-0.004432,-0.002487,0.002563,0.002233,0.07516,0.803369,-0.590719,-0.07523095477948705
1763542429.055876,-0.450855,0.03968,0.005009,0.891701,-0.026618,0.01342,-0.002933,-0.001588,0.001221,0.001374,0.075282,0.803658,-0.590311,-0.07535326652136881
1763542429.085123,-0.451129,0.039768,0.004916,0.891559,-0.029492,0.015756,-0.003004,-0.002205,-0.000958,0.003424,0.075346,0.804024,-0.589803,-0.075417503421545
1763542429.115158,-0.451387,0.039892,0.004825,0.891423,-0.028102,0.017487,-0.001743,-0.003644,-0.002192,0.000133,0.075477,0.804368,-0.589318,-0.07554883324565917
1763542429.119072,-0.451627,0.040043,0.00478,0.891295,-0.022595,0.008254,0.001038,-0.004386,-0.003172,-0.003221,0.075697,0.804683,-0.588859,-0.0757694899646868
1763542429.146322,-0.451837,0.040082,0.004805,0.891187,-0.0203,-0.002372,0.004149,-0.004198,-0.002067,-0.002541,0.075784,0.804957,-0.588474,-0.07585670461304048
1763542429.175389,-0.452007,0.040071,0.004879,0.891101,-0.015887,-0.00269,0.003782,-0.002147,-0.000538,0.000338,0.075825,0.805176,-0.588169,-0.07589782446926527
1763542429.179723,-0.452141,0.040088,0.004914,0.891032,-0.012094,0.004936,0.001239,-0.001053,0.001041,0.001374,0.075883,0.805349,-0.587924,-0.07595601954354021
1763542429.207504,-0.452226,0.040162,0.004886,0.890985,-0.007426,0.00987,0.0005,-0.001107,0.00106,0.001463,0.075985,0.805461,-0.587757,-0.07605833156143181
1763542429.250798,-0.452274,0.040224,0.004882,0.890958,-0.006698,0.005478,0.000663,-0.00082,0.001438,0.001682,0.076091,0.805522,-0.58766,-0.07616462506904827
1763542429.251136,-0.452323,0.040286,0.004878,0.890931,-0.00597,0.001086,0.000826,-0.000532,0.001816,0.001902,0.076196,0.805584,-0.587562,-0.07626990378353045
1763542429.271014,-0.452373,0.040293,0.00489,0.890905,-0.004721,0.000529,0.001522,-0.000418,0.001967,0.001989,0.076217,0.805649,-0.58747,-0.07629097160157532
1763542429.296058,-0.452423,0.040319,0.004908,0.890878,-0.003379,0.00059,-1.5e-05,-0.001112,0.002215,0.00171,0.076281,0.805712,-0.587375,-0.07635517125221071
1763542429.296366,-0.452449,0.040304,0.004894,0.890865,-0.00341,-0.00131,-0.000448,-0.001447,0.001864,0.00038,0.076238,0.805749,-0.58733,-0.07631203787134588
1763542429.326669,-0.452488,0.040264,0.004867,0.890848,-0.003151,-0.003713,-0.002245,-0.001842,0.002501,-0.000156,0.076143,0.805804,-0.587267,-0.07621675484379038
1763542429.356964,-0.452526,0.040242,0.004858,0.89083,-0.002864,-0.002037,-0.003961,-0.00136,0.001247,0.000433,0.076094,0.805856,-0.587202,-0.07616761204207233
1763542429.361033,-0.45256,0.04021,0.004822,0.890814,-0.001667,-0.000994,-0.004843,-0.001073,0.002058,0.000179,0.076005,0.805906,-0.587144,-0.07607839399953309
1763542429.398332,-0.452547,0.040173,0.004739,0.890822,0.004143,0.003783,-0.008709,-0.000283,0.001757,-0.00082,0.075864,0.805898,-0.587174,-0.07593695061966024
1763542429.398572,-0.452501,0.04013,0.004646,0.890848,0.003047,-0.006533,-0.011612,-0.001055,0.001699,-0.00394,0.075704,0.805847,-0.587264,-0.07577651768100159
1763542429.424889,-0.452484,0.039989,0.004606,0.890864,0.000897,-0.014761,-0.009069,-0.002044,0.000168,-0.001359,0.075418,0.805835,-0.587318,-0.07548966487737195
1763542429.450259,-0.452481,0.039783,0.00462,0.890874,-0.002771,-0.016538,-0.006856,-0.002264,-0.000828,0.000105,0.075065,0.80584,-0.587356,-0.07513567743751386
1763542429.476628,-0.452527,0.039618,0.004662,0.890858,-0.00653,-0.012092,-0.001779,-0.00179,-0.002326,0.001902,0.074807,0.805906,-0.587299,-0.07487692173432837
1763542429.480987,-0.452595,0.039526,0.004748,0.890827,-0.010288,-0.012668,0.004043,-0.002301,-0.003606,0.00076,0.07472,0.805993,-0.58719,-0.07478970730058296
1763542429.505359,-0.452698,0.039433,0.004887,0.890778,-0.011617,-0.01283,0.008056,-0.003153,-0.001826,0.001076,0.074676,0.806121,-0.58702,-0.07474557798085893
1763542429.541539,-0.452811,0.039364,0.005016,0.890723,-0.014351,-0.011098,0.00756,-0.003048,-0.000504,0.001513,0.074666,0.806263,-0.586826,-0.07473555975698999
1763542429.541776,-0.452971,0.039292,0.005143,0.890644,-0.020461,-0.010345,0.0065,-0.003255,0.000807,0.001698,0.07465,0.806468,-0.586546,-0.07471952708071987
1763542429.568694,-0.453171,0.039238,0.00524,0.890544,-0.022867,-0.007457,0.005093,-0.003278,0.000966,0.001384,0.074636,0.806726,-0.586193,-0.07470548277854369
1763542429.594858,-0.453373,0.039188,0.005333,0.890443,-0.021053,-0.006955,0.005699,-0.003691,0.000897,0.002121,0.074625,0.806988,-0.585835,-0.07469439345059828
1763542429.600907,-0.453547,0.039156,0.005412,0.890355,-0.01647,-0.004636,0.004468,-0.004237,0.001577,0.001657,0.074634,0.807212,-0.585524,-0.07470346982527903
1763542429.625676,-0.45368,0.039149,0.005472,0.890288,-0.011753,-0.001894,0.002634,-0.004328,0.003573,0.002148,0.074672,0.807382,-0.585284,-0.07474160758639475
1763542429.656127,-0.453789,0.039162,0.00546,0.890231,-0.010655,0.003941,-0.001422,-0.003966,0.004565,0.001496,0.074681,0.807527,-0.585083,-0.07475062297248809
1763542429.66015,-0.453876,0.039179,0.005426,0.890187,-0.009687,0.00497,-0.003171,-0.002279,0.003853,0.001037,0.074679,0.807643,-0.584924,-0.07474857880800301
1763542429.686586,-0.453949,0.039224,0.005351,0.890148,-0.006405,0.006372,-0.005996,-0.002153,0.00211,0.001399,0.074688,0.807744,-0.584783,-0.0747576201256663
1763542429.716029,-0.453976,0.039253,0.005255,0.890133,-0.001017,0.005835,-0.006985,-0.001947,0.002226,0.000698,0.074652,0.807786,-0.58473,-0.07472150093041835
1763542429.720159,-0.453969,0.039272,0.005158,0.890137,0.001684,0.004902,-0.006646,-0.00174,0.002314,0.001163,0.074598,0.807784,-0.58474,-0.07466733483489829
1763542429.745952,-0.453955,0.039275,0.005073,0.890144,0.002195,0.003455,-0.005558,-0.002036,0.001407,0.000685,0.074528,0.807773,-0.584764,-0.07459714475837377
1763542429.775989,-0.453954,0.039291,0.005016,0.890144,-0.000423,0.001872,-0.003031,-0.001139,0.001352,0.000302,0.074504,0.807776,-0.584763,-0.07457307410625244
1763542429.780242,-0.453975,0.039292,0.004992,0.890134,-0.001209,0.000484,-0.001162,-0.000683,0.000943,-0.000248,0.074483,0.807805,-0.584726,-0.07455199872123848
1763542429.810975,-0.454013,0.039276,0.004995,0.890115,-0.002747,-0.002961,0.000764,-0.001439,3.9e-05,-0.000696,0.074455,0.807855,-0.58466,-0.07452394193094158
1763542429.840089,-0.454068,0.039257,0.005051,0.890087,-0.006244,-0.005424,0.00365,-0.002673,-0.000662,3.7e-05,0.074471,0.807925,-0.584561,-0.07453999638178843
1763542429.846265,-0.454145,0.03924,0.005121,0.890048,-0.008277,-0.005061,0.00493,-0.001518,-0.000809,0.000481,0.074503,0.80802,-0.584425,-0.07457211167555142
1763542429.870822,-0.45419,0.039199,0.005195,0.890027,-0.005847,-0.002174,0.003302,-0.002196,-0.000868,0.000473,0.074495,0.808075,-0.584351,-0.07456404441658765
1763542429.896761,-0.45423,0.039174,0.005229,0.890007,-0.002977,-0.000289,0.000728,-0.001856,0.000926,0.001052,0.074481,0.808127,-0.584281,-0.07454999972191667
1763542429.926987,-0.454261,0.039167,0.005235,0.889992,-0.001338,-0.00013,0.000327,-0.001526,0.001386,0.001686,0.074473,0.808167,-0.584226,-0.0745420076075188
1763542429.927286,-0.454272,0.03915,0.005206,0.889987,-0.002023,0.002669,-0.002843,-0.002559,0.001598,0.001767,0.074415,0.808185,-0.584208,-0.07448386760376528
1763542429.956075,-0.45428,0.039141,0.005142,0.889984,-0.001977,0.003248,-0.003523,-0.001397,0.001441,0.0008,0.074342,0.808201,-0.584195,-0.07441067176755851
1763542429.986113,-0.454301,0.039155,0.005084,0.889973,-0.001603,0.002831,-0.003086,-0.002809,0.000326,0.000331,0.074314,0.808233,-0.584155,-0.07438256318387841
1763542429.986401,-0.454323,0.039166,0.005049,0.889961,-0.002599,-0.000128,-0.001809,-0.002773,-0.000351,0.000405,0.0743,0.808264,-0.584113,-0.07436856298457081
1763542430.004761,-0.454344,0.039137,0.005074,0.889952,-0.00212,-0.002747,0.001732,-0.00227,0.000294,0.001837,0.07427,0.808291,-0.58408,-0.0743384560398814
1763542430.046957,-0.454355,0.039138,0.005116,0.889946,-0.000744,-0.001184,0.002271,-0.001782,0.001463,0.002406,0.07431,0.808303,-0.584059,-0.07437853665112368
1763542430.047248,-0.454369,0.039128,0.005146,0.889939,6.7e-05,-0.00356,0.004157,-0.002888,0.001557,0.000622,0.07432,0.808318,-0.584036,-0.07438860650492779
1763542430.07614,-0.454387,0.039104,0.005232,0.88993,-7.6e-05,-0.006391,0.005186,-0.002911,0.002544,0.001193,0.074355,0.808337,-0.584006,-0.07442367085986028
1763542430.104933,-0.454384,0.039052,0.005279,0.889934,0.000313,-0.003621,0.003129,-0.001815,0.002585,0.000553,0.074305,0.808331,-0.58402,-0.07437356125398512
1763542430.106475,-0.454398,0.039008,0.005323,0.889928,0.000224,-0.005557,0.000881,-0.00174,0.00207,-2.5e-05,0.074266,0.808348,-0.584002,-0.07433442843385095
1763542430.139798,-0.454405,0.038951,0.005342,0.889927,0.000348,-0.004058,-0.001052,-0.00245,0.000804,-0.000126,0.074181,0.808358,-0.583999,-0.0742491916593204
1763542430.166503,-0.454408,0.038887,0.00535,0.889928,0.000382,-0.008031,-0.004699,-0.004385,0.00085,-0.001825,0.074075,0.808365,-0.584002,-0.07414293244254534
1763542430.166755,-0.454411,0.038745,0.005353,0.889933,0.000699,-0.013656,-0.005507,-0.003571,0.000276,-0.000241,0.073826,0.808376,-0.584018,-0.07389326184838764
1763542430.194452,-0.454414,0.038568,0.005352,0.889939,-0.001377,-0.014695,-0.009338,-0.002634,0.002128,0.001421,0.073511,0.808389,-0.584041,-0.07357734918650428
1763542430.223538,-0.454438,0.038405,0.005303,0.889934,-0.002726,-0.007592,-0.011449,-0.001914,0.0027,0.003282,0.073176,0.808433,-0.584022,-0.07324145168251844
1763542430.223809,-0.454457,0.038305,0.005211,0.889929,-0.003479,-0.003533,-0.011718,-0.003127,0.001684,0.002238,0.072914,0.808471,-0.584003,-0.07297871434236791
1763542430.257367,-0.454496,0.038205,0.00513,0.889914,-0.004859,-0.003506,-0.008642,-0.004119,0.000682,0.001469,0.072662,0.808533,-0.583947,-0.0727261111686608
1763542430.287584,-0.454547,0.038119,0.005084,0.889892,-0.003648,-0.004407,-0.004489,-0.003005,-0.000414,0.002734,0.072466,0.808608,-0.583868,-0.07252957186428205
1763542430.287896,-0.45459,0.038073,0.005064,0.889872,-0.00553,-0.000307,-0.00164,-0.002398,0.000242,0.002895,0.072364,0.808669,-0.583796,-0.07242731028370751
1763542430.31801,-0.454669,0.03807,0.005059,0.889832,-0.007041,0.000668,0.000586,-0.003177,0.000197,0.00242,0.072352,0.808773,-0.583653,-0.07241529571367793
1763542430.346846,-0.454757,0.038097,0.005052,0.889786,-0.007978,0.001061,0.000221,-0.002979,0.000748,0.000253,0.072391,0.808888,-0.583489,-0.07245438865595995
1763542430.347641,-0.454846,0.038089,0.005061,0.889741,-0.007059,-0.002846,4.2e-05,-0.002885,0.001011,-0.000781,0.072383,0.809004,-0.583329,-0.0724463739117464
1763542430.377427,-0.454903,0.03803,0.005086,0.889714,-0.00472,-0.004079,-0.000368,-0.001781,0.001489,-0.000728,0.072299,0.809081,-0.583234,-0.07236209466596595
1763542430.40669,-0.454926,0.037989,0.005117,0.889704,-0.00109,-0.003077,-0.001753,-0.00137,0.002432,5e-06,0.072253,0.80911,-0.583198,-0.07231603613252789
1763542430.409368,-0.454913,0.037948,0.005071,0.889712,0.004145,0.002334,-0.003925,-0.002109,0.001822,-0.000893,0.072139,0.809099,-0.583228,-0.07220171136791483
1763542430.444008,-0.454885,0.03792,0.005018,0.889728,0.003538,-0.002109,-0.005581,-0.003624,0.001143,-0.002571,0.072042,0.809068,-0.583283,-0.0721044579924726
1763542430.468851,-0.454861,0.037831,0.005,0.889744,0.001634,-0.007045,-0.002396,-0.002534,-7.9e-05,-0.000738,0.071869,0.809042,-0.583341,-0.07193098329409639
1763542430.471312,-0.454852,0.03773,0.00502,0.889753,0.001418,-0.007707,0.000388,-0.002144,-0.001465,0.000929,0.071707,0.809034,-0.583372,-0.07176856559413115
1763542430.496824,-0.454832,0.037664,0.005056,0.889766,0.00079,-0.002985,0.002284,-0.002481,-0.001941,0.002167,0.071624,0.809007,-0.583419,-0.07168537838842756
1763542430.528137,-0.454831,0.037672,0.005114,0.889766,-0.00012,-0.001633,0.004062,-0.002206,-0.00091,0.001568,0.07169,0.809,-0.58342,-0.07175157366167757
1763542430.530649,-0.454828,0.037676,0.00519,0.889767,-0.001496,-0.001285,0.005089,-0.002353,0.000613,0.001624,0.071766,0.808991,-0.583424,-0.07182773368292267
1763542430.55694,-0.454874,0.037671,0.005269,0.889743,-0.007031,-0.002735,0.004996,-0.002831,0.000852,0.001384,0.071827,0.809045,-0.583341,-0.07188891700799374
1763542430.58473,-0.454956,0.037664,0.005341,0.889701,-0.01013,-0.000617,0.00203,-0.003239,0.002018,0.002304,0.07188,0.809147,-0.583194,-0.07194201143657834
1763542430.585763,-0.455071,0.037674,0.005383,0.889642,-0.011538,-0.000273,-0.000119,-0.003189,0.002676,0.001298,0.071932,0.809295,-0.582982,-0.07199415436369022
1763542430.614623,-0.455182,0.037649,0.005379,0.889586,-0.010964,-0.001882,-0.003402,-0.003222,0.003349,0.001147,0.071881,0.809442,-0.582784,-0.07194302928857572
1763542430.644763,-0.455268,0.0376,0.00537,0.889544,-0.007707,-0.001686,-0.004122,-0.002049,0.00371,0.001945,0.071783,0.809558,-0.582635,-0.0718447727059793
1763542430.645073,-0.455315,0.037553,0.005346,0.889522,-0.003835,-0.000839,-0.002051,-0.002549,0.003894,0.002155,0.071677,0.809624,-0.582555,-0.0717385548871158
1763542430.681184,-0.455338,0.037565,0.005335,0.88951,-0.00111,0.000578,-0.000495,-0.002359,0.002673,0.002257,0.071687,0.809655,-0.582512,-0.0717485255789202
1763542430.706279,-0.455343,0.03758,0.00532,0.889507,-0.000783,0.001667,0.001118,-0.003045,0.002533,0.001705,0.0717,0.809661,-0.582501,-0.07176160351165174
1763542430.706602,-0.455333,0.037619,0.005321,0.88951,0.002231,0.002437,0.000775,-0.0022,0.001771,0.000933,0.07177,0.809646,-0.582513,-0.07183179393286045
1763542430.706878,-0.455323,0.037657,0.005322,0.889513,0.005245,0.003206,0.000433,-0.001355,0.001008,0.000161,0.07184,0.809632,-0.582525,-0.07190192603313428
1763542430.741314,-0.455264,0.037661,0.005336,0.889544,0.00612,0.000628,0.000428,-0.000921,-0.000286,0.000156,0.071861,0.809552,-0.582633,-0.0719230049402787
1763542430.766383,-0.45519,0.037615,0.005329,0.889583,0.004786,-0.002711,-0.001944,-0.00166,0.001589,-0.00051,0.071774,0.809459,-0.582774,-0.07183573442443743
1763542430.76668,-0.455131,0.037549,0.005342,0.889616,0.007621,-0.006082,-0.00363,-0.001359,0.001019,0.000141,0.071671,0.809382,-0.582892,-0.07173253596015569
1763542430.796171,-0.45505,0.037409,0.00537,0.889664,0.005719,-0.015313,0.002525,-0.003646,0.000949,-0.001527,0.07145,0.809281,-0.583061,-0.071510898635548
1763542430.826554,-0.454986,0.037275,0.005473,0.889701,0.011155,-0.012341,0.005754,-0.002994,0.000478,0.001721,0.071307,0.809196,-0.583196,-0.0713675523282846
1763542430.830979,-0.454864,0.037211,0.005592,0.889766,0.013278,-0.010198,0.009498,-0.005206,0.003223,1.4e-05,0.071306,0.809029,-0.583428,-0.07136654010485632
1763542430.856864,-0.454704,0.037161,0.005709,0.889849,0.020985,-0.008968,0.00975,-0.004849,0.006258,0.002416,0.071327,0.808812,-0.583726,-0.07138760315583681
1763542430.886876,-0.454446,0.037101,0.005782,0.889983,0.030245,-0.00732,0.006975,-0.004141,0.01078,0.003525,0.071293,0.808468,-0.584206,-0.07135353732878418
1763542430.887176,-0.454112,0.037061,0.005847,0.890154,0.040078,-0.002716,0.001193,-0.003149,0.011998,0.00537,0.071291,0.808026,-0.584818,-0.071351508384288
1763542430.915909,-0.453681,0.037077,0.005782,0.890373,0.054476,0.00766,-0.00174,-0.003221,0.017523,0.003888,0.071271,0.807463,-0.585597,-0.07133147947347551
1763542430.944788,-0.453128,0.03708,0.005682,0.890656,0.069201,0.003304,-0.010373,-0.00394,0.019643,0.003168,0.0712,0.806741,-0.5866,-0.07126029353784742
1763542430.94504,-0.452417,0.037011,0.00555,0.891021,0.094075,0.001511,-0.010563,-0.002823,0.019473,0.003617,0.070976,0.805815,-0.587898,-0.0710357458836938
1763542430.976529,-0.451457,0.036972,0.005449,0.89151,0.119436,-0.002888,-0.004886,-0.003516,0.019883,0.005698,0.070841,0.804554,-0.589639,-0.07090039553669207
1763542431.004751,-0.450292,0.036941,0.005406,0.892101,0.146104,-0.004328,0.003407,-0.003825,0.023201,0.005065,0.07078,0.803012,-0.591745,-0.07083922466915722
1763542431.011478,-0.448855,0.036877,0.005416,0.892827,0.178423,-0.001018,0.00821,-0.003529,0.026904,0.008029,0.070712,0.801101,-0.594338,-0.07077103855980738
1763542431.041133,-0.447138,0.036883,0.005428,0.893688,0.207078,-0.004062,-0.001718,-0.002398,0.032909,0.009085,0.070777,0.798803,-0.597415,-0.07083621453001557
1763542431.065875,-0.445139,0.036879,0.005302,0.894686,0.24443,0.004726,-0.003222,-0.001854,0.033544,0.00653,0.07071,0.796128,-0.600982,-0.0707690901303751
1763542431.067754,-0.4428,0.036868,0.005124,0.895847,0.280518,-0.000786,-0.011921,-0.004309,0.032762,0.006741,0.070595,0.792985,-0.605138,-0.07065373818733657
1763542431.096072,-0.440124,0.036815,0.00487,0.897169,0.317027,0.003252,-0.0193,-0.004855,0.030601,0.006281,0.070346,0.789373,-0.60987,-0.07040415837872355
1763542431.129235,-0.437151,0.036734,0.004593,0.898626,0.3537,-0.005,-0.018342,-0.004666,0.028504,0.009457,0.070035,0.785333,-0.6151,-0.07009234998741466
1763542431.129521,-0.433815,0.036651,0.004293,0.900246,0.38759,0.004342,-0.018385,-0.00561,0.026016,0.010653,0.069714,0.780766,-0.620922,-0.06977060251389032
1763542431.155343,-0.430223,0.036587,0.003998,0.901972,0.414136,-0.003965,-0.010205,-0.005809,0.021172,0.006632,0.069441,0.775806,-0.627138,-0.06949696173047615
1763542431.185989,-0.426428,0.03652,0.003813,0.903776,0.434251,-0.004234,-0.004565,-0.007327,0.018866,0.010279,0.069264,0.770513,-0.63365,-0.06931949853854794
1763542431.186269,-0.422425,0.03653,0.003652,0.905654,0.447752,0.002102,-0.001047,-0.006541,0.020875,0.009792,0.069252,0.764876,-0.640445,-0.06930744100130343
1763542431.216145,-0.418337,0.036596,0.003413,0.907548,0.464931,0.014481,-0.004882,-0.005563,0.018812,0.015902,0.069281,0.759073,-0.647309,-0.06933652175049608
1763542431.244874,-0.414079,0.036755,0.003082,0.909493,0.478893,0.028881,-0.006579,-0.006292,0.015729,0.016877,0.069409,0.752978,-0.654375,-0.06946484795648757
1763542431.251315,-0.409711,0.037011,0.00271,0.91146,0.488469,0.030675,-0.003093,-0.009319,0.013112,0.011422,0.069689,0.74667,-0.661534,-0.06974553596579536
1763542431.276816,-0.405248,0.03729,0.002402,0.913443,0.495928,0.030443,0.001278,-0.009625,0.009634,0.010291,0.070071,0.740163,-0.668767,-0.0701284498789165
1763542431.306084,-0.400721,0.03761,0.002123,0.915426,0.504956,0.036901,0.00878,-0.00809,0.010984,0.012251,0.070561,0.7335,-0.676017,-0.07061968058848449
1763542431.310311,-0.396107,0.03807,0.001838,0.917413,0.515503,0.047172,0.009055,-0.0083,0.012919,0.008241,0.071308,0.726647,-0.6833,-0.07136858510643798
1763542431.342476,-0.39135,0.03849,0.001505,0.919435,0.527091,0.041903,0.003035,-0.00874,0.011783,0.007839,0.071955,0.719526,-0.690727,-0.0720172735107017
1763542431.369332,-0.386467,0.038875,0.001152,0.921483,0.543175,0.046017,0.002146,-0.00787,0.009435,0.008953,0.072535,0.712155,-0.698264,-0.07259880397013642
1763542431.369574,-0.381458,0.039289,0.000784,0.92355,0.547911,0.046172,0.005251,-0.005954,0.010951,0.007546,0.073169,0.70453,-0.705892,-0.07323445487161112
1763542431.396331,-0.376401,0.039697,0.000423,0.925606,0.552166,0.04987,0.002584,-0.003535,0.013123,0.008108,0.073807,0.696764,-0.713493,-0.07387418225656371
1763542431.42629,-0.371296,0.040172,-2.3e-05,0.927645,0.560296,0.0554,-0.006331,-0.003293,0.010319,0.006586,0.074514,0.688863,-0.721051,-0.07458316043900352
1763542431.430805,-0.366085,0.040656,-0.000524,0.929693,0.570566,0.053108,-0.012456,-0.00369,0.00914,0.002324,0.075211,0.680736,-0.728657,-0.07528211813558049
1763542431.455768,-0.360755,0.041005,-0.001045,0.931758,0.583685,0.045574,-0.011283,-0.006335,0.005641,0.005759,0.075659,0.672359,-0.736349,-0.07573134004938026
1763542431.4843,-0.355293,0.041355,-0.001546,0.933838,0.589556,0.043211,-0.011623,-0.0049,0.006318,0.004198,0.076139,0.6637,-0.744113,-0.0762127958139394
1763542431.490241,-0.349795,0.041684,-0.002097,0.935896,0.59518,0.046828,-0.017266,-0.0013,0.005118,0.00583,0.076558,0.654918,-0.751812,-0.07663298406966172
1763542431.515866,-0.344216,0.0421,-0.002661,0.937942,0.602066,0.055464,-0.018348,-0.001058,0.001775,0.008055,0.077142,0.645934,-0.759486,-0.07721869279125458
1763542431.544593,-0.338597,0.042528,-0.003295,0.939964,0.603636,0.061872,-0.016524,-0.001507,0.000446,0.009122,0.077718,0.636818,-0.767087,-0.07779646165636496
1763542431.551518,-0.33297,0.043058,-0.003928,0.941946,0.600768,0.067924,-0.014824,-7.5e-05,0.000722,0.009049,0.0785,0.627618,-0.774554,-0.07858082736473243
1763542431.580257,-0.32736,0.043649,-0.004563,0.94388,0.599549,0.071133,-0.014524,-0.001843,0.000101,0.005932,0.079411,0.618376,-0.78186,-0.07949469836570734
1763542431.606796,-0.321746,0.044272,-0.005158,0.945776,0.597246,0.076954,-0.0064,-0.001926,-0.002911,0.00606,0.080424,0.609056,-0.789039,-0.08051095975491401
1763542431.611265,-0.316122,0.044922,-0.005704,0.947637,0.59577,0.074087,0.00113,-0.001861,0.000133,0.003611,0.081533,0.599651,-0.796097,-0.08162362998117184
1763542431.641514,-0.310464,0.045577,-0.006155,0.949472,0.602206,0.072242,0.009503,-0.001369,0.001446,0.002482,0.082726,0.590114,-0.80307,-0.08282066764565103
1763542431.666774,-0.30472,0.046191,-0.006565,0.951299,0.610706,0.062563,0.005894,-0.000906,0.004167,0.004353,0.083882,0.580366,-0.810024,-0.08398069096723032
1763542431.670932,-0.298904,0.04676,-0.007033,0.953111,0.617273,0.067069,-0.002632,-0.002045,0.004858,0.007707,0.08493,0.570436,-0.81694,-0.0850323789959823
1763542431.696602,-0.293041,0.047359,-0.007546,0.954896,0.615245,0.069174,-0.001593,-0.002342,0.004385,0.006716,0.086024,0.560363,-0.823768,-0.08613042975327377
1763542431.714154,-0.287179,0.047989,-0.00804,0.95664,0.618104,0.070673,0.000293,-0.001793,0.002748,0.007064,0.087198,0.550226,-0.83045,-0.08730891002279978
1763542431.731132,-0.28127,0.048627,-0.008505,0.958358,0.624986,0.074232,0.005108,-0.002882,0.00144,0.007925,0.08842,0.539941,-0.837046,-0.08853560277969226
1763542431.755845,-0.27528,0.049307,-0.008968,0.960057,0.632005,0.077984,0.006181,-0.00271,0.001308,0.005814,0.089738,0.529453,-0.843579,-0.08985892933415635
1763542431.785974,-0.269204,0.049981,-0.009434,0.961739,0.637723,0.075582,0.005904,-0.003908,0.002021,0.004427,0.091059,0.518751,-0.850062,-0.09118532313205724
1763542431.815866,-0.263042,0.050661,-0.009859,0.963403,0.641973,0.06921,0.012281,-0.00596,-0.000722,0.002355,0.092427,0.50783,-0.856485,-0.09255907675615926
1763542431.816116,-0.256906,0.051238,-0.010252,0.965023,0.640331,0.06701,0.016258,-0.006455,-0.001328,0.006318,0.093623,0.49689,-0.862748,-0.09376035874144674
1763542431.848382,-0.250778,0.051855,-0.010581,0.966597,0.627239,0.07139,0.018826,-0.005474,4.3e-05,0.006927,0.094939,0.4859,-0.868843,-0.09508218411194534
1763542431.84868,-0.244757,0.052524,-0.0109,0.968099,0.622171,0.079537,0.020456,-0.006433,-0.000618,0.007832,0.096361,0.475043,-0.874671,-0.09651072075106482
1763542431.877051,-0.238747,0.053263,-0.011219,0.969555,0.622826,0.079668,0.018455,-0.005801,8.7e-05,0.005146,0.097926,0.464152,-0.880326,-0.09808316753386837
1763542431.904001,-0.232672,0.054006,-0.011541,0.970986,0.626686,0.084309,0.020452,-0.005029,-0.002925,0.006772,0.099508,0.453088,-0.885895,-0.09967292837994884
1763542431.940713,-0.226638,0.054809,-0.011853,0.972363,0.613299,0.081718,0.024352,-0.005732,3e-05,0.004399,0.101216,0.442048,-0.891263,-0.10138957937061352
1763542431.955267,-0.220689,0.055571,-0.012168,0.973684,0.60959,0.080916,0.021061,-0.004737,0.001652,0.003095,0.102846,0.431116,-0.896416,-0.1030281765153716
1763542431.971547,-0.214721,0.056292,-0.012488,0.974972,0.616153,0.077641,0.020382,-0.005164,0.000137,0.004592,0.104404,0.420101,-0.901452,-0.10459456753435023
1763542431.971566,-0.208703,0.057011,-0.012783,0.976232,0.61781,0.080229,0.027495,-0.004397,-0.003814,0.007654,0.105976,0.408943,-0.906386,-0.10617533074796635
1763542431.998276,-0.202665,0.057751,-0.013033,0.977457,0.61112,0.077378,0.027261,-0.005483,-0.000751,0.004131,0.107616,0.397699,-0.911183,-0.10782480200418924
1763542432.026058,-0.196764,0.058489,-0.013266,0.978615,0.597389,0.078157,0.023704,-0.004461,0.002062,0.005627,0.109256,0.386664,-0.915726,-0.10947453683445477
1763542432.032184,-0.191,0.059201,-0.013573,0.979709,0.585071,0.078648,0.016826,-0.003828,-0.000964,0.00559,0.110814,0.375857,-0.920028,-0.11104207110278533
1763542432.055808,-0.185256,0.059943,-0.013943,0.980761,0.583648,0.082585,0.013649,-0.002487,-0.003496,0.004438,0.112414,0.365055,-0.924174,-0.11265213767737194
1763542432.084749,-0.179572,0.060687,-0.014322,0.981767,0.576142,0.081178,0.011984,-0.003079,-0.003889,0.003759,0.114017,0.354333,-0.928142,-0.11426552973132822
1763542432.114838,-0.173986,0.061349,-0.014698,0.982725,0.560254,0.071812,0.012081,-0.004276,-0.001622,0.002067,0.115464,0.343765,-0.93193,-0.11572212085195348
1763542432.116531,-0.168537,0.061938,-0.015071,0.983632,0.549938,0.064098,0.01022,-0.003336,-0.002254,0.002026,0.116769,0.333425,-0.935518,-0.11703593095259268
1763542432.145993,-0.163168,0.062464,-0.015451,0.984498,0.543118,0.057503,0.003367,-0.003731,-0.004246,0.003757,0.117949,0.323207,-0.938949,-0.11822421279532397
1763542432.175976,-0.157827,0.062913,-0.015854,0.985333,0.54174,0.052697,0.006844,-0.004678,-0.00826,0.001415,0.118977,0.313018,-0.942265,-0.11925955268228555
1763542432.176259,-0.152521,0.063262,-0.016149,0.986141,0.53594,0.039985,0.016356,-0.003078,-0.007625,0.001462,0.119845,0.302857,-0.945471,-0.12013371955525928
1763542432.207395,-0.147261,0.063626,-0.016396,0.986913,0.532772,0.049939,0.017432,-7.4e-05,-0.005,0.003516,0.120758,0.292754,-0.948532,-0.12105341342470415
1763542432.241196,-0.142047,0.064069,-0.016649,0.987644,0.526841,0.051967,0.013429,-0.000106,-0.003516,0.005174,0.121825,0.282717,-0.951436,-0.12212832870555168
1763542432.241476,-0.136814,0.064566,-0.016936,0.988345,0.528489,0.061006,0.012445,-0.001639,-0.004685,0.006951,0.122994,0.272625,-0.954226,-0.12330628048704127
1763542432.265826,-0.131619,0.065081,-0.01724,0.989011,0.522371,0.065491,0.013084,-0.003421,-0.003874,0.006067,0.124194,0.26259,-0.956882,-0.12451544971109177
1763542432.294704,-0.126509,0.065598,-0.017519,0.989639,0.51043,0.063295,0.017026,-0.004955,-0.003473,0.004461,0.125403,0.252695,-0.959385,-0.12573401136194406
1763542432.295032,-0.121532,0.066119,-0.017749,0.990224,0.495664,0.060959,0.017951,-0.004117,-0.000321,0.004173,0.126631,0.243036,-0.961716,-0.12697192297141185
1763542432.326179,-0.116606,0.066647,-0.018014,0.990776,0.498177,0.064616,0.012962,-0.004499,-0.001213,0.00578,0.127864,0.233462,-0.963922,-0.1282150441376226
1763542432.357113,-0.11163,0.067214,-0.018292,0.991305,0.505719,0.067926,0.012392,-0.002363,-0.003837,0.006008,0.129176,0.223777,-0.966042,-0.12953799011940859
1763542432.357438,-0.106566,0.06785,-0.018587,0.991814,0.509523,0.073566,0.013733,-0.003897,-0.00374,0.00387,0.130627,0.21391,-0.96808,-0.13100138621717372
1763542432.386134,-0.101567,0.068495,-0.018873,0.992288,0.498474,0.072166,0.015139,-0.005255,-0.001949,0.001324,0.132099,0.204152,-0.969985,-0.13248630069546227
1763542432.414832,-0.096675,0.069129,-0.019143,0.992728,0.485391,0.072587,0.011086,-0.005175,0.000783,0.003371,0.133552,0.194591,-0.97175,-0.1339522390328517
1763542432.416491,-0.091896,0.069767,-0.019472,0.993131,0.481579,0.077852,0.002744,-0.005288,-0.002058,0.004664,0.134996,0.185246,-0.973376,-0.13540936843217363
1763542432.444677,-0.0871,0.070422,-0.019875,0.993509,0.484282,0.074546,-0.003985,-0.007143,-0.006053,0.00106,0.136468,0.175869,-0.974908,-0.13689524229841676
1763542432.474668,-0.082268,0.071011,-0.020268,0.99387,0.487001,0.073172,0.004518,-0.004666,-0.006745,0.005869,0.137818,0.166406,-0.976379,-0.1382580036115472
1763542432.475004,-0.077434,0.071636,-0.020637,0.994206,0.486994,0.076559,0.001139,-0.004096,-0.002436,0.006619,0.139245,0.156928,-0.977745,-0.1396988862446631
1763542432.504906,-0.072567,0.072336,-0.021068,0.994514,0.492431,0.088515,-0.006124,-0.003952,-0.003172,0.006951,0.140821,0.147385,-0.979003,-0.14129064607653719
1763542432.539773,-0.067649,0.073111,-0.021558,0.994793,0.494372,0.092239,-0.006439,-0.005188,-0.00432,0.001963,0.142544,0.137747,-0.980157,-0.14303113254405375
1763542432.54011,-0.062757,0.073854,-0.022014,0.995049,0.491566,0.087212,-0.004739,-0.006132,-0.004359,0.001958,0.144214,0.128144,-0.981214,-0.14471866137056463
1763542432.566429,-0.057907,0.074567,-0.022443,0.99528,0.481229,0.080496,-0.002503,-0.006646,-0.003943,0.001487,0.145831,0.118614,-0.982173,-0.14635291782894005
1763542432.594661,-0.053188,0.075243,-0.02288,0.995483,0.470857,0.078021,-0.00261,-0.006256,-0.003132,0.001702,0.147373,0.109339,-0.983019,-0.1479117301419091
1763542432.594996,-0.048501,0.075899,-0.023328,0.995662,0.471392,0.076521,-0.007015,-0.007126,-0.005203,0.003951,0.148877,0.100123,-0.983774,-0.1494324998405448
1763542432.62507,-0.043761,0.076522,-0.023819,0.995822,0.485351,0.077671,-0.007739,-0.00752,-0.010361,0.003473,0.15032,0.090801,-0.984459,-0.15089190868290125
1763542432.656311,-0.033835,0.077805,-0.02475,0.996087,0.50756,0.076703,-0.002623,-0.008004,-0.008691,0.000613,0.153325,0.071256,-0.985603,-0.15393224551548648
1763542432.656071,-0.038861,0.077184,-0.024293,0.995963,0.500291,0.08154,-0.005955,-0.008162,-0.010684,0.002862,0.151856,0.081157,-0.985065,-0.15244579899211463
1763542432.6861,-0.028788,0.078398,-0.025173,0.996188,0.506631,0.073072,-2e-06,-0.00713,-0.007287,0.002086,0.154748,0.061304,-0.98605,-0.1553723970607291
1763542432.716962,-0.023744,0.078986,-0.025568,0.996265,0.505,0.07635,0.001771,-0.006155,-0.00709,0.002,0.156168,0.05135,-0.986395,-0.15680982320275036
1763542432.717234,-0.01871,0.079578,-0.025934,0.996316,0.502242,0.072766,0.004799,-0.005187,-0.008276,0.003342,0.157599,0.041411,-0.986635,-0.15825871917301412
1763542432.746109,-0.013686,0.080159,-0.026312,0.996341,0.505437,0.071984,0.006079,-0.005724,-0.010409,0.003533,0.159012,0.031491,-0.986774,-0.15968988565157388
1763542432.775999,-0.008625,0.080693,-0.026673,0.996345,0.507937,0.068324,0.008315,-0.005243,-0.013319,0.00314,0.160336,0.021492,-0.986829,-0.16103096515420431
1763542432.776269,-0.003522,0.081196,-0.026994,0.996326,0.51051,0.061885,0.009051,-0.005325,-0.015818,0.002658,0.161606,0.011401,-0.98679,-0.1623177476098919
1763542432.806055,0.001571,0.08164,-0.027301,0.996287,0.509022,0.05605,0.012621,-0.005063,-0.017521,0.002497,0.162759,0.001328,-0.986665,-0.16348629162815995
1763542432.842142,0.011505,0.082248,-0.027725,0.99616,0.478679,0.035461,0.023103,-0.004232,-0.014037,8.8e-05,0.164502,-0.018361,-0.986206,-0.1652530862035692
1763542432.842086,0.006622,0.082007,-0.027553,0.996229,0.500365,0.044629,0.020165,-0.004621,-0.016051,0.000439,0.16376,-0.008675,-0.986462,-0.1645009217309128
1763542432.866825,0.016201,0.082397,-0.027857,0.996078,0.454011,0.027525,0.026076,-0.003699,-0.01369,-0.002378,0.16505,-0.027683,-0.985897,-0.16580864398396744
1763542432.894975,0.020623,0.082439,-0.027956,0.99599,0.429127,0.01551,0.024582,-0.00479,-0.01352,-0.002571,0.16537,-0.036471,-0.985557,-0.1661331673797075
1763542432.896409,0.024803,0.082419,-0.028019,0.995895,0.408553,0.00546,0.029867,-0.004145,-0.014074,-0.001851,0.16555,-0.044783,-0.985184,-0.16631569463218435
1763542432.926093,0.028789,0.082282,-0.028033,0.995799,0.387918,-0.001578,0.033036,-0.004393,-0.013478,0.001163,0.165487,-0.052723,-0.984802,-0.1662517457314825
1763542432.957114,0.03261,0.082175,-0.027998,0.995691,0.37155,0.003307,0.034276,-0.003946,-0.009786,0.004225,0.165467,-0.060337,-0.984368,-0.16623149971436174
1763542432.957342,0.036253,0.082105,-0.027956,0.995572,0.35249,0.009046,0.03565,-0.003677,-0.007984,0.002987,0.165509,-0.067595,-0.983889,-0.16627411742470638
1763542432.988932,0.039691,0.082095,-0.027923,0.995442,0.334754,0.013027,0.030507,-0.004247,-0.007103,0.003091,0.165658,-0.074436,-0.98337,-0.1664252055293551
1763542433.016007,0.042968,0.082142,-0.027875,0.995304,0.317528,0.015463,0.029419,-0.005417,-0.007584,0.003765,0.165907,-0.080952,-0.982813,-0.16667770755331515
1763542433.016281,0.046077,0.082203,-0.027844,0.99516,0.30552,0.020905,0.027015,-0.004525,-0.007319,0.004679,0.166176,-0.087129,-0.982239,-0.1669505256482453
1763542433.046075,0.049052,0.082308,-0.027789,0.995011,0.290898,0.022197,0.02688,-0.004375,-0.005882,0.002727,0.166521,-0.09304,-0.981639,-0.1673002795890109
1763542433.08833,0.051822,0.082469,-0.02775,0.994858,0.275943,0.024222,0.023131,-0.005328,-0.004477,0.001055,0.166965,-0.098535,-0.981027,-0.16775061559188537
1763542433.088627,0.054592,0.082629,-0.027711,0.994698,0.260987,0.026247,0.019382,-0.006277,-0.003075,-0.000648,0.167407,-0.104026,-0.980384,-0.1681990214318272
1763542433.112025,0.057148,0.082755,-0.027694,0.994544,0.244876,0.016957,0.021047,-0.004739,-0.002859,-0.002429,0.167772,-0.109089,-0.979772,-0.1685691109911261
1763542433.141037,0.059552,0.082809,-0.027659,0.9944,0.230259,0.017088,0.023704,-0.002144,-0.003485,-0.000263,0.167985,-0.113855,-0.979193,-0.16878519213257215
1763542433.141315,0.061787,0.082899,-0.027569,0.994259,0.212872,0.018626,0.026451,-0.001588,-0.003844,-0.002045,0.168253,-0.118293,-0.97862,-0.16905718469911613
1763542433.168386,0.063802,0.082997,-0.027454,0.994126,0.187459,0.017427,0.027833,-0.002434,-0.002955,-0.003033,0.168522,-0.122296,-0.978082,-0.16932999905383736
1763542433.193993,0.065551,0.083033,-0.027293,0.994014,0.158252,0.006733,0.030143,-0.004774,-0.001021,-0.004483,0.16865,-0.125785,-0.977617,-0.1694599165109783
1763542433.203407,0.067019,0.08298,-0.027081,0.993926,0.130523,-0.004692,0.032214,-0.005183,-0.000603,-0.002897,0.168581,-0.128729,-0.977246,-0.1693898486870414
1763542433.238949,0.068225,0.082839,-0.026847,0.993862,0.106576,-0.006247,0.034936,-0.004803,-0.001178,-0.000607,0.168325,-0.131164,-0.976966,-0.16913018758054396
1763542433.239248,0.069229,0.082741,-0.026568,0.993808,0.088723,-0.003456,0.036281,-0.005098,-0.001541,0.001197,0.168137,-0.133205,-0.976722,-0.168939501577708
1763542433.261061,0.070067,0.082649,-0.026284,0.993765,0.075512,-0.002753,0.036068,-0.004303,-0.002727,0.001359,0.167951,-0.134915,-0.976519,-0.16875086393993402
1763542433.286657,0.070809,0.082607,-0.025988,0.993724,0.066639,-0.000173,0.033009,-0.003506,-0.002564,0.001746,0.167857,-0.136436,-0.976324,-0.16865548000165895
1763542433.315538,0.071502,0.082577,-0.025701,0.993684,0.063699,0.003648,0.032492,-0.004386,-0.003343,0.000826,0.167786,-0.137857,-0.976137,-0.16858338793507094
1763542433.316914,0.072153,0.082572,-0.025419,0.993645,0.059485,0.002298,0.031192,-0.005156,-0.003788,0.001405,0.167763,-0.139192,-0.975952,-0.16855997160796277
1763542433.346952,0.072791,0.082564,-0.025173,0.993605,0.062596,0.007819,0.025383,-0.004242,-0.004449,0.004034,0.167737,-0.140494,-0.975769,-0.16853374565009901
1763542433.376266,0.07345,0.082613,-0.024971,0.993557,0.063891,0.005546,0.022488,-0.006316,-0.006395,-0.001318,0.16783,-0.141828,-0.97556,-0.16862808322885453
1763542433.380223,0.074114,0.082607,-0.024753,0.993514,0.062303,-0.001355,0.027088,-0.006741,-0.007027,-0.000911,0.167812,-0.143176,-0.975366,-0.16860985284694924
1763542433.406696,0.074724,0.08251,-0.024527,0.993482,0.056462,-0.004026,0.027988,-0.005878,-0.005609,0.001127,0.167611,-0.144427,-0.975217,-0.16840581746220176
1763542433.446318,0.075293,0.082443,-0.024299,0.99345,0.052585,-0.000321,0.028348,-0.003294,-0.005626,0.00288,0.167465,-0.145593,-0.975068,-0.16825783899592442
1763542433.446567,0.07582,0.08242,-0.024037,0.993419,0.04637,0.001329,0.030887,-0.004021,-0.005333,0.001293,0.1674,-0.146679,-0.974917,-0.16819180694928493
1763542433.471275,0.076291,0.082396,-0.023746,0.993391,0.041388,-0.000613,0.034091,-0.00566,-0.005667,-0.000787,0.167326,-0.147661,-0.974781,-0.16811682354816873
1763542433.496309,0.076709,0.082328,-0.023437,0.993372,0.033352,-0.005153,0.036483,-0.005807,-0.003449,-0.00139,0.16716,-0.148542,-0.974676,-0.1679483896419225
1763542433.496585,0.077036,0.082224,-0.023096,0.993363,0.022375,-0.010426,0.036294,-0.005798,-0.002975,-0.002039,0.166916,-0.149252,-0.974609,-0.16770097057120525
1763542433.526131,0.077247,0.082114,-0.022764,0.993364,0.01264,-0.009109,0.03353,-0.004772,-0.002011,-0.002078,0.166655,-0.14973,-0.97458,-0.1674363198915884
1763542433.555969,0.077344,0.082014,-0.022442,0.993372,0.001745,-0.007439,0.030104,-0.00395,-0.000621,-0.001374,0.166413,-0.149982,-0.974583,-0.1671908273836386
1763542433.560031,0.077331,0.081932,-0.022132,0.993387,-0.006631,-0.002909,0.027477,-0.004646,2.7e-05,0.000307,0.166203,-0.150012,-0.974614,-0.16697789734962185
1763542433.586612,0.077236,0.08187,-0.021842,0.993406,-0.014604,-0.002594,0.025535,-0.00477,0.001205,9.3e-05,0.166034,-0.149878,-0.974664,-0.16680642091995346
1763542433.616279,0.07711,0.081816,-0.02156,0.993426,-0.015564,-0.002558,0.023571,-0.005192,-0.000585,0.000589,0.165881,-0.149677,-0.974721,-0.166651259258547
1763542433.620184,0.076986,0.081802,-0.0213,0.993442,-0.012732,-0.001466,0.022219,-0.004962,-0.000328,0.001503,0.165811,-0.149478,-0.974763,-0.16658034959380244
1763542433.646583,0.076895,0.081805,-0.021057,0.993454,-0.006672,0.005738,0.020574,-0.003582,0.001486,0.002006,0.165777,-0.149338,-0.97479,-0.16654591197125962
1763542433.676184,0.076847,0.081857,-0.020825,0.993459,-0.007624,0.00756,0.018847,-0.003512,0.002921,0.00062,0.165843,-0.149278,-0.974788,-0.16661283245276007
1763542433.680075,0.076751,0.081942,-0.020607,0.993464,-0.012236,0.010302,0.01868,-0.003417,0.003114,-0.000352,0.165977,-0.149122,-0.974789,-0.1667487272339889
1763542433.705601,0.076614,0.082018,-0.020397,0.993472,-0.017635,0.006897,0.017745,-0.004441,0.002839,-0.000575,0.16609,-0.148883,-0.974807,-0.1668632004569766
1763542433.741388,0.076439,0.082064,-0.020194,0.993486,-0.020949,0.005121,0.017535,-0.005235,0.000491,-9.5e-05,0.166146,-0.148567,-0.974845,-0.16692009917247597
1763542433.741622,0.07623,0.082062,-0.019975,0.993507,-0.022452,-0.000717,0.020955,-0.005712,-0.002224,-0.000594,0.166104,-0.148191,-0.97491,-0.16687740638799878
1763542433.76564,0.076018,0.082016,-0.019707,0.993532,-0.023546,-0.002494,0.028077,-0.006308,-0.004336,-0.001501,0.165968,-0.14782,-0.974989,-0.1667395712284655
1763542433.794777,0.075799,0.081977,-0.019353,0.993559,-0.023788,-0.001503,0.03579,-0.005705,-0.003689,-0.000886,0.165832,-0.147449,-0.975068,-0.16660171183126343
1763542433.801038,0.075583,0.081929,-0.018941,0.993587,-0.025749,-0.001706,0.04098,-0.00511,-0.002883,-0.001105,0.165671,-0.147093,-0.97515,-0.16643831162638975
1763542433.826559,0.075352,0.081884,-0.018486,0.993617,-0.029044,-0.00178,0.042765,-0.005914,-0.002062,0.000541,0.165509,-0.146714,-0.975234,-0.16627414224531992
1763542433.856193,0.075109,0.081853,-0.018033,0.993647,-0.029861,0.003369,0.043177,-0.005224,-0.000538,0.002622,0.165374,-0.146312,-0.975317,-0.16613730365116236
1763542433.860192,0.074833,0.08187,-0.017573,0.993674,-0.033762,0.007706,0.04061,-0.005503,-0.00049,0.002438,0.165334,-0.145842,-0.975395,-0.16609660995963682
1763542433.886965,0.07452,0.081926,-0.017166,0.9937,-0.033993,0.005934,0.03392,-0.00653,-0.001596,0.001763,0.165377,-0.145288,-0.97547,-0.16614027307487494
1763542433.914399,0.074198,0.081974,-0.01679,0.993727,-0.034329,0.005091,0.029487,-0.005424,-0.001557,0.001207,0.165411,-0.144712,-0.97555,-0.16617472369402625
1763542433.944521,0.073874,0.082006,-0.016461,0.993754,-0.036727,0.007257,0.026206,-0.004944,-0.00154,0.000965,0.16542,-0.144126,-0.975635,-0.16618388554400837
1763542433.944852,0.073495,0.082021,-0.016168,0.993785,-0.041671,0.001991,0.024115,-0.005571,-0.003037,-0.000115,0.165399,-0.143425,-0.975742,-0.16616256900670806
1763542433.974908,0.073079,0.082022,-0.015903,0.99382,-0.04714,-0.001413,0.022196,-0.006892,-0.005673,-0.000328,0.165355,-0.142646,-0.975864,-0.16611789655395634
1763542433.981064,0.072622,0.081965,-0.015624,0.993863,-0.0485,-0.008257,0.023808,-0.008079,-0.008653,-0.004146,0.165194,-0.141792,-0.976015,-0.16595476840685455
1763542434.006882,0.072152,0.081789,-0.01532,0.993916,-0.050743,-0.023999,0.030864,-0.008038,-0.009372,-0.004772,0.164794,-0.14092,-0.976209,-0.16554919224894468
1763542434.042345,0.071662,0.081486,-0.014935,0.993983,-0.052134,-0.027041,0.039289,-0.006252,-0.008702,0.000464,0.164132,-0.140027,-0.976449,-0.16487805307433057
1763542434.04259,0.071144,0.081227,-0.014515,0.994047,-0.054684,-0.018532,0.037396,-0.00452,-0.006883,0.004502,0.163553,-0.139082,-0.976681,-0.1642911513913884
1763542434.069706,0.070608,0.081041,-0.014099,0.994107,-0.057016,-0.011929,0.035051,-0.004845,-0.005632,0.004121,0.163118,-0.138099,-0.976894,-0.16385010252030377
1763542434.096811,0.070032,0.0809,-0.013699,0.994164,-0.06226,-0.012799,0.035612,-0.005841,-0.005355,0.001782,0.162774,-0.137031,-0.977101,-0.16350156395227836
1763542434.124828,0.069422,0.080745,-0.013287,0.994225,-0.067374,-0.015711,0.034876,-0.006559,-0.005324,0.002321,0.162402,-0.135897,-0.977322,-0.16312442695187557
1763542434.125229,0.068777,0.080561,-0.012873,0.994291,-0.070043,-0.01475,0.036792,-0.005523,-0.005657,0.003139,0.161973,-0.134694,-0.977559,-0.1626897834358024
1763542434.156158,0.068085,0.080419,-0.01242,0.994356,-0.077036,-0.010673,0.037596,-0.005002,-0.003397,0.001848,0.16162,-0.133404,-0.977795,-0.16233195640904646
1763542434.186889,0.067324,0.080274,-0.011945,0.994425,-0.08525,-0.012113,0.041953,-0.005048,-0.002863,-0.001339,0.16126,-0.13198,-0.978047,-0.16196727535823338
1763542434.187205,0.066448,0.080091,-0.01144,0.994505,-0.09586,-0.019026,0.044536,-0.005152,-0.003839,-0.002329,0.160822,-0.130333,-0.97834,-0.1615234729482599
1763542434.214522,0.065501,0.07983,-0.010875,0.994595,-0.10238,-0.025112,0.049915,-0.005345,-0.005122,-0.001955,0.160222,-0.128559,-0.978673,-0.16091560742441055
1763542434.244663,0.064507,0.079502,-0.010265,0.994692,-0.106181,-0.029745,0.057133,-0.004526,-0.006587,-0.0015,0.159485,-0.126698,-0.979036,-0.1601690071538587
1763542434.244988,0.063466,0.079107,-0.009577,0.994798,-0.109382,-0.034719,0.066089,-0.002475,-0.007488,0.001484,0.158607,-0.124756,-0.979428,-0.1592796780295209
1763542434.276138,0.062411,0.078753,-0.00878,0.9949,-0.112347,-0.032802,0.076247,-0.00175,-0.008754,-8.6e-05,0.157799,-0.122802,-0.979806,-0.15846127616900538
1763542434.306856,0.061359,0.078318,-0.007895,0.995007,-0.113801,-0.042127,0.086706,-0.001037,-0.009208,-0.001624,0.156823,-0.120869,-0.980203,-0.15747296828418245
1763542434.307162,0.06029,0.077827,-0.006921,0.995118,-0.11633,-0.046274,0.094059,-0.000584,-0.007038,-0.000222,0.155729,-0.118915,-0.980616,-0.15636541125963868
1763542434.341009,0.059202,0.077307,-0.005917,0.99523,-0.118251,-0.044547,0.093657,0.000766,-0.005266,0.002083,0.154577,-0.116924,-0.981038,-0.1551992282088736
1763542434.344167,0.058127,0.076824,-0.004925,0.995337,-0.115078,-0.040058,0.091916,0.002511,-0.003293,0.002178,0.153504,-0.114954,-0.981439,-0.15411329956916905
1763542434.369936,0.057076,0.07638,-0.003985,0.995436,-0.114999,-0.039976,0.085468,0.001177,-0.001541,0.001022,0.152517,-0.113022,-0.981817,-0.15311456833335282
1763542434.396353,0.056003,0.075928,-0.003083,0.995535,-0.116925,-0.045223,0.080054,0.000525,0.000428,-0.000684,0.151523,-0.111038,-0.982197,-0.15210891221478606
1763542434.426805,0.054864,0.075397,-0.002237,0.995641,-0.123253,-0.053337,0.073452,-0.000607,0.001846,-0.002121,0.150383,-0.108912,-0.98261,-0.15095572158962461
1763542434.427147,0.053687,0.074765,-0.001438,0.995754,-0.12609,-0.063253,0.072112,-0.001301,0.000151,-0.001914,0.14905,-0.106703,-0.983056,-0.1496074312720173
1763542434.456147,0.052472,0.074027,-0.000665,0.995875,-0.128056,-0.078865,0.072124,-0.002028,0.00037,-0.002173,0.147513,-0.104414,-0.983533,-0.1480533250174342
1763542434.486256,0.051227,0.073159,8.4e-05,0.996004,-0.130724,-0.08605,0.068713,-0.001251,0.001227,-0.000669,0.145725,-0.102057,-0.984047,-0.14624576279694468
1763542434.486497,0.049955,0.072227,0.00081,0.996136,-0.134623,-0.091857,0.066157,-0.000983,0.00084,-0.002099,0.143815,-0.099641,-0.984576,-0.14431534862931414
1763542434.518541,0.048653,0.071234,0.001494,0.996271,-0.13793,-0.096622,0.065267,-0.001422,0.00199,-0.003488,0.141791,-0.097156,-0.985117,-0.1422704984227622
1763542434.544742,0.047322,0.070183,0.002176,0.996409,-0.138911,-0.102483,0.061285,-0.001721,0.002126,-0.002293,0.139655,-0.094609,-0.98567,-0.1401130107417573
1763542434.548889,0.045981,0.069082,0.002799,0.996547,-0.139105,-0.109723,0.052289,-0.003371,0.000552,-0.001045,0.13743,-0.092031,-0.986227,-0.13786629738973524
1763542434.575913,0.044711,0.067928,0.003353,0.996682,-0.124144,-0.111193,0.051374,-0.003264,-0.00217,0.000965,0.135105,-0.08958,-0.986773,-0.1355195089367089
1763542434.606203,0.04359,0.066798,0.00389,0.996806,-0.111297,-0.104733,0.047537,-0.004077,0.000374,0.004402,0.13283,-0.087421,-0.987276,-0.13322372937523078
1763542434.606449,0.042577,0.065829,0.004328,0.996913,-0.100302,-0.086478,0.034088,-0.003927,0.002536,0.001595,0.130884,-0.08546,-0.987707,-0.13126065381921925
1763542434.642553,0.041622,0.064941,0.004634,0.99701,-0.094348,-0.079691,0.021116,-0.004217,0.003458,0.001021,0.129108,-0.083597,-0.988101,-0.1294693384220844
1763542434.669319,0.040762,0.064191,0.004799,0.997093,-0.08207,-0.069523,0.008022,-0.005064,0.002174,-0.0005,0.127618,-0.081902,-0.988436,-0.12796696782862593
1763542434.669561,0.040006,0.063468,0.004796,0.99717,-0.071597,-0.058584,-0.016524,-0.00399,0.004278,0.003414,0.126194,-0.080395,-0.988743,-0.12653129787246678
1763542434.696038,0.039307,0.062782,0.004502,0.997243,-0.070506,-0.075407,-0.045333,-0.007122,0.011896,0.003048,0.124864,-0.078962,-0.989027,-0.1251907306394957
1763542434.726138,0.038537,0.062072,0.003931,0.99732,-0.074654,-0.061414,-0.068333,-0.004276,0.012609,0.010192,0.123508,-0.077355,-0.989324,-0.12382417843748876
1763542434.726373,0.037714,0.061564,0.003257,0.997385,-0.080119,-0.038696,-0.074866,-0.005582,0.003922,0.008149,0.122561,-0.075631,-0.989575,-0.12286993280203062
1763542434.756074,0.036943,0.0612,0.00259,0.997438,-0.062712,-0.036383,-0.064391,-0.008117,-0.003176,-0.000227,0.121895,-0.074015,-0.989779,-0.12219895343944848
1763542434.786709,0.036348,0.060786,0.002015,0.997487,-0.045257,-0.043335,-0.053834,-0.006575,-0.002427,0.001741,0.12112,-0.072758,-0.989968,-0.12141808596863371
1763542434.787036,0.035897,0.060372,0.001541,0.997529,-0.041154,-0.043125,-0.043179,-0.006532,0.002115,0.000494,0.120335,-0.071803,-0.990133,-0.12062735548509693
1763542434.815993,0.035414,0.059966,0.001142,0.997571,-0.04998,-0.037837,-0.042144,-0.005609,0.006123,0.00247,0.11956,-0.070794,-0.9903,-0.11984666307833067
1763542434.846065,0.034837,0.059641,0.000755,0.997611,-0.065159,-0.029321,-0.038158,-0.004013,0.007756,0.003291,0.118945,-0.069598,-0.990459,-0.1192272219684896
1763542434.846423,0.034056,0.059464,0.000473,0.997649,-0.091903,-0.002331,-0.02455,-0.001807,0.010131,0.005858,0.118617,-0.068009,-0.990608,-0.11889696702036963
1763542434.876305,0.033065,0.05956,0.000383,0.997677,-0.104261,0.012854,-0.002624,-0.004191,0.002517,6.6e-05,0.118818,-0.066021,-0.990719,-0.11909932685635825
1763542434.876577,0.032073,0.059655,0.000294,0.997704,-0.116618,0.028038,0.019301,-0.006574,-0.005096,-0.00573,0.119018,-0.064034,-0.990825,-0.11930080457208653
1763542434.906928,0.030913,0.059902,0.000791,0.997725,-0.107987,0.02362,0.061356,-0.009659,0.003277,0.004766,0.119482,-0.06178,-0.990912,-0.1197681700653469
1763542434.907191,0.029889,0.060064,0.001412,0.997746,-0.099121,0.016463,0.050862,-0.004301,-0.002095,0.001491,0.119772,-0.059814,-0.990998,-0.12006022105409359
1763542434.939317,0.029078,0.060217,0.002168,0.997759,-0.075589,0.004075,0.091896,-0.010757,-0.020808,-0.006951,0.120037,-0.058286,-0.991057,-0.12032714475294895
1763542434.966284,0.02845,0.060025,0.003176,0.997786,-0.06365,-0.020805,0.100171,-0.007835,-0.009374,0.003545,0.119603,-0.057156,-0.991175,-0.1198900285094826
1763542434.96658,0.027791,0.059933,0.004187,0.997807,-0.072696,0.00975,0.094741,-0.004556,-0.000973,0.002841,0.119369,-0.055961,-0.991272,-0.11965426763445293
1763542434.996155,0.027063,0.059887,0.005138,0.997825,-0.088804,-0.014608,0.071116,-0.005011,0.004712,-0.001446,0.119235,-0.054624,-0.991362,-0.1195193871213694
1763542435.027188,0.026269,0.059628,0.005822,0.997858,-0.079438,-0.040178,0.06748,-0.008064,0.002456,-0.006391,0.118695,-0.053119,-0.991509,-0.11897547407521643
1763542435.027424,0.025362,0.059116,0.006483,0.997908,-0.109534,-0.042722,0.050565,-0.009384,0.014584,-0.001587,0.117656,-0.051384,-0.991724,-0.11792917101867073
1763542435.056126,0.02429,0.058856,0.007114,0.997945,-0.106434,-0.019086,0.050787,-0.011214,0.001187,-0.003796,0.117124,-0.049317,-0.991892,-0.11739345549510921
1763542435.085997,0.023375,0.058556,0.007778,0.99798,-0.087603,-0.031329,0.064599,-0.010746,-0.000584,0.002762,0.116511,-0.047566,-0.99205,-0.11677619422863394
1763542435.086282,0.022693,0.058363,0.008452,0.998002,-0.065822,-0.019377,0.061396,-0.001734,0.001644,0.002232,0.11611,-0.046283,-0.992157,-0.11637253472273942
1763542435.116592,0.022062,0.058191,0.009078,0.99802,-0.065195,-0.017541,0.049344,-0.004893,0.01225,0.001574,0.115751,-0.045094,-0.992254,-0.11601106240853885
1763542435.144595,0.021461,0.058048,0.009528,0.998038,-0.048737,-0.011951,0.040626,-0.00877,-0.00416,-0.001653,0.11546,-0.043944,-0.99234,-0.11571804004802028
1763542435.145223,0.020861,0.057934,0.01011,0.998051,-0.068105,-0.002043,0.042758,-0.009981,0.01568,0.004479,0.115221,-0.042812,-0.992417,-0.11547746416600947
1763542435.176177,0.020208,0.057756,0.010623,0.99807,-0.074386,-0.022131,0.052531,-0.014311,0.005329,0.002835,0.11486,-0.041566,-0.992512,-0.11511402981694495
1763542435.206104,0.019589,0.057704,0.011279,0.998078,-0.05413,0.009084,0.06787,-0.001453,-0.005848,0.002528,0.114744,-0.040403,-0.992573,-0.11499730826931695
1763542435.214719,0.019246,0.057609,0.011971,0.998082,-0.043915,-0.028825,0.064446,-0.015043,-0.004759,0.005932,0.114537,-0.039796,-0.992622,-0.11478886915146012
1763542435.239396,0.018911,0.057658,0.012546,0.998078,-0.025342,0.006431,0.051828,-0.002531,-0.000152,-0.001265,0.114619,-0.039197,-0.992636,-0.11487145497790394
1763542435.266506,0.018713,0.057659,0.013126,0.998075,-0.019883,0.017222,0.056225,0.000747,0.000299,0.00614,0.114606,-0.038868,-0.99265,-0.11485841888846524
1763542435.266741,0.018614,0.057862,0.01365,0.998058,-0.014979,0.018288,0.049519,-0.003616,0.001457,-0.001519,0.114991,-0.038735,-0.992611,-0.11524594375186666
1763542435.296036,0.018522,0.058082,0.01417,0.998039,-0.004197,0.028458,0.040488,-0.002383,0.009366,0.00035,0.11541,-0.038618,-0.992567,-0.11566774393424029
1763542435.32591,0.018465,0.058311,0.014557,0.998021,-0.01083,0.020272,0.032432,-0.002274,0.004827,-0.004276,0.115854,-0.038555,-0.992518,-0.11611471024872176
1763542435.32622,0.018348,0.058451,0.014873,0.998011,-0.015754,0.011516,0.023904,-0.003431,0.003347,-0.002596,0.116124,-0.038362,-0.992494,-0.11638653621572803
1763542435.3556,0.018257,0.058462,0.015048,0.998009,-0.007438,-0.000754,0.008479,-0.005063,0.005955,-0.000453,0.116142,-0.0382,-0.992498,-0.11640467533673468
1763542435.384823,0.018193,0.058421,0.015043,0.998013,-0.004536,0.002579,-0.004893,-0.00156,0.00679,0.006045,0.116063,-0.038071,-0.992512,-0.1163251604226775
1763542435.390971,0.018195,0.058502,0.014944,0.99801,0.00306,0.009261,-0.016461,-0.002641,0.005754,0.001423,0.116226,-0.038067,-0.992493,-0.11648928022158826
1763542435.416692,0.018226,0.058577,0.014721,0.998008,0.003862,0.002262,-0.022302,-0.003889,0.006558,-0.003914,0.116385,-0.038103,-0.992473,-0.11664936501815713
1763542435.444717,0.018246,0.058564,0.014498,0.998012,0.001766,-0.004412,-0.014943,-0.003663,0.00677,-0.002121,0.116366,-0.038117,-0.992475,-0.11663019902493871
1763542435.450926,0.018208,0.058584,0.014303,0.998014,-0.003194,-0.004211,-0.018311,-0.001966,0.004158,-0.002648,0.116413,-0.038019,-0.992473,-0.11667754937772036
1763542435.4766,0.018138,0.058557,0.01414,0.998019,-0.005166,-0.004659,-0.006261,-0.001981,-0.001964,0.000668,0.116369,-0.03786,-0.992484,-0.11663327597456102
1763542435.506669,0.018097,0.058583,0.014117,0.998019,-0.002025,0.005274,0.002755,-0.002779,-0.002998,0.00122,0.116423,-0.037776,-0.992481,-0.11668763015916032
1763542435.510154,0.018109,0.058678,0.014183,0.998012,0.00171,0.002605,0.01573,-0.005291,-0.0033,-0.002574,0.116609,-0.03781,-0.992458,-0.11687489046008617
1763542435.541556,0.01815,0.05867,0.014358,0.998009,0.005192,-0.004299,0.022151,-0.00546,-0.002033,0.000454,0.116585,-0.037913,-0.992457,-0.11685071285195563
1763542435.566498,0.018211,0.058615,0.014613,0.998008,0.001215,-0.00297,0.022394,-0.004975,-0.001064,0.000147,0.116465,-0.038062,-0.992465,-0.1167299347298644
1763542435.566734,0.018235,0.0586,0.014843,0.998005,-0.003189,-0.004062,0.018293,-0.00497,0.002166,0.000559,0.116424,-0.038136,-0.992467,-0.1166886503754926
1763542435.596035,0.018193,0.058505,0.015014,0.998008,-0.009763,-0.004954,0.01269,-0.0045,0.000925,3.4e-05,0.11623,-0.038071,-0.992492,-0.11649335143581571
1763542435.626218,0.01808,0.058456,0.015171,0.998011,-0.012568,-0.000751,0.009558,-0.004979,0.001797,-0.001199,0.11613,-0.037861,-0.992512,-0.1163926392909713
1763542435.630152,0.017948,0.05843,0.015294,0.998013,-0.013959,-0.004131,0.005887,-0.005971,0.001002,0.00176,0.116078,-0.037613,-0.992528,-0.11634022863575437
1763542435.656709,0.017798,0.058379,0.015347,0.998018,-0.016066,-0.00528,0.003289,-0.005755,-0.000224,0.002214,0.11598,-0.037317,-0.99255,-0.11624163519525382
1763542435.686162,0.017634,0.058361,0.015404,0.998021,-0.012078,0.000869,-0.000446,-0.005721,-0.000417,0.002285,0.115947,-0.036996,-0.992566,-0.11620839622485614
1763542435.690156,0.017502,0.058359,0.015418,0.998023,-0.015383,0.001761,-0.003941,-0.006431,0.000533,2e-05,0.115947,-0.036735,-0.992576,-0.11620836075927408
1763542435.716729,0.017307,0.058373,0.015387,0.998026,-0.02068,0.001529,-0.002601,-0.008545,-0.001793,-0.001667,0.115982,-0.036342,-0.992586,-0.1162436422867189
1763542435.746136,0.017096,0.058349,0.015394,0.998031,-0.023593,-0.006429,0.000649,-0.007572,-0.000534,-0.001075,0.115943,-0.035922,-0.992606,-0.11620435941065864
1763542435.749407,0.016829,0.058301,0.015433,0.998038,-0.027764,-0.001802,0.001468,-0.003428,0.000401,0.003576,0.115854,-0.035392,-0.992636,-0.1161146896145915
1763542435.788611,0.016565,0.058331,0.015465,0.99804,-0.025506,0.008383,-0.002766,-0.004179,0.002467,0.004515,0.115921,-0.034869,-0.992646,-0.11618222370530833
1763542435.80857,0.016318,0.058437,0.015437,0.998038,-0.021298,0.011464,-0.008747,-0.005343,-0.000489,0.002141,0.116141,-0.034375,-0.992638,-0.11640366341466514
1763542435.808878,0.016107,0.058567,0.015356,0.998035,-0.02054,0.012019,-0.009826,-0.005895,-0.001133,-0.000512,0.11641,-0.03395,-0.992621,-0.11667451398066281
1763542435.841197,0.015884,0.058636,0.015247,0.998036,-0.019416,0.005348,-0.007563,-0.005345,-0.000443,-0.00057,0.116558,-0.033494,-0.992619,-0.11682354277673569
1763542435.859809,0.015707,0.058674,0.015152,0.998039,-0.014027,0.001123,-0.012317,-0.006816,-0.000251,0.000224,0.116642,-0.033131,-0.992621,-0.11690815641152265
1763542435.871288,0.015539,0.058706,0.01506,0.998041,-0.012785,0.00626,-0.010165,-0.004699,-0.000587,-0.001103,0.116714,-0.032785,-0.992624,-0.11698065450034634
1763542435.89656,0.015406,0.058714,0.015047,0.998043,-0.015218,-0.00418,0.001344,-0.005928,-0.001197,-0.002204,0.116734,-0.032518,-0.992631,-0.11700072575982776
1763542435.925551,0.015244,0.058648,0.01509,0.998048,-0.016941,-0.000822,0.006879,-0.004902,0.001431,0.000606,0.116608,-0.032199,-0.992656,-0.1168738836584127
1763542435.930917,0.015045,0.058615,0.015187,0.998052,-0.017982,0.00194,0.007986,-0.002264,0.003345,0.003516,0.116545,-0.031811,-0.992676,-0.11681044047645357
1763542435.955304,0.014839,0.058703,0.015296,0.998048,-0.018332,0.016344,0.005314,-0.000931,0.004575,0.005604,0.116723,-0.031416,-0.992667,-0.11698974128159498
1763542435.98688,0.014641,0.05889,0.015321,0.998039,-0.019462,0.014325,-0.001471,-0.001398,0.00401,8.8e-05,0.117101,-0.031028,-0.992635,-0.11737031459884802
1763542436.011524,0.014464,0.058973,0.015298,0.998038,-0.015314,0.005029,-0.004209,-0.000428,0.0031,-0.001177,0.117272,-0.030676,-0.992626,-0.11754247204059282
1763542436.011811,0.014313,0.058965,0.015237,0.998041,-0.010584,-0.00479,-0.007184,0.00033,0.003096,-0.002638,0.117264,-0.030368,-0.992636,-0.11753446518046505
1763542436.046768,0.014219,0.058901,0.015143,0.998048,-0.002805,-0.009179,-0.010934,2.8e-05,0.002369,-0.002293,0.117141,-0.030166,-0.992657,-0.11741057429950537
