timestamp,quat_x,quat_y,quat_z,quat_w,rot_x,rot_y,rot_z,acc_x,acc_y,acc_z,grav_x,grav_y,grav_z
1760474588.256700,-0.014968,-0.560079,-0.000000,0.828304,0.006437,0.002633,0.002147,1.006480,0.306429,-0.567411,-0.927831,0.024796,-0.372176
1760474588.287743,-0.174330,-0.009489,0.278851,0.944331,0.012457,0.002694,0.004948,0.000606,-0.004167,0.001514,0.079304,0.334542,-0.939038
1760474588.318171,-0.174267,-0.009472,0.278835,0.944347,0.010391,0.002978,0.001524,0.000353,-0.003524,0.001288,0.079294,0.334421,-0.939082
1760474588.318521,-0.174205,-0.009456,0.278819,0.944364,0.008324,0.003263,-0.001899,0.000100,-0.002881,0.001062,0.079284,0.334299,-0.939126
1760474588.318793,-0.174143,-0.009440,0.278803,0.944380,0.006257,0.003547,-0.005323,-0.000153,-0.002239,0.000836,0.079274,0.334178,-0.939170
1760474588.368023,-0.172858,-0.008281,0.278913,0.944595,0.008619,0.010722,-0.003798,-0.001164,-0.001563,-0.000013,0.080780,0.331181,-0.940103
1760474588.368288,-0.172755,-0.008196,0.278872,0.944626,0.010597,0.011978,-0.004736,-0.000922,-0.001185,-0.000355,0.080868,0.330949,-0.940177
1760474588.411740,-0.172645,-0.008202,0.278803,0.944667,0.010412,0.009861,-0.003668,-0.000537,-0.001000,-0.000477,0.080771,0.330758,-0.940253
1760474588.412127,-0.172535,-0.008208,0.278735,0.944707,0.010227,0.007745,-0.002601,-0.000152,-0.000816,-0.000599,0.080675,0.330566,-0.940328
1760474588.455126,-0.172355,-0.008171,0.278651,0.944765,0.008351,0.011524,-0.001857,0.000669,-0.001285,0.001408,0.080614,0.330224,-0.940454
1760474588.455813,-0.172320,-0.008125,0.278624,0.944780,0.008351,0.011524,-0.001857,0.000830,-0.001594,0.001747,0.080672,0.330136,-0.940480
1760474588.486600,-0.172176,-0.008020,0.278545,0.944830,0.003235,0.014318,-0.002483,0.000765,-0.001897,0.000772,0.080763,0.329821,-0.940582
1760474588.486928,-0.172152,-0.007876,0.278496,0.944850,0.004148,0.016556,-0.000875,0.000828,-0.001393,0.002132,0.081004,0.329703,-0.940603
1760474588.516614,-0.172173,-0.007739,0.278454,0.944860,0.005199,0.016593,-0.002785,0.001039,-0.000837,0.001303,0.081259,0.329670,-0.940593
1760474588.547620,-0.172151,-0.007462,0.278340,0.944899,0.008660,0.015997,-0.003527,0.000988,-0.003309,-0.000686,0.081732,0.329485,-0.940616
1760474588.553659,-0.172120,-0.007247,0.278214,0.944944,0.004320,0.016970,-0.006779,0.001368,-0.002378,-0.000017,0.082076,0.329320,-0.940645
1760474588.582599,-0.172133,-0.007106,0.278125,0.944969,0.001002,0.014790,-0.006927,0.001767,-0.001632,-0.000148,0.082320,0.329274,-0.940639
1760474588.582920,-0.172147,-0.006964,0.278036,0.944994,-0.002316,0.012610,-0.007076,0.002166,-0.000887,-0.000280,0.082564,0.329228,-0.940634
1760474588.613101,-0.172161,-0.006844,0.277968,0.945012,-0.006274,0.011963,-0.007340,0.002319,-0.002403,0.000562,0.082776,0.329192,-0.940628
1760474588.649077,-0.172362,-0.006583,0.277862,0.945008,-0.014115,0.012770,-0.006271,0.001457,-0.003002,0.002025,0.083344,0.329424,-0.940496
1760474588.649374,-0.172450,-0.006520,0.277825,0.945004,-0.015722,0.012229,-0.002809,0.001729,-0.002082,0.001937,0.083500,0.329554,-0.940437
1760474588.683092,-0.172705,-0.006334,0.277771,0.944974,-0.019695,0.008187,-0.004856,0.002294,-0.000691,-0.000133,0.083975,0.329923,-0.940265
1760474588.683482,-0.172805,-0.006264,0.277753,0.944961,-0.016754,0.010166,-0.000585,0.002438,-0.000644,0.000807,0.084155,0.330069,-0.940198
1760474588.712896,-0.172864,-0.006181,0.277771,0.944946,-0.014428,0.008617,0.000634,0.003406,-0.001556,0.001241,0.084352,0.330128,-0.940160
1760474588.721143,-0.173016,-0.006051,0.277793,0.944912,-0.015042,0.010593,0.005156,0.004748,0.001168,0.001840,0.084691,0.330332,-0.940058
1760474588.767801,-0.173200,-0.005973,0.277810,0.944875,-0.018537,0.007265,0.002839,0.004541,0.002135,0.001612,0.084946,0.330622,-0.939932
1760474588.768081,-0.173383,-0.005895,0.277826,0.944837,-0.022033,0.003938,0.000521,0.004335,0.003103,0.001385,0.085201,0.330913,-0.939807
1760474588.803673,-0.173777,-0.005853,0.277790,0.944775,-0.031545,-0.000093,-0.005615,0.001564,0.006607,0.000577,0.085487,0.331612,-0.939535
1760474588.804052,-0.173987,-0.005880,0.277741,0.944751,-0.029886,0.001396,-0.008628,0.000636,0.004433,0.002617,0.085537,0.332014,-0.939388
1760474588.833859,-0.174155,-0.005899,0.277683,0.944737,-0.023773,-0.002014,-0.009090,0.000915,0.001402,0.000339,0.085574,0.332338,-0.939270
1760474588.871758,-0.174563,-0.006035,0.277560,0.944697,-0.024523,-0.006761,-0.006895,-0.000012,0.002959,-0.000818,0.085502,0.333169,-0.938982
1760474588.872069,-0.174756,-0.006080,0.277538,0.944667,-0.031658,0.002028,-0.004705,0.001230,0.003765,0.004702,0.085517,0.333548,-0.938847
1760474588.903968,-0.175433,-0.006068,0.277424,0.944575,-0.039251,0.012707,-0.007647,0.000791,0.005095,0.003372,0.085875,0.334787,-0.938373
1760474588.904274,-0.175662,-0.006057,0.277363,0.944551,-0.038451,0.005521,-0.009202,-0.000622,0.006489,0.001728,0.086001,0.335203,-0.938213
1760474588.932661,-0.175879,-0.006105,0.277298,0.944529,-0.036225,0.004941,-0.009833,0.001179,0.006590,0.002724,0.086009,0.335631,-0.938059
1760474588.965205,-0.176518,-0.006179,0.277084,0.944472,-0.026306,0.007702,-0.016906,0.004340,0.006793,0.003484,0.086148,0.336857,-0.937606
1760474588.965504,-0.176736,-0.006214,0.276947,0.944471,-0.025430,0.002401,-0.022157,0.002412,0.007552,0.001501,0.086156,0.337286,-0.937451
1760474588.996238,-0.176930,-0.006286,0.276781,0.944483,-0.024075,0.000250,-0.024762,0.002378,0.006309,0.000404,0.086068,0.337695,-0.937312
1760474589.027555,-0.177359,-0.006491,0.276456,0.944497,-0.023049,-0.007669,-0.015664,0.002743,0.000916,-0.000467,0.085802,0.338619,-0.937003
1760474589.030927,-0.177733,-0.006647,0.276353,0.944455,-0.022068,-0.005610,-0.005859,0.001225,0.000408,0.000630,0.085679,0.339396,-0.936733
1760474589.061388,-0.177969,-0.006714,0.276342,0.944413,-0.020733,-0.004634,-0.001734,0.001643,0.000880,0.001764,0.085680,0.339863,-0.936564
1760474589.061762,-0.178205,-0.006780,0.276331,0.944372,-0.019398,-0.003657,0.002391,0.002060,0.001353,0.002899,0.085681,0.340331,-0.936394
1760474589.097418,-0.178309,-0.006806,0.276365,0.944342,-0.016521,-0.001180,0.005047,0.003023,0.001704,0.002842,0.085703,0.340532,-0.936319
1760474589.126691,-0.178594,-0.006822,0.276486,0.944252,-0.015506,-0.002264,0.002494,0.002328,0.006598,0.002111,0.085874,0.341049,-0.936115
1760474589.131243,-0.178722,-0.007013,0.276467,0.944233,-0.015104,-0.004696,0.000085,0.002337,0.003601,0.003494,0.085577,0.341388,-0.936019
1760474589.160115,-0.178840,-0.007079,0.276465,0.944210,-0.013283,-0.003571,0.001554,0.001771,0.002095,0.002427,0.085518,0.341639,-0.935933
1760474589.160446,-0.178957,-0.007145,0.276464,0.944188,-0.011462,-0.002447,0.003022,0.001205,0.000589,0.001361,0.085458,0.341889,-0.935847
1760474589.215177,-0.179059,-0.007189,0.276472,0.944166,-0.010504,-0.003608,0.001573,0.000749,0.000624,0.001126,0.085435,0.342098,-0.935772
1760474589.215786,-0.179161,-0.007233,0.276480,0.944144,-0.009546,-0.004770,0.000123,0.000294,0.000658,0.000892,0.085412,0.342308,-0.935698
1760474589.248733,-0.179340,-0.007286,0.276502,0.944103,-0.004804,-0.005966,-0.003162,0.001392,0.001921,-0.000310,0.085419,0.342660,-0.935568
1760474589.250672,-0.179348,-0.007402,0.276467,0.944111,-0.003918,-0.008217,-0.002370,0.000382,0.002006,0.001064,0.085191,0.342742,-0.935559
1760474589.279085,-0.179359,-0.007492,0.276473,0.944106,-0.004888,-0.008030,-0.001957,0.000301,0.001097,0.001204,0.085029,0.342811,-0.935548
1760474589.279414,-0.179370,-0.007582,0.276478,0.944102,-0.005857,-0.007843,-0.001543,0.000220,0.000189,0.001345,0.084867,0.342880,-0.935538
1760474589.316538,-0.179400,-0.007624,0.276496,0.944091,-0.007175,-0.006073,0.000682,0.000215,0.000128,0.001354,0.084812,0.342956,-0.935515
1760474589.316911,-0.179430,-0.007665,0.276514,0.944079,-0.008492,-0.004303,0.002908,0.000209,0.000068,0.001363,0.084757,0.343032,-0.935492
1760474589.347887,-0.179577,-0.007724,0.276601,0.944026,-0.008206,-0.003292,0.001955,-0.000599,0.000904,0.000577,0.084760,0.343324,-0.935385
1760474589.449295,-0.179674,-0.007820,0.276657,0.943990,-0.005983,-0.006395,-0.000009,0.001383,0.001839,-0.000259,0.084652,0.343548,-0.935312
1760474589.449600,-0.179634,-0.007863,0.276663,0.943996,-0.003739,-0.005956,0.001101,0.001294,0.001040,0.000238,0.084550,0.343497,-0.935340
1760474589.450293,-0.179552,-0.007950,0.276674,0.944007,0.000749,-0.005076,0.003322,0.001115,-0.000558,0.001231,0.084345,0.343396,-0.935396
1760474589.449858,-0.179593,-0.007907,0.276668,0.944001,-0.001495,-0.005516,0.002211,0.001204,0.000241,0.000735,0.084448,0.343447,-0.935368
1760474589.450595,-0.179512,-0.007994,0.276680,0.944013,0.002993,-0.004636,0.004432,0.001026,-0.001357,0.001728,0.084243,0.343346,-0.935423
1760474589.480381,-0.179415,-0.008070,0.276762,0.944006,-0.000154,-0.007337,0.004587,0.000157,-0.001102,0.000031,0.084074,0.343205,-0.935490
1760474589.480728,-0.179424,-0.008104,0.276813,0.943989,-0.003799,-0.008554,0.005207,-0.000741,-0.000434,0.000135,0.084033,0.343236,-0.935482
1760474589.510873,-0.179430,-0.008177,0.276863,0.943973,-0.006830,-0.007880,0.005639,-0.000312,-0.000183,0.000057,0.083917,0.343282,-0.935476
1760474589.542678,-0.179527,-0.008347,0.276980,0.943919,-0.011510,-0.008051,0.003723,-0.001041,0.000460,0.000914,0.083693,0.343541,-0.935401
1760474589.543043,-0.179587,-0.008377,0.277030,0.943892,-0.012908,-0.007529,0.004863,-0.001118,0.000929,0.001378,0.083687,0.343664,-0.935356
1760474589.571352,-0.179658,-0.008452,0.277068,0.943867,-0.013523,-0.006729,0.004286,-0.001589,0.000443,0.001159,0.083599,0.343830,-0.935303
1760474589.602571,-0.179818,-0.008609,0.277142,0.943813,-0.009976,-0.004045,0.003848,-0.002277,-0.001489,0.001302,0.083419,0.344202,-0.935182
1760474589.602884,-0.179890,-0.008608,0.277203,0.943782,-0.008149,0.000433,0.007065,-0.001529,-0.001241,0.002105,0.083484,0.344326,-0.935131
1760474589.633630,-0.179944,-0.008621,0.277243,0.943760,-0.008828,0.000856,0.007772,-0.002675,-0.001230,0.001307,0.083504,0.344427,-0.935092
1760474589.664987,-0.180103,-0.008630,0.277373,0.943691,-0.009863,0.003827,0.010831,-0.001252,0.001073,0.001502,0.083624,0.344710,-0.934977
1760474589.665394,-0.180175,-0.008629,0.277435,0.943659,-0.009838,0.001894,0.007184,-0.002690,0.001080,0.001255,0.083689,0.344835,-0.934925
1760474589.696259,-0.180376,-0.008631,0.277550,0.943587,-0.011647,0.004842,0.006182,-0.001979,0.000546,-0.000402,0.083838,0.345192,-0.934780
1760474589.725290,-0.180451,-0.008614,0.277578,0.943564,-0.009948,0.006004,0.006830,-0.001168,0.000323,-0.000237,0.083922,0.345317,-0.934726
1760474589.725997,-0.180526,-0.008597,0.277606,0.943542,-0.008249,0.007166,0.007477,-0.000358,0.000099,-0.000073,0.084007,0.345442,-0.934673
1760474589.762951,-0.180647,-0.008504,0.277658,0.943504,-0.003426,0.008094,0.004696,-0.000665,0.000838,0.002214,0.084270,0.345605,-0.934589
1760474589.762953,-0.180679,-0.008459,0.277668,0.943496,-0.003505,0.011992,0.005268,0.000290,0.000370,0.003599,0.084376,0.345637,-0.934567
1760474589.794328,-0.180853,-0.008286,0.277615,0.943479,-0.009967,0.013946,-0.004960,0.001328,0.002245,0.001417,0.084780,0.345863,-0.934447
1760474589.827835,-0.180957,-0.008252,0.277545,0.943480,-0.011824,0.011142,-0.007727,0.000745,0.002483,0.000275,0.084877,0.346040,-0.934373
1760474589.828214,-0.181061,-0.008218,0.277476,0.943481,-0.013681,0.008338,-0.010494,0.000162,0.002722,-0.000867,0.084973,0.346216,-0.934299
1760474589.859941,-0.181338,-0.008262,0.277246,0.943495,-0.016006,0.006385,-0.013364,0.000495,-0.002165,0.001599,0.084960,0.346764,-0.934097
1760474589.860304,-0.181441,-0.008225,0.277177,0.943496,-0.006674,0.005715,-0.007509,0.000086,-0.004662,0.002240,0.085062,0.346937,-0.934023
1760474589.889235,-0.181472,-0.008221,0.277133,0.943503,-0.006204,0.001020,-0.004016,-0.001295,-0.004478,-0.000930,0.085072,0.346995,-0.934001
1760474589.920182,-0.181633,-0.008153,0.277145,0.943469,-0.011224,0.017276,0.009136,0.000285,0.000018,0.005618,0.085294,0.347249,-0.933886
1760474589.920485,-0.181767,-0.008032,0.277166,0.943438,-0.017025,0.023381,0.003933,0.000431,0.002581,0.003056,0.085604,0.347424,-0.933793
1760474589.958968,-0.182038,-0.007844,0.277081,0.943412,-0.016635,0.014344,-0.004233,0.000374,0.004981,-0.000304,0.086078,0.347821,-0.933601
1760474589.959515,-0.182127,-0.007817,0.277042,0.943407,-0.016774,0.008258,-0.009718,0.001540,0.007529,0.000635,0.086164,0.347970,-0.933538
1760474589.999146,-0.182374,-0.007830,0.276846,0.943416,-0.014276,0.010243,-0.015516,0.002659,0.005675,0.004410,0.086205,0.348446,-0.933356
1760474589.999472,-0.182474,-0.007823,0.276740,0.943428,-0.010391,0.009869,-0.014491,0.002516,0.003960,0.003716,0.086234,0.348632,-0.933284
1760474590.034870,-0.182649,-0.007785,0.276568,0.943445,-0.004921,0.003749,-0.004606,0.001686,0.002916,-0.000404,0.086339,0.348944,-0.933158
1760474590.064185,-0.182698,-0.007782,0.276571,0.943435,-0.002727,0.000988,0.000897,0.001362,0.001819,-0.000300,0.086374,0.349032,-0.933122
1760474590.064487,-0.182748,-0.007779,0.276575,0.943424,-0.000532,-0.001774,0.006399,0.001038,0.000722,-0.000195,0.086409,0.349120,-0.933086
1760474590.097115,-0.182818,-0.007749,0.276764,0.943355,0.000744,0.000291,0.009180,0.002772,0.003635,0.002916,0.086576,0.349214,-0.933035
1760474590.097202,-0.182838,-0.007752,0.276823,0.943334,-0.001330,0.002305,0.008532,0.002856,0.005916,0.004089,0.086603,0.349247,-0.933020
1760474590.133798,-0.182886,-0.007670,0.276930,0.943294,-0.000683,0.004134,0.004095,0.002342,0.004838,0.003890,0.086823,0.349279,-0.932988
1760474590.165157,-0.182906,-0.007620,0.276950,0.943285,-0.000210,0.006093,0.005658,0.002878,0.003942,0.003153,0.086936,0.349285,-0.932975
1760474590.165986,-0.182925,-0.007570,0.276971,0.943275,0.000263,0.008053,0.007220,0.003413,0.003046,0.002417,0.087048,0.349291,-0.932962
1760474590.195641,-0.182912,-0.007510,0.277033,0.943260,0.007692,-0.003261,0.002739,0.000852,-0.000192,-0.001500,0.087178,0.349228,-0.932974
1760474590.210499,-0.182911,-0.007531,0.277105,0.943239,0.002585,0.000144,0.007707,0.001646,-0.001356,0.000882,0.087164,0.349232,-0.932974
1760474590.238914,-0.182935,-0.007518,0.277183,0.943211,0.000992,0.000630,0.008719,0.002261,-0.000255,0.000889,0.087230,0.349261,-0.932957
1760474590.239253,-0.182959,-0.007506,0.277261,0.943184,-0.000602,0.001115,0.009731,0.002876,0.000847,0.000896,0.087296,0.349290,-0.932940
1760474590.271348,-0.182926,-0.007419,0.277450,0.943135,0.003856,-0.003857,0.008658,0.002419,0.000807,0.000323,0.087513,0.349165,-0.932966
1760474590.300336,-0.182871,-0.007430,0.277505,0.943130,0.004111,-0.004085,0.007053,0.002758,0.000918,0.001206,0.087480,0.349065,-0.933006
1760474590.300723,-0.182815,-0.007441,0.277560,0.943124,0.004365,-0.004313,0.005448,0.003096,0.001030,0.002088,0.087448,0.348965,-0.933047
1760474590.332428,-0.182777,-0.007528,0.277572,0.943128,-0.003107,-0.004048,-0.002119,0.002058,0.002893,0.002338,0.087268,0.348943,-0.933072
1760474590.362591,-0.182826,-0.007551,0.277561,0.943121,-0.006300,-0.002533,-0.001704,0.001510,0.002066,0.001549,0.087248,0.349045,-0.933035
1760474590.362859,-0.182875,-0.007574,0.277550,0.943115,-0.009493,-0.001017,-0.001290,0.000963,0.001239,0.000760,0.087228,0.349148,-0.932999
1760474590.392871,-0.183016,-0.007615,0.277595,0.943074,-0.005728,-0.000207,0.004842,0.000680,0.000099,0.000590,0.087245,0.349423,-0.932894
1760474590.430299,-0.183038,-0.007610,0.277631,0.943059,-0.002520,-0.000314,0.004446,0.000860,0.001290,0.000763,0.087280,0.349456,-0.932879
1760474590.430774,-0.183059,-0.007605,0.277668,0.943044,0.000689,-0.000422,0.004050,0.001040,0.002480,0.000937,0.087315,0.349490,-0.932863
1760474590.479208,-0.182979,-0.007640,0.277717,0.943045,0.008158,-0.008925,-0.000514,0.000927,0.003490,0.000677,0.087223,0.349358,-0.932921
1760474590.479478,-0.182849,-0.007680,0.277723,0.943068,0.012174,-0.007586,-0.000022,0.001269,0.001768,0.001885,0.087077,0.349144,-0.933014
1760474590.479917,-0.182720,-0.007721,0.277729,0.943091,0.016191,-0.006246,0.000470,0.001611,0.000046,0.003093,0.086931,0.348931,-0.933108
1760474590.510248,-0.182466,-0.007770,0.277791,0.943121,0.011624,-0.008561,0.003482,0.000927,0.000703,0.000201,0.086719,0.348493,-0.933291
1760474590.540110,-0.182393,-0.007791,0.277834,0.943122,0.010363,-0.009954,0.004091,0.000922,0.000521,0.000038,0.086655,0.348368,-0.933344
1760474590.540505,-0.182320,-0.007811,0.277878,0.943124,0.009102,-0.011347,0.004700,0.000916,0.000339,-0.000125,0.086592,0.348242,-0.933397
1760474590.571370,-0.182144,-0.007905,0.277991,0.943124,0.007217,-0.005607,0.006864,-0.000116,0.000686,0.000681,0.086358,0.347963,-0.933522
1760474590.601498,-0.182065,-0.007911,0.278047,0.943122,0.010608,-0.004799,0.006615,-0.000115,0.000688,0.000682,0.086323,0.347818,-0.933580
1760474590.601808,-0.181985,-0.007917,0.278103,0.943121,0.013998,-0.003992,0.006365,-0.000114,0.000689,0.000682,0.086288,0.347672,-0.933637
1760474590.632721,-0.181744,-0.007852,0.278167,0.943149,0.015556,-0.001970,0.000739,0.000725,0.000969,0.000540,0.086299,0.347192,-0.933815
1760474590.638716,-0.181496,-0.007904,0.278127,0.943208,0.012340,-0.013530,-0.007132,0.001235,0.001143,-0.002043,0.086047,0.346774,-0.933994
1760474590.683932,-0.181414,-0.007956,0.278104,0.943231,0.013122,-0.013804,-0.006517,0.001267,-0.000991,-0.001186,0.085894,0.346655,-0.934052
1760474590.684416,-0.181332,-0.008008,0.278080,0.943253,0.013904,-0.014079,-0.005901,0.001299,-0.003125,-0.000329,0.085742,0.346537,-0.934110
1760474590.715144,-0.181089,-0.008127,0.278157,0.943276,0.012245,-0.009397,0.009074,0.000150,-0.005774,0.000265,0.085410,0.346154,-0.934282
1760474590.718769,-0.180904,-0.008114,0.278378,0.943246,0.011168,-0.005537,0.017176,-0.001076,-0.004884,0.001659,0.085412,0.345791,-0.934416
1760474590.763946,-0.180833,-0.008094,0.278458,0.943236,0.010395,-0.004356,0.015291,-0.000440,-0.003381,0.000960,0.085440,0.345645,-0.934467
1760474590.764288,-0.180763,-0.008073,0.278538,0.943227,0.009621,-0.003175,0.013406,0.000196,-0.001878,0.000262,0.085469,0.345499,-0.934519
1760474590.794986,-0.180581,-0.008084,0.278680,0.943219,0.005356,-0.002395,0.002259,0.000202,-0.000387,0.000425,0.085400,0.345161,-0.934650
1760474590.798629,-0.180499,-0.008106,0.278661,0.943241,0.000008,-0.001727,-0.005878,0.000600,-0.001153,0.001265,0.085305,0.345026,-0.934709
1760474590.827540,-0.180506,-0.008094,0.278609,0.943255,-0.001237,0.001760,-0.004731,0.000801,-0.000221,0.000356,0.085313,0.345037,-0.934704
1760474590.857717,-0.180518,-0.008080,0.278556,0.943268,-0.002979,0.002953,-0.006248,0.000303,0.000554,0.000845,0.085326,0.345056,-0.934696
1760474590.858035,-0.180530,-0.008066,0.278504,0.943281,-0.004721,0.004145,-0.007765,-0.000196,0.001328,0.001334,0.085340,0.345074,-0.934688
1760474590.889027,-0.180552,-0.008169,0.278356,0.943320,0.000127,-0.004555,-0.008186,-0.000512,0.000983,-0.001078,0.085104,0.345184,-0.934668
1760474590.918913,-0.180524,-0.008219,0.278314,0.943337,0.003186,-0.004792,-0.007985,-0.001159,-0.000463,0.000932,0.084978,0.345165,-0.934687
1760474590.919350,-0.180496,-0.008270,0.278272,0.943354,0.006244,-0.005029,-0.007785,-0.001807,-0.001910,0.002941,0.084851,0.345145,-0.934706
1760474590.952670,-0.180213,-0.008313,0.278261,0.943411,0.017023,-0.009624,0.001359,-0.002706,-0.003461,-0.001177,0.084607,0.344657,-0.934908
1760474590.958528,-0.180053,-0.008267,0.278323,0.943424,0.003319,0.010110,0.009426,0.000475,0.001212,0.007268,0.084628,0.344334,-0.935025
1760474590.986685,-0.180058,-0.008188,0.278340,0.943419,0.000742,0.008109,0.002067,-0.000255,0.004132,0.003252,0.084785,0.344298,-0.935024
1760474591.016522,-0.180069,-0.008157,0.278305,0.943427,0.000544,0.004848,-0.002525,-0.000298,0.003101,0.002650,0.084837,0.344305,-0.935017
1760474591.016888,-0.180081,-0.008126,0.278270,0.943436,0.000346,0.001587,-0.007118,-0.000341,0.002069,0.002049,0.084889,0.344312,-0.935010
1760474591.080028,-0.179927,-0.008074,0.278058,0.943528,0.009512,0.002710,-0.012326,0.002509,-0.000381,0.001740,0.084825,0.344022,-0.935122
1760474591.109177,-0.179883,-0.008087,0.277981,0.943559,0.006427,-0.000339,-0.008710,0.002073,-0.000616,0.001025,0.084747,0.343957,-0.935153
1760474591.109482,-0.179839,-0.008101,0.277905,0.943589,0.003342,-0.003387,-0.005093,0.001636,-0.000851,0.000309,0.084669,0.343892,-0.935184
1760474591.139308,-0.179823,-0.008125,0.277910,0.943591,-0.000844,-0.004706,0.001051,0.001787,-0.001281,0.001268,0.084616,0.343875,-0.935195
1760474591.139999,-0.179836,-0.008138,0.277970,0.943570,-0.004304,-0.001394,0.007827,0.002335,-0.000843,0.001967,0.084621,0.343901,-0.935185
1760474591.170230,-0.179894,-0.008136,0.278063,0.943532,-0.008017,-0.001773,0.008353,0.002936,0.001688,0.001635,0.084691,0.343996,-0.935144
1760474591.174977,-0.179983,-0.008133,0.278156,0.943488,-0.007608,-0.000406,0.007338,0.003075,0.001297,0.002019,0.084779,0.344148,-0.935080
1760474591.207770,-0.180055,-0.008100,0.278238,0.943450,-0.006860,0.002119,0.006755,0.002659,0.002338,0.001748,0.084912,0.344253,-0.935029
1760474591.237604,-0.180104,-0.008106,0.278268,0.943432,-0.004641,-0.005292,0.001446,0.001080,0.000460,0.000240,0.084939,0.344343,-0.934994
1760474591.238794,-0.180140,-0.008169,0.278278,0.943421,-0.004431,-0.001983,0.000085,0.001938,0.000681,0.002445,0.084845,0.344442,-0.934966
1760474591.269200,-0.180177,-0.008134,0.278306,0.943407,-0.001825,0.001929,0.004299,0.001975,-0.001150,0.001669,0.084941,0.344488,-0.934940
1760474591.277435,-0.180196,-0.008099,0.278353,0.943389,0.000853,0.002137,0.005687,0.001955,-0.000477,-0.000004,0.085036,0.344498,-0.934928
1760474591.333851,-0.180150,-0.008102,0.278419,0.943379,0.004123,-0.003141,0.006406,0.002305,-0.000204,-0.000448,0.085028,0.344411,-0.934960
1760474591.334212,-0.180105,-0.008105,0.278485,0.943368,0.007393,-0.008419,0.007125,0.002655,0.000069,-0.000893,0.085021,0.344324,-0.934993
1760474591.335687,-0.179979,-0.008129,0.278564,0.943368,0.012789,-0.011740,0.005924,0.001959,-0.000571,0.000443,0.084934,0.344101,-0.935083
1760474591.364146,-0.179823,-0.008160,0.278649,0.943373,0.013033,-0.011669,0.005687,0.001704,-0.000805,0.000930,0.084819,0.343828,-0.935194
1760474591.394998,-0.179686,-0.008207,0.278708,0.943381,0.009090,-0.007382,0.006007,0.001160,-0.001042,0.002082,0.084676,0.343598,-0.935292
1760474591.396840,-0.179600,-0.008218,0.278782,0.943375,0.006962,-0.003262,0.007004,0.000105,-0.001411,0.000839,0.084634,0.343443,-0.935352
1760474591.432314,-0.179549,-0.008223,0.278847,0.943366,0.002702,0.000810,0.007768,0.000455,-0.001302,0.001177,0.084620,0.343346,-0.935389
1760474591.433646,-0.179556,-0.008184,0.278933,0.943340,-0.003215,0.002677,0.006875,0.000964,-0.000661,0.000753,0.084728,0.343330,-0.935385
1760474591.464020,-0.179601,-0.008173,0.278986,0.943315,-0.007087,-0.001065,0.003402,0.002052,0.000819,0.000402,0.084794,0.343400,-0.935354
1760474591.541906,-0.179659,-0.008195,0.278991,0.943303,-0.007152,-0.001457,0.002787,0.002064,0.000161,0.001213,0.084786,0.343517,-0.935311
1760474591.542250,-0.179716,-0.008217,0.278996,0.943290,-0.007217,-0.001850,0.002173,0.002075,-0.000496,0.002025,0.084779,0.343634,-0.935269
1760474591.542825,-0.179852,-0.008255,0.279013,0.943259,-0.006392,-0.000137,0.002958,0.001737,-0.001010,0.001752,0.084789,0.343900,-0.935170
1760474591.542585,-0.179774,-0.008239,0.279002,0.943277,-0.007282,-0.002242,0.001559,0.002087,-0.001154,0.002836,0.084772,0.343751,-0.935227
1760474591.572732,-0.179938,-0.008290,0.279066,0.943226,-0.008102,-0.001073,0.004755,0.000653,-0.000796,0.000126,0.084790,0.344071,-0.935107
1760474591.573928,-0.180041,-0.008339,0.279119,0.943190,-0.010053,-0.000870,0.006479,0.000828,-0.000057,-0.000063,0.084776,0.344282,-0.935031
1760474591.606832,-0.180148,-0.008353,0.279198,0.943146,-0.013163,-0.001626,0.007468,0.001349,0.001321,0.000690,0.084838,0.344477,-0.934954
1760474591.635631,-0.180295,-0.008383,0.279271,0.943097,-0.014465,-0.001966,0.005947,0.000747,0.002499,0.001966,0.084890,0.344754,-0.934847
1760474591.635878,-0.180434,-0.008436,0.279316,0.943056,-0.013489,-0.002598,0.004313,0.000474,0.003350,0.002844,0.084884,0.345031,-0.934745
1760474591.665170,-0.180547,-0.008476,0.279353,0.943023,-0.010025,0.000240,0.003152,-0.000083,0.002474,0.002300,0.084886,0.345255,-0.934662
1760474591.695244,-0.180640,-0.008460,0.279403,0.942991,-0.005681,0.001222,0.005161,-0.000182,0.001722,0.001658,0.084988,0.345411,-0.934595
1760474591.696175,-0.180686,-0.008482,0.279444,0.942970,-0.003552,-0.001225,0.004851,0.001126,0.001431,0.000771,0.084986,0.345503,-0.934561
1760474591.726423,-0.180730,-0.008485,0.279496,0.942946,-0.001041,-0.001377,0.008316,0.000822,0.001606,0.001075,0.085024,0.345580,-0.934529
1760474591.731255,-0.180750,-0.008483,0.279593,0.942913,-0.001988,-0.000984,0.008655,0.001126,0.003311,0.002485,0.085076,0.345607,-0.934515
1760474591.765430,-0.180771,-0.008471,0.279677,0.942884,-0.000839,-0.001401,0.007586,0.001458,0.002386,0.001484,0.085140,0.345630,-0.934500
1760474591.771350,-0.180787,-0.008504,0.279756,0.942858,-0.000626,-0.002591,0.004389,0.000756,0.002861,0.002250,0.085117,0.345670,-0.934488
1760474591.800227,-0.180784,-0.008521,0.279808,0.942843,0.001858,-0.001112,0.003957,0.000222,0.000841,0.000662,0.085102,0.345671,-0.934489
1760474591.830183,-0.180760,-0.008527,0.279866,0.942830,0.004051,-0.001219,0.002641,-0.000097,0.001222,0.001161,0.085098,0.345625,-0.934506
1760474591.831430,-0.180719,-0.008475,0.279940,0.942816,0.004368,0.000714,0.004202,-0.000109,0.000842,0.000820,0.085201,0.345514,-0.934538
1760474591.861489,-0.180690,-0.008453,0.279977,0.942811,0.002387,0.001627,0.001948,0.000298,0.002431,0.002076,0.085240,0.345447,-0.934559
1760474591.891791,-0.180696,-0.008413,0.280001,0.942803,0.000342,0.002439,0.002511,0.000564,0.002934,0.003416,0.085327,0.345432,-0.934557
1760474591.892517,-0.180702,-0.008353,0.280008,0.942801,-0.000150,0.004808,-0.001496,0.001975,0.002471,0.001596,0.085446,0.345409,-0.934554
1760474591.922676,-0.180708,-0.008287,0.280010,0.942799,-0.000041,0.001315,-0.000409,0.002533,0.001341,0.000097,0.085573,0.345384,-0.934552
1760474591.964095,-0.180694,-0.008327,0.279953,0.942818,0.001055,-0.001957,-0.004410,0.001977,0.001252,0.001433,0.085469,0.345386,-0.934560
1760474591.964396,-0.180681,-0.008367,0.279895,0.942838,0.002151,-0.005229,-0.008412,0.001421,0.001163,0.002769,0.085366,0.345389,-0.934569
1760474591.970172,-0.180606,-0.008395,0.279826,0.942872,0.010282,-0.004568,-0.005605,0.000988,-0.003784,0.000837,0.085247,0.345276,-0.934622
1760474591.998945,-0.180475,-0.008412,0.279814,0.942901,0.009799,-0.008513,-0.001144,0.000425,-0.002001,-0.000795,0.085135,0.345048,-0.934716
1760474592.029233,-0.180374,-0.008388,0.279872,0.942903,0.006932,0.005804,0.004881,0.001894,-0.001006,0.004757,0.085145,0.344846,-0.934790
1760474592.030071,-0.180358,-0.008281,0.279887,0.942903,0.005086,0.010203,0.001325,0.002118,0.001929,0.001359,0.085343,0.344755,-0.934805
1760474592.060351,-0.180326,-0.008208,0.279849,0.942921,0.004443,0.003598,-0.006529,0.002503,0.001685,0.000499,0.085448,0.344661,-0.934830
1760474592.100658,-0.180280,-0.008222,0.279752,0.942958,0.002369,-0.004211,-0.013201,0.002340,0.003194,0.001838,0.085361,0.344593,-0.934863
1760474592.100988,-0.180223,-0.008285,0.279597,0.943015,0.004575,-0.001860,-0.018646,0.004769,0.001603,0.003482,0.085154,0.344539,-0.934902
1760474592.131717,-0.180143,-0.008285,0.279429,0.943080,0.010126,-0.000744,-0.017523,0.002835,0.000946,0.002664,0.085047,0.344409,-0.934960
1760474592.132008,-0.180014,-0.008264,0.279320,0.943137,0.011833,-0.003722,-0.011767,0.001161,-0.001857,-0.000444,0.084976,0.344173,-0.935053
1760474592.161609,-0.179893,-0.008269,0.279254,0.943179,0.008770,-0.004442,-0.002318,0.000776,-0.002501,-0.001160,0.084874,0.343961,-0.935140
1760474592.191417,-0.179799,-0.008284,0.279273,0.943192,0.005135,-0.007862,0.004792,0.001937,-0.001097,-0.000500,0.084800,0.343797,-0.935207
1760474592.192557,-0.179744,-0.008296,0.279355,0.943177,0.004150,-0.007541,0.007439,0.001732,-0.001511,0.000302,0.084776,0.343697,-0.935246
1760474592.222798,-0.179708,-0.008324,0.279466,0.943151,0.002559,-0.003343,0.008020,0.001507,-0.000516,0.001552,0.084743,0.343637,-0.935271
1760474592.252878,-0.179674,-0.008331,0.279538,0.943136,0.001376,-0.001571,0.004906,0.003030,0.001951,0.000911,0.084737,0.343573,-0.935295
1760474592.253681,-0.179674,-0.008304,0.279599,0.943119,0.000099,0.000777,0.002086,0.002240,0.000938,0.001023,0.084811,0.343551,-0.935297
1760474592.284291,-0.179707,-0.008269,0.279610,0.943109,0.001666,-0.000460,-0.000926,0.000323,-0.001604,0.000872,0.084899,0.343590,-0.935274
1760474592.288690,-0.179662,-0.008283,0.279631,0.943112,0.002590,-0.005199,0.003106,0.000137,-0.004387,-0.002454,0.084854,0.343516,-0.935306
1760474592.320452,-0.179652,-0.008266,0.279714,0.943089,-0.001047,0.003199,0.009679,0.001426,-0.003907,0.001736,0.084911,0.343479,-0.935314
1760474592.350345,-0.179709,-0.008236,0.279806,0.943051,-0.003758,0.005321,0.010083,0.001984,-0.003117,0.000748,0.085033,0.343559,-0.935273
1760474592.352331,-0.179767,-0.008141,0.279918,0.943008,-0.004079,0.004589,0.009041,0.000982,-0.002146,0.000692,0.085285,0.343601,-0.935235
1760474592.381897,-0.179794,-0.008111,0.280001,0.942978,-0.001193,0.000645,0.008589,0.000533,-0.001458,0.000121,0.085388,0.343626,-0.935216
1760474592.412552,-0.179816,-0.008093,0.280080,0.942951,0.000676,-0.000805,0.004863,0.000989,-0.002364,0.001147,0.085464,0.343648,-0.935202
1760474592.413627,-0.179801,-0.008081,0.280111,0.942944,0.000113,-0.000135,0.000814,0.000435,-0.000913,0.000759,0.085488,0.343612,-0.935213
1760474592.443699,-0.179814,-0.008040,0.280132,0.942936,-0.001704,0.000621,0.001536,0.000437,-0.001245,0.000122,0.085580,0.343611,-0.935205
1760474592.446002,-0.179861,-0.008020,0.280150,0.942922,-0.005081,-0.000284,0.002179,0.000725,-0.003041,-0.001707,0.085652,0.343682,-0.935172
1760474592.475421,-0.179914,-0.008029,0.280216,0.942892,-0.004485,0.004874,0.008952,0.000851,-0.002685,-0.000264,0.085690,0.343779,-0.935133
1760474592.505987,-0.179991,-0.007945,0.280307,0.942851,-0.004200,0.004494,0.008831,0.001456,-0.001196,0.000988,0.085923,0.343863,-0.935081
1760474592.508041,-0.180046,-0.007897,0.280418,0.942808,-0.003962,0.003256,0.007643,0.001873,-0.000238,-0.000710,0.086086,0.343925,-0.935043
1760474592.587940,-0.180102,-0.007875,0.280428,0.942794,-0.003900,0.003211,0.004015,0.002028,-0.000144,0.000066,0.086163,0.344015,-0.935002
1760474592.588290,-0.180159,-0.007853,0.280437,0.942781,-0.003839,0.003167,0.000386,0.002184,-0.000050,0.000843,0.086240,0.344105,-0.934962
1760474592.588639,-0.180216,-0.007831,0.280447,0.942767,-0.003777,0.003122,-0.003243,0.002339,0.000044,0.001619,0.086317,0.344195,-0.934922
1760474592.589003,-0.180279,-0.007804,0.280428,0.942761,-0.007649,0.000538,0.000699,0.000854,-0.001085,0.001393,0.086396,0.344296,-0.934877
1760474592.619162,-0.180400,-0.007780,0.280438,0.942735,-0.010143,0.002114,0.003869,0.001193,-0.000406,0.000627,0.086513,0.344502,-0.934791
1760474592.626109,-0.180519,-0.007765,0.280485,0.942699,-0.011487,0.000655,0.005729,0.001233,-0.000326,0.000537,0.086625,0.344706,-0.934705
1760474592.657369,-0.180629,-0.007762,0.280573,0.942651,-0.012046,0.002953,0.008378,0.000709,-0.001145,0.001274,0.086726,0.344895,-0.934626
1760474592.688018,-0.180769,-0.007786,0.280663,0.942598,-0.011320,0.000844,0.008658,0.001082,0.000220,0.001214,0.086792,0.345154,-0.934524
1760474592.688189,-0.180860,-0.007777,0.280774,0.942547,-0.010455,-0.001741,0.008684,0.002050,0.000012,0.000450,0.086901,0.345306,-0.934458
1760474592.717793,-0.180950,-0.007817,0.280852,0.942506,-0.007631,0.000253,0.006880,0.001849,0.000557,-0.000243,0.086906,0.345484,-0.934392
1760474592.770378,-0.181037,-0.007819,0.280917,0.942470,-0.009562,0.000358,0.006440,0.001610,-0.000192,-0.000202,0.086974,0.345638,-0.934329
1760474592.770735,-0.181125,-0.007821,0.280981,0.942434,-0.011493,0.000462,0.006000,0.001372,-0.000941,-0.000161,0.087043,0.345792,-0.934265
1760474592.771216,-0.181252,-0.007828,0.281053,0.942388,-0.011222,-0.002086,0.003433,0.000505,-0.001283,-0.000013,0.087129,0.346021,-0.934173
1760474592.802242,-0.181345,-0.007870,0.281126,0.942348,-0.010421,-0.002018,0.008337,0.001809,-0.002890,-0.000787,0.087129,0.346205,-0.934104
1760474592.804425,-0.181464,-0.007889,0.281235,0.942293,-0.010188,-0.000591,0.012510,0.002307,-0.004228,-0.000840,0.087200,0.346422,-0.934017
1760474592.832903,-0.181575,-0.007917,0.281384,0.942227,-0.008736,-0.004156,0.014048,0.001779,-0.005185,-0.000052,0.087265,0.346625,-0.933936
1760474592.863654,-0.181625,-0.007972,0.281556,0.942165,-0.006594,-0.009209,0.016721,0.002382,-0.007796,-0.001310,0.087255,0.346731,-0.933897
1760474592.863950,-0.181662,-0.008038,0.281768,0.942094,-0.002479,-0.012309,0.023078,0.001916,-0.012273,-0.001078,0.087229,0.346815,-0.933868
1760474592.894108,-0.181583,-0.008092,0.282025,0.942032,0.012859,-0.018620,0.029421,0.002700,-0.017810,-0.000925,0.087176,0.346677,-0.933925
1760474592.925313,-0.181203,-0.008149,0.282394,0.941994,0.052852,-0.031133,0.035070,0.002889,-0.026430,-0.004597,0.086989,0.345987,-0.934198
1760474592.926349,-0.180167,-0.008075,0.282954,0.942025,0.140526,-0.036830,0.065965,0.003053,-0.038725,-0.003446,0.086745,0.344014,-0.934949
1760474592.957741,-0.178389,-0.007869,0.283712,0.942137,0.205594,-0.053181,0.079824,0.001445,-0.040254,-0.009302,0.086395,0.340599,-0.936231
1760474592.962459,-0.176005,-0.007675,0.284719,0.942284,0.246141,-0.074909,0.099999,0.001161,-0.056231,-0.005791,0.085759,0.336063,-0.937927
1760474592.992526,-0.173446,-0.007593,0.285837,0.942420,0.237445,-0.088322,0.106434,-0.000101,-0.061903,0.006567,0.084844,0.331258,-0.939718
1760474593.038124,-0.171014,-0.007643,0.287024,0.942504,0.211205,-0.098559,0.103992,-0.000303,-0.072899,0.002286,0.083763,0.326750,-0.941392
1760474593.066609,-0.168638,-0.007812,0.288373,0.942518,0.214071,-0.107164,0.128632,-0.000477,-0.077354,0.001840,0.082535,0.322394,-0.943001
1760474593.066878,-0.166266,-0.008036,0.289920,0.942463,0.202809,-0.120116,0.154597,-0.002252,-0.073148,0.001203,0.081261,0.318058,-0.944582
1760474593.100590,-0.164069,-0.008333,0.291726,0.942288,0.167053,-0.127027,0.175691,-0.000239,-0.060500,0.001332,0.080022,0.314063,-0.946024
1760474593.101395,-0.162215,-0.008845,0.293706,0.941990,0.125131,-0.141498,0.190400,0.000507,-0.052471,0.000276,0.078623,0.310805,-0.947216
1760474593.133154,-0.160678,-0.009610,0.295803,0.941589,0.092535,-0.158555,0.195694,0.000591,-0.051214,0.005289,0.076961,0.308271,-0.948180
1760474593.142293,-0.159323,-0.010599,0.297978,0.941123,0.075989,-0.175323,0.203811,-0.000689,-0.056266,0.013970,0.074999,0.306202,-0.949008
1760474593.173211,-0.158107,-0.011667,0.300359,0.940559,0.050882,-0.174278,0.232922,-0.000296,-0.055045,0.028291,0.073031,0.304427,-0.949732
1760474593.210419,-0.157388,-0.012772,0.302880,0.939856,-0.017662,-0.157281,0.245579,-0.000059,-0.036054,0.036879,0.071332,0.303581,-0.950132
1760474593.211148,-0.157526,-0.013970,0.305384,0.939005,-0.110486,-0.143992,0.235296,-0.000784,-0.014285,0.028983,0.069976,0.304368,-0.949981
1760474593.244003,-0.158521,-0.015394,0.307815,0.938021,-0.204024,-0.148463,0.228875,-0.001652,-0.001629,0.013519,0.068711,0.306870,-0.949268
1760474593.245079,-0.160319,-0.017198,0.310220,0.936891,-0.284559,-0.160163,0.235328,-0.003774,0.002390,0.007883,0.067243,0.311074,-0.948004
1760474593.276091,-0.162751,-0.019338,0.312745,0.935590,-0.342832,-0.179183,0.257455,-0.004723,0.001298,0.006052,0.065615,0.316632,-0.946276
1760474593.280865,-0.165647,-0.021813,0.315539,0.934088,-0.397712,-0.199606,0.286702,-0.002550,0.009663,0.009105,0.063785,0.323223,-0.944171
1760474593.309716,-0.169150,-0.024342,0.318613,0.932353,-0.475445,-0.169851,0.313965,0.011807,0.039169,0.009828,0.062395,0.330927,-0.941591
1760474593.339956,-0.173520,-0.026970,0.321671,0.930425,-0.562683,-0.160922,0.306080,0.015169,0.067821,-0.007382,0.061446,0.340245,-0.938327
1760474593.341157,-0.178555,-0.029886,0.324516,0.928394,-0.620301,-0.166731,0.271234,0.012280,0.082588,-0.016743,0.060396,0.350935,-0.934450
1760474593.371479,-0.183812,-0.033029,0.326954,0.926403,-0.613939,-0.172972,0.229733,0.009545,0.075910,-0.013560,0.059000,0.362166,-0.930245
1760474593.403675,-0.188765,-0.036210,0.328951,0.924580,-0.554327,-0.170191,0.181093,0.005936,0.059553,-0.005825,0.057230,0.372880,-0.926113
1760474593.404971,-0.193014,-0.039042,0.330580,0.923005,-0.457563,-0.149009,0.142280,0.004723,0.043089,0.003017,0.055540,0.382118,-0.922443
1760474593.435139,-0.196423,-0.041417,0.331815,0.921738,-0.361049,-0.122734,0.102691,0.002270,0.028140,0.008149,0.054001,0.389587,-0.919405
1760474593.438951,-0.199126,-0.043321,0.332691,0.920754,-0.288119,-0.091697,0.068492,0.000906,0.014448,0.015799,0.052720,0.395518,-0.916944
1760474593.471088,-0.201404,-0.044746,0.333232,0.919995,-0.246826,-0.051140,0.042640,-0.001757,0.000341,0.025333,0.051897,0.400403,-0.914868
1760474593.500460,-0.203567,-0.045782,0.333508,0.919368,-0.240941,-0.013108,0.031798,-0.003804,-0.009979,0.027368,0.051601,0.404843,-0.912929
1760474593.501561,-0.206026,-0.046529,0.333636,0.918736,-0.290662,0.024175,0.025490,-0.002983,-0.002574,0.015587,0.051980,0.409615,-0.910776
1760474593.558631,-0.209427,-0.047346,0.333355,0.918027,-0.334217,0.035902,0.003205,-0.001439,0.008564,0.004796,0.052698,0.416086,-0.907797
1760474593.558929,-0.212826,-0.048162,0.333070,0.917306,-0.377773,0.047629,-0.019080,0.000109,0.019724,-0.006042,0.053413,0.422535,-0.904771
1760474593.560601,-0.216458,-0.048966,0.332584,0.916589,-0.379791,0.063633,-0.026210,0.004646,0.028051,-0.008985,0.054217,0.429377,-0.901496
1760474593.618002,-0.219866,-0.049588,0.331994,0.915958,-0.347923,0.059848,-0.029340,0.006792,0.035419,-0.012688,0.055148,0.435703,-0.898400
1760474593.618377,-0.223272,-0.050209,0.331400,0.915316,-0.316055,0.056062,-0.032469,0.008945,0.042808,-0.016436,0.056071,0.442007,-0.895257
1760474593.618888,-0.226192,-0.050760,0.330862,0.914763,-0.269430,0.046492,-0.029856,0.010124,0.041699,-0.015190,0.056810,0.447414,-0.892521
1760474593.656472,-0.228556,-0.051245,0.330439,0.914301,-0.212922,0.032971,-0.014918,0.009551,0.031859,-0.008518,0.057342,0.451804,-0.890272
1760474593.660887,-0.230358,-0.051524,0.330237,0.913906,-0.149131,0.034217,0.006598,0.010547,0.021376,0.000046,0.057969,0.455081,-0.888561
1760474593.689072,-0.231659,-0.051581,0.330185,0.913593,-0.101976,0.037042,0.015360,0.009253,0.016608,0.003683,0.058731,0.457346,-0.887347
1760474593.719134,-0.232616,-0.051476,0.330170,0.913361,-0.071247,0.035063,0.009861,0.006794,0.010183,0.003002,0.059573,0.458916,-0.886480
1760474593.727521,-0.233346,-0.051372,0.330107,0.913203,-0.056464,0.025575,-0.001077,0.003046,0.004425,0.002070,0.060232,0.460101,-0.885821
1760474593.767696,-0.233925,-0.051334,0.329991,0.913099,-0.044913,0.021525,-0.003404,0.003020,-0.004189,0.002527,0.060639,0.461073,-0.885288
1760474593.768887,-0.234437,-0.051293,0.329874,0.913012,-0.050190,0.020543,-0.006882,0.003666,-0.005174,0.004894,0.061006,0.461928,-0.884817
1760474593.800076,-0.235129,-0.051274,0.329717,0.912892,-0.079119,0.025485,-0.013406,0.004361,-0.002941,0.006516,0.061438,0.463107,-0.884170
1760474593.801959,-0.236083,-0.051330,0.329466,0.912733,-0.103237,0.032065,-0.012977,0.004918,-0.005693,0.008566,0.061862,0.464784,-0.883260
1760474593.831221,-0.237254,-0.051385,0.329196,0.912524,-0.128813,0.042399,-0.010002,0.006277,0.001546,0.007624,0.062426,0.466831,-0.882141
1760474593.861365,-0.238758,-0.051484,0.328886,0.912238,-0.170485,0.044936,-0.015327,0.007258,0.015343,0.002146,0.063116,0.469474,-0.880688
1760474593.890741,-0.240670,-0.051864,0.328477,0.911861,-0.183256,0.033721,-0.018467,0.006043,0.017968,-0.003159,0.063524,0.472987,-0.878776
1760474593.890989,-0.242580,-0.052243,0.328067,0.911481,-0.196026,0.022506,-0.021608,0.004830,0.020601,-0.008479,0.063929,0.476493,-0.876851
1760474593.897974,-0.244373,-0.052745,0.327738,0.911092,-0.173017,0.012689,-0.011321,0.004350,0.021266,-0.007778,0.064069,0.479865,-0.875000
1760474593.926496,-0.245850,-0.053147,0.327556,0.910736,-0.136565,0.006435,-0.005316,0.001900,0.025098,-0.006493,0.064253,0.482627,-0.873466
1760474593.959265,-0.246966,-0.053468,0.327454,0.910452,-0.101006,0.008153,0.002910,0.000510,0.025238,-0.003759,0.064380,0.484718,-0.872298
1760474593.959594,-0.247805,-0.053632,0.327412,0.910230,-0.071971,0.014576,0.007914,-0.001706,0.023434,0.002293,0.064633,0.486238,-0.871433
1760474593.989222,-0.248471,-0.053650,0.327396,0.910053,-0.058481,0.021251,0.006115,-0.003986,0.021371,0.005020,0.065049,0.487372,-0.870768
1760474593.995121,-0.249065,-0.053593,0.327356,0.909908,-0.050530,0.026533,0.003190,-0.004436,0.016313,0.007941,0.065537,0.488341,-0.870189
1760474594.024248,-0.249652,-0.053433,0.327292,0.909779,-0.046423,0.037751,0.003115,-0.003986,0.010981,0.010022,0.066193,0.489233,-0.869637
1760474594.054404,-0.250280,-0.053209,0.327182,0.909660,-0.049667,0.042357,-0.002965,-0.003471,0.009862,0.007352,0.066970,0.490158,-0.869057
1760474594.058753,-0.250901,-0.053002,0.326993,0.909568,-0.051436,0.042247,-0.012013,-0.002907,0.009985,0.005789,0.067669,0.491086,-0.868479
1760474594.087976,-0.251516,-0.052858,0.326714,0.909507,-0.048216,0.039952,-0.019475,-0.001745,0.006785,0.004337,0.068197,0.492051,-0.867891
1760474594.121180,-0.252072,-0.052705,0.326413,0.909470,-0.042141,0.037977,-0.018773,-0.000028,0.005067,0.002741,0.068693,0.492912,-0.867363
1760474594.121809,-0.252623,-0.052601,0.326102,0.909435,-0.044207,0.035747,-0.024654,0.000159,0.008735,0.000253,0.069088,0.493796,-0.866829
1760474594.149166,-0.253134,-0.052555,0.325741,0.909425,-0.040947,0.028130,-0.031535,0.001243,0.007326,-0.000285,0.069323,0.494651,-0.866323
1760474594.153869,-0.253567,-0.052535,0.325374,0.909437,-0.033070,0.020177,-0.027967,0.001276,0.003492,-0.001573,0.069454,0.495393,-0.865888
1760474594.184189,-0.253926,-0.052564,0.325081,0.909440,-0.030651,0.020604,-0.023202,0.003039,0.004889,0.002334,0.069486,0.496037,-0.865517
1760474594.214968,-0.254283,-0.052497,0.324802,0.909444,-0.024978,0.026918,-0.019811,0.003333,0.004835,0.004332,0.069697,0.496615,-0.865168
1760474594.216258,-0.254598,-0.052323,0.324529,0.909463,-0.019588,0.032214,-0.024480,0.005412,0.005933,0.003398,0.070078,0.497056,-0.864884
1760474594.252128,-0.254873,-0.052152,0.324197,0.909514,-0.017417,0.031477,-0.030537,0.005678,0.005711,0.002717,0.070393,0.497437,-0.864640
1760474594.255646,-0.255136,-0.052018,0.323818,0.909583,-0.017491,0.029064,-0.034306,0.004685,0.004802,0.002231,0.070606,0.497823,-0.864400
1760474594.283844,-0.255418,-0.051948,0.323395,0.909658,-0.024018,0.025091,-0.040787,0.006427,0.003778,0.001317,0.070692,0.498286,-0.864126
1760474594.323580,-0.255816,-0.051989,0.322905,0.909719,-0.033346,0.024437,-0.044862,0.007855,0.001617,0.001051,0.070618,0.499016,-0.863711
1760474594.323763,-0.256213,-0.052030,0.322414,0.909778,-0.042673,0.023784,-0.048937,0.009285,-0.000544,0.000785,0.070542,0.499745,-0.863295
1760474594.352996,-0.256667,-0.052132,0.321897,0.909828,-0.050198,0.022146,-0.046055,0.009215,-0.002449,-0.000975,0.070379,0.500608,-0.862808
1760474594.356728,-0.257182,-0.052215,0.321421,0.909846,-0.054033,0.014544,-0.041775,0.007655,-0.003162,-0.002726,0.070311,0.501558,-0.862262
1760474594.387221,-0.257712,-0.052391,0.320999,0.909835,-0.055658,0.007020,-0.035418,0.006870,-0.004917,-0.003686,0.070116,0.502585,-0.861680
1760474594.415460,-0.258227,-0.052616,0.320675,0.909790,-0.055179,0.000917,-0.025847,0.006408,-0.005595,-0.001235,0.069875,0.503610,-0.861101
1760474594.417376,-0.258669,-0.052825,0.320425,0.909740,-0.040829,-0.001260,-0.020106,0.006372,-0.008666,-0.001188,0.069653,0.504497,-0.860599
1760474594.446645,-0.258974,-0.052982,0.320283,0.909694,-0.032992,-0.004891,-0.014739,0.005455,-0.005680,-0.002623,0.069494,0.505113,-0.860251
1760474594.454456,-0.259240,-0.053152,0.320126,0.909664,-0.030253,-0.004156,-0.016749,0.006805,-0.002179,-0.000699,0.069277,0.505673,-0.859939
1760474594.484590,-0.259485,-0.053316,0.319950,0.909647,-0.027752,-0.001433,-0.019660,0.006584,-0.001710,-0.001314,0.069048,0.506195,-0.859650
1760474594.531603,-0.259703,-0.053472,0.319720,0.909656,-0.027804,-0.002244,-0.021217,0.005774,-0.000407,-0.001098,0.068783,0.506672,-0.859391
1760474594.531870,-0.259920,-0.053628,0.319489,0.909666,-0.027857,-0.003055,-0.022774,0.004964,0.000896,-0.000882,0.068517,0.507148,-0.859131
1760474594.532182,-0.260167,-0.053829,0.319249,0.909668,-0.029396,-0.003827,-0.024919,0.005395,0.001063,-0.001379,0.068184,0.507701,-0.858831
1760474594.562428,-0.260417,-0.054050,0.319033,0.909659,-0.027826,-0.009333,-0.023766,0.005457,0.001586,-0.001076,0.067829,0.508268,-0.858524
1760474594.592508,-0.260608,-0.054294,0.318853,0.909653,-0.022426,-0.009476,-0.016578,0.005736,-0.000153,0.000989,0.067414,0.508749,-0.858271
1760474594.594435,-0.260766,-0.054458,0.318726,0.909642,-0.014666,-0.008510,-0.010468,0.005081,0.001047,0.000712,0.067151,0.509123,-0.858070
1760474594.623181,-0.260843,-0.054565,0.318658,0.909638,-0.006913,-0.004431,-0.003757,0.005427,0.002111,0.000988,0.066971,0.509321,-0.857967
1760474594.681953,-0.260805,-0.054692,0.318674,0.909635,-0.003555,-0.007362,-0.003064,0.004778,0.002655,0.001315,0.066723,0.509332,-0.857980
1760474594.682276,-0.260766,-0.054820,0.318690,0.909633,-0.000198,-0.010292,-0.002372,0.004129,0.003200,0.001641,0.066475,0.509343,-0.857992
1760474594.682591,-0.260727,-0.054947,0.318706,0.909631,0.003159,-0.013223,-0.001679,0.003481,0.003744,0.001968,0.066227,0.509355,-0.858005
1760474594.704831,-0.260627,-0.055052,0.318672,0.909665,0.009616,-0.007162,-0.007572,0.001919,0.003963,0.002765,0.065952,0.509253,-0.858086
1760474594.732647,-0.260486,-0.055069,0.318581,0.909737,0.013752,-0.001524,-0.014803,0.001372,0.004516,0.003485,0.065775,0.509035,-0.858229
1760474594.734791,-0.260343,-0.055093,0.318417,0.909834,0.016192,0.003651,-0.020277,0.002860,0.002642,0.005036,0.065544,0.508822,-0.858373
1760474594.774252,-0.260224,-0.055034,0.318216,0.909941,0.012227,0.004641,-0.024123,0.001839,0.001612,0.004737,0.065459,0.508602,-0.858510
1760474594.775043,-0.260149,-0.055020,0.317989,0.910043,0.005898,0.007370,-0.024555,0.002171,-0.000563,0.004649,0.065309,0.508484,-0.858591
1760474594.805228,-0.260128,-0.055040,0.317740,0.910135,-0.000543,0.004498,-0.023783,0.001305,-0.001500,0.002771,0.065118,0.508480,-0.858608
1760474594.811520,-0.260187,-0.055072,0.317496,0.910201,-0.006655,0.004361,-0.020913,0.001214,-0.001714,0.003231,0.064964,0.508616,-0.858539
1760474594.840461,-0.260301,-0.055097,0.317297,0.910237,-0.013476,0.007905,-0.016455,0.001424,-0.002225,0.003854,0.064883,0.508835,-0.858416
1760474594.880061,-0.260494,-0.055120,0.317122,0.910241,-0.020386,0.007189,-0.012330,0.000452,-0.000044,0.002532,0.064873,0.509184,-0.858209
1760474594.881982,-0.260775,-0.055143,0.316967,0.910213,-0.033088,0.006592,-0.012618,0.000625,0.001226,0.001560,0.064930,0.509678,-0.857911
1760474594.910335,-0.261101,-0.055231,0.316817,0.910166,-0.031462,0.005952,-0.011372,0.001064,0.001155,0.002811,0.064903,0.510287,-0.857552
1760474594.911594,-0.261386,-0.055301,0.316670,0.910131,-0.029988,0.006136,-0.013301,0.001817,0.002973,0.001392,0.064884,0.510816,-0.857238
1760474594.942685,-0.261669,-0.055359,0.316493,0.910108,-0.021559,0.007787,-0.018248,0.002097,0.002930,0.000516,0.064868,0.511336,-0.856929
1760474594.975350,-0.261875,-0.055401,0.316282,0.910120,-0.017211,0.005667,-0.020769,0.001670,0.004935,0.001317,0.064810,0.511720,-0.856704
1760474594.977336,-0.262048,-0.055474,0.316047,0.910147,-0.015460,0.003159,-0.021405,0.001892,0.004451,0.001517,0.064659,0.512069,-0.856507
1760474595.006785,-0.262185,-0.055537,0.315807,0.910187,-0.014131,0.003943,-0.022831,0.001716,0.003706,-0.001017,0.064501,0.512353,-0.856349
1760474595.007524,-0.262282,-0.055628,0.315567,0.910237,-0.009543,0.002225,-0.020540,0.001802,0.001348,-0.000479,0.064267,0.512587,-0.856227
1760474595.037740,-0.262342,-0.055684,0.315403,0.910273,-0.003692,0.001160,-0.012118,0.000670,-0.000160,0.000409,0.064112,0.512731,-0.856152
1760474595.071613,-0.262371,-0.055683,0.315303,0.910299,-0.000262,0.001588,-0.006177,0.000228,0.000546,0.001669,0.064076,0.512787,-0.856121
1760474595.072499,-0.262400,-0.055640,0.315263,0.910307,-0.001412,0.004414,-0.001392,0.000537,0.000282,0.003543,0.064152,0.512812,-0.856101
1760474595.102867,-0.262464,-0.055598,0.315207,0.910311,-0.004605,0.007481,-0.003239,-0.000058,0.001135,0.001849,0.064237,0.512898,-0.856043
1760474595.108803,-0.262576,-0.055519,0.315114,0.910316,-0.007909,0.008446,-0.008739,0.000019,0.002535,0.000284,0.064402,0.513045,-0.855942
1760474595.130403,-0.262667,-0.055463,0.315014,0.910327,-0.004231,0.006688,-0.007221,-0.000085,0.001083,0.000597,0.064508,0.513170,-0.855860
1760474595.160314,-0.262712,-0.055450,0.314945,0.910339,-0.003865,0.003864,-0.004496,-0.000018,0.000227,0.000125,0.064523,0.513242,-0.855815
1760474595.190629,-0.262756,-0.055439,0.314851,0.910360,-0.004903,0.008691,-0.009581,0.000239,0.000703,0.002736,0.064518,0.513315,-0.855771
1760474595.191216,-0.262808,-0.055422,0.314720,0.910391,-0.003022,0.003404,-0.010638,0.000030,-0.003353,-0.001510,0.064510,0.513400,-0.855721
1760474595.221447,-0.262858,-0.055475,0.314629,0.910405,-0.004389,0.000576,-0.004875,-0.000670,-0.003808,-0.000598,0.064396,0.513522,-0.855657
1760474595.252971,-0.262956,-0.055472,0.314561,0.910400,-0.007917,0.005985,-0.001273,0.001423,-0.002573,0.005390,0.064428,0.513688,-0.855555
1760474595.253729,-0.263096,-0.055425,0.314496,0.910385,-0.013856,0.011194,-0.003388,0.000917,0.000325,0.001439,0.064569,0.513900,-0.855417
1760474595.282887,-0.263264,-0.055377,0.314415,0.910367,-0.013296,0.011549,-0.005157,0.002145,0.001315,-0.000674,0.064722,0.514157,-0.855251
1760474595.287523,-0.263415,-0.055398,0.314268,0.910373,-0.014604,0.003984,-0.018677,-0.000429,0.002953,0.000443,0.064700,0.514431,-0.855087
1760474595.324283,-0.263527,-0.055444,0.314059,0.910410,-0.009680,0.007968,-0.021013,0.001699,0.001693,0.002648,0.064573,0.514661,-0.854959
1760474595.325083,-0.263709,-0.055420,0.313804,0.910447,-0.015866,0.016041,-0.027713,0.002446,0.004035,0.005175,0.064591,0.514968,-0.854772
1760474595.355515,-0.263894,-0.055396,0.313443,0.910519,-0.016341,0.022464,-0.036213,0.002313,0.003730,0.002729,0.064554,0.515288,-0.854583
1760474595.388314,-0.264117,-0.055383,0.313029,0.910597,-0.018932,0.018971,-0.040514,0.000908,0.002611,-0.002719,0.064489,0.515683,-0.854349
1760474595.388712,-0.264304,-0.055414,0.312642,0.910674,-0.013834,0.014070,-0.038244,0.002468,0.001170,-0.000805,0.064337,0.516039,-0.854146
1760474595.418031,-0.264416,-0.055418,0.312295,0.910761,-0.009875,0.013140,-0.030008,0.001416,-0.000101,0.000332,0.064207,0.516252,-0.854027
1760474595.449511,-0.264512,-0.055370,0.311987,0.910841,-0.005431,0.014289,-0.024652,0.001247,0.000958,0.002845,0.064182,0.516407,-0.853935
1760474595.449889,-0.264598,-0.055323,0.311720,0.910910,-0.003452,0.018674,-0.018264,0.002539,-0.002235,0.004374,0.064172,0.516542,-0.853854
1760474595.480055,-0.264690,-0.055243,0.311509,0.910961,-0.003126,0.007880,-0.018058,0.000610,-0.000830,0.001159,0.064258,0.516662,-0.853775
1760474595.485980,-0.264729,-0.055209,0.311378,0.910997,-0.003257,-0.001241,-0.012718,0.000941,-0.003002,-0.000457,0.064271,0.516715,-0.853741
1760474595.516362,-0.264806,-0.055264,0.311238,0.911019,-0.008168,0.007533,-0.010561,0.002627,-0.003371,0.003409,0.064141,0.516887,-0.853647
1760474595.547275,-0.264948,-0.055221,0.311165,0.911005,-0.011828,0.008841,-0.006123,0.002492,-0.000942,0.001318,0.064273,0.517104,-0.853506
1760474595.548634,-0.265099,-0.055165,0.311100,0.910987,-0.011872,0.009112,-0.003185,0.002087,0.000504,0.001081,0.064436,0.517326,-0.853359
1760474595.590968,-0.265233,-0.055150,0.311019,0.910976,-0.010683,0.004314,-0.005320,0.002386,0.001431,-0.000920,0.064505,0.517547,-0.853220
1760474595.599243,-0.265355,-0.055124,0.310918,0.910976,-0.007940,0.009963,-0.011304,0.003226,0.003109,0.001199,0.064574,0.517742,-0.853096
1760474595.630337,-0.265458,-0.055140,0.310799,0.910986,-0.006291,0.007002,-0.010651,0.003949,0.003488,0.000024,0.064544,0.517932,-0.852983
1760474595.630588,-0.265548,-0.055145,0.310659,0.911007,-0.005441,0.008301,-0.014616,0.003894,0.005476,0.003037,0.064514,0.518096,-0.852886
1760474595.658925,-0.265593,-0.055112,0.310501,0.911050,-0.000526,0.011368,-0.014559,0.003220,0.001403,0.002321,0.064514,0.518163,-0.852846
1760474595.663771,-0.265581,-0.055047,0.310361,0.911105,0.003146,0.010003,-0.009793,0.002867,0.001653,0.001634,0.064545,0.518113,-0.852873
1760474595.703121,-0.265582,-0.054935,0.310239,0.911153,0.005514,0.010598,-0.007188,0.003800,0.001314,0.000801,0.064679,0.518057,-0.852897
1760474595.703735,-0.265612,-0.054791,0.310156,0.911182,0.001027,0.011824,-0.008983,0.003649,0.002584,0.002026,0.064913,0.518029,-0.852897
1760474595.751423,-0.265644,-0.054644,0.310075,0.911208,0.000029,0.010278,-0.004937,0.001929,0.000719,-0.000182,0.065154,0.518003,-0.852894
1760474595.752642,-0.265693,-0.054565,0.309975,0.911233,0.000448,0.015886,-0.002408,0.003210,0.000380,0.001491,0.065273,0.518044,-0.852860
1760474595.804307,-0.265750,-0.054454,0.309854,0.911264,-0.000309,0.013632,-0.005540,0.003850,0.000217,0.001791,0.065443,0.518083,-0.852823
1760474595.804580,-0.265807,-0.054344,0.309733,0.911295,-0.001066,0.011378,-0.008672,0.004490,0.000053,0.002091,0.065613,0.518122,-0.852786
1760474595.816227,-0.265885,-0.054212,0.309612,0.911322,-0.002127,0.012369,-0.012753,0.004623,-0.000621,0.001440,0.065832,0.518183,-0.852733
1760474595.845369,-0.265923,-0.054119,0.309491,0.911357,0.001601,0.015071,-0.009486,0.003623,-0.000267,0.002239,0.065957,0.518200,-0.852712
1760474595.846177,-0.265960,-0.054027,0.309371,0.911393,-0.002625,0.009400,-0.009837,0.003545,0.001874,0.000096,0.066080,0.518216,-0.852693
1760474595.880527,-0.266066,-0.053983,0.309248,0.911406,-0.009714,0.005523,-0.009962,0.003657,0.001227,-0.000616,0.066160,0.518377,-0.852589
1760474595.881451,-0.266186,-0.053956,0.309146,0.911407,-0.012289,0.008998,-0.005569,0.004947,-0.001256,0.002093,0.066229,0.518568,-0.852468
1760474595.942596,-0.266341,-0.053952,0.309043,0.911397,-0.019722,0.010903,-0.008708,0.006019,0.001279,0.001110,0.066277,0.518831,-0.852303
1760474595.943906,-0.266579,-0.053942,0.308947,0.911360,-0.019437,0.007331,-0.007869,0.005233,0.001750,0.000503,0.066397,0.519230,-0.852052
1760474595.975169,-0.266785,-0.053970,0.308838,0.911336,-0.016523,0.006478,-0.007923,0.005168,0.001358,0.000889,0.066416,0.519597,-0.851826
1760474596.004380,-0.266971,-0.053991,0.308741,0.911312,-0.015348,0.004485,-0.006411,0.004267,0.000504,0.000892,0.066444,0.519927,-0.851623
1760474596.005177,-0.267132,-0.054010,0.308682,0.911284,-0.013567,0.001672,-0.002197,0.003191,0.000242,0.000626,0.066481,0.520209,-0.851447
1760474596.038415,-0.267247,-0.054043,0.308652,0.911259,-0.010491,0.000275,0.000258,0.003234,0.000304,0.001112,0.066478,0.520423,-0.851317
1760474596.040523,-0.267355,-0.054068,0.308656,0.911224,-0.006658,-0.001128,0.001143,0.003314,-0.000019,0.001001,0.066505,0.520617,-0.851196
1760474596.069103,-0.267426,-0.054093,0.308657,0.911201,-0.005115,-0.001176,0.000875,0.002080,0.000148,0.000406,0.066508,0.520750,-0.851115
1760474596.105008,-0.267467,-0.054113,0.308668,0.911185,-0.002142,-0.001210,0.001126,0.002756,-0.000097,0.000658,0.066503,0.520830,-0.851066
1760474596.106226,-0.267480,-0.054100,0.308714,0.911166,0.001353,-0.002056,0.005322,0.003025,0.000141,0.001134,0.066562,0.520839,-0.851056
1760474596.139659,-0.267463,-0.054099,0.308788,0.911146,0.002093,-0.002783,0.007514,0.002760,0.001260,0.001012,0.066595,0.520807,-0.851073
1760474596.140096,-0.267420,-0.054087,0.308856,0.911136,0.002174,-0.000941,0.004854,0.003637,0.002513,0.001857,0.066627,0.520723,-0.851122
1760474596.169151,-0.267364,-0.054070,0.308920,0.911132,0.007974,-0.003474,0.005061,0.004236,0.002032,0.001191,0.066658,0.520614,-0.851186
1760474596.199397,-0.267258,-0.054092,0.308984,0.911140,0.008485,-0.004673,0.004771,0.004123,0.002817,0.000516,0.066586,0.520446,-0.851295
1760474596.200029,-0.267174,-0.054120,0.309026,0.911149,0.005873,-0.009262,-0.000631,0.002843,0.002779,0.001879,0.066504,0.520319,-0.851379
1760474596.230493,-0.267072,-0.054163,0.309047,0.911169,0.007982,-0.010324,-0.000800,0.001972,-0.000408,0.001243,0.066373,0.520172,-0.851478
1760474596.238704,-0.266981,-0.054239,0.309090,0.911176,0.004100,-0.010912,0.002846,0.001217,-0.001253,0.000219,0.066200,0.520063,-0.851559
1760474596.267792,-0.266933,-0.054279,0.309132,0.911174,0.000452,-0.002478,0.004406,0.002446,-0.000740,0.004298,0.066119,0.520003,-0.851601
1760474596.298546,-0.266949,-0.054261,0.309171,0.911157,-0.002172,0.002729,0.002220,0.002505,0.002450,0.002397,0.066185,0.520016,-0.851588
1760474596.299842,-0.266991,-0.054235,0.309178,0.911144,-0.003318,0.001274,0.000630,0.002256,0.003458,-0.001054,0.066264,0.520070,-0.851549
1760474596.329267,-0.267021,-0.054290,0.309149,0.911142,-0.002947,-0.001449,-0.005426,0.002273,0.003573,0.000735,0.066167,0.520156,-0.851504
1760474596.360499,-0.267033,-0.054366,0.309083,0.911156,-0.001415,-0.004615,-0.010612,0.003385,0.003994,0.002132,0.065999,0.520225,-0.851475
1760474596.361208,-0.267036,-0.054451,0.308999,0.911179,-0.001827,-0.005656,-0.012088,0.003491,0.002470,0.003682,0.065799,0.520286,-0.851453
1760474596.390357,-0.267053,-0.054539,0.308875,0.911210,-0.002077,-0.003769,-0.015162,0.002575,0.002245,0.002993,0.065579,0.520375,-0.851416
1760474596.424273,-0.267052,-0.054621,0.308754,0.911247,-0.002150,-0.003698,-0.011173,0.002406,0.000633,0.001183,0.065361,0.520430,-0.851399
1760474596.424928,-0.267061,-0.054697,0.308688,0.911262,-0.003253,-0.005626,-0.006023,0.001084,0.000285,0.000533,0.065190,0.520493,-0.851374
1760474596.440106,-0.267062,-0.054781,0.308691,0.911256,-0.001568,-0.007382,0.000644,0.000549,-0.000252,-0.000137,0.065041,0.520545,-0.851353
1760474596.469040,-0.267052,-0.054828,0.308736,0.911240,0.001089,-0.006733,0.004056,0.001794,-0.000806,0.000897,0.064973,0.520552,-0.851354
1760474596.499126,-0.267013,-0.054882,0.308801,0.911226,0.001921,-0.005752,0.004829,0.002577,0.001852,0.001570,0.064888,0.520514,-0.851384
1760474596.499972,-0.266983,-0.054902,0.308842,0.911220,0.001124,-0.005694,-0.002432,0.002235,0.003214,0.001577,0.064855,0.520473,-0.851411
1760474596.531218,-0.266939,-0.054990,0.308828,0.911233,0.000980,-0.010489,-0.007014,0.000685,0.001724,-0.000451,0.064658,0.520452,-0.851440
1760474596.561282,-0.266891,-0.055073,0.308789,0.911255,0.000813,-0.006916,-0.005373,0.002173,-0.000260,0.001925,0.064456,0.520424,-0.851472
1760474596.563144,-0.266883,-0.055113,0.308761,0.911264,-0.000268,-0.000756,-0.001568,0.002526,-0.000820,0.001816,0.064361,0.520436,-0.851472
1760474596.591674,-0.266893,-0.055135,0.308737,0.911268,-0.002555,-0.000316,-0.001098,0.001613,-0.000183,0.000699,0.064314,0.520466,-0.851457
1760474596.597615,-0.266904,-0.055154,0.308738,0.911264,-0.002815,-0.001537,0.000655,0.001552,0.000622,-0.000263,0.064287,0.520495,-0.851441
1760474596.627892,-0.266936,-0.055185,0.308749,0.911249,-0.003166,-0.002144,-0.000143,0.001123,0.000835,0.000188,0.064258,0.520566,-0.851400
1760474596.658867,-0.266966,-0.055248,0.308753,0.911234,-0.003318,-0.002405,-0.000487,0.001713,0.000350,0.000292,0.064165,0.520654,-0.851353
1760474596.660053,-0.266995,-0.055311,0.308721,0.911233,-0.003623,-0.002595,-0.002204,0.002152,-0.000215,0.000729,0.064051,0.520740,-0.851309
1760474596.690478,-0.267020,-0.055342,0.308695,0.911233,-0.003024,0.001776,-0.004078,0.001029,-0.000051,0.001096,0.063997,0.520802,-0.851275
1760474596.697615,-0.267081,-0.055341,0.308660,0.911227,-0.002769,0.003629,-0.004872,0.001018,0.000595,0.001557,0.064019,0.520905,-0.851210
1760474596.727727,-0.267136,-0.055311,0.308622,0.911225,-0.001798,0.003844,-0.001236,0.001679,0.000242,0.000865,0.064086,0.520983,-0.851158
1760474596.777979,-0.267181,-0.055265,0.308588,0.911226,-0.003019,0.005564,-0.001164,0.001854,0.000149,0.000682,0.064181,0.521032,-0.851121
1760474596.778234,-0.267225,-0.055218,0.308555,0.911227,-0.004240,0.007284,-0.001091,0.002029,0.000055,0.000498,0.064275,0.521081,-0.851084
1760474596.778708,-0.267298,-0.055146,0.308517,0.911223,-0.003983,0.006531,0.000545,0.001753,-0.000530,0.000916,0.064431,0.521163,-0.851021
1760474596.809907,-0.267363,-0.055065,0.308511,0.911211,-0.002795,0.006583,0.001035,0.002237,-0.000142,0.002207,0.064617,0.521225,-0.850969
1760474596.816680,-0.267428,-0.055013,0.308496,0.911200,-0.006020,0.008832,-0.001633,0.003331,0.000750,0.002146,0.064746,0.521303,-0.850912
1760474596.845405,-0.267544,-0.054957,0.308452,0.911184,-0.011952,0.008208,-0.003604,0.003844,0.000701,0.001714,0.064897,0.521467,-0.850800
1760474596.881904,-0.267691,-0.054942,0.308385,0.911165,-0.013691,0.005558,-0.005222,0.003310,0.000871,0.001224,0.064981,0.521708,-0.850646
1760474596.882497,-0.267852,-0.054960,0.308343,0.911131,-0.015699,0.003174,-0.001394,0.002832,0.001728,0.001028,0.065030,0.521989,-0.850469
1760474596.913957,-0.268019,-0.054990,0.308312,0.911090,-0.013899,0.002208,0.000582,0.003169,0.000486,0.000947,0.065065,0.522287,-0.850284
1760474596.915051,-0.268171,-0.054988,0.308321,0.911042,-0.012538,0.001153,0.003849,0.002772,0.001584,0.000918,0.065173,0.522539,-0.850121
1760474596.945246,-0.268287,-0.055003,0.308372,0.910990,-0.009237,-0.000116,0.004756,0.003243,0.001783,0.000395,0.065249,0.522737,-0.849993
1760474596.977850,-0.268373,-0.055005,0.308415,0.910951,-0.008340,0.000147,0.004278,0.003020,0.003507,0.001027,0.065326,0.522878,-0.849901
1760474596.979000,-0.268461,-0.055006,0.308442,0.910915,-0.006188,-0.001833,0.003059,0.002570,0.003608,0.001787,0.065397,0.523023,-0.849806
1760474597.009320,-0.268503,-0.055017,0.308465,0.910895,-0.003777,0.000624,0.003048,0.002936,0.002030,0.002079,0.065418,0.523097,-0.849759
1760474597.013822,-0.268552,-0.055006,0.308485,0.910874,-0.001717,0.001946,0.002851,0.002179,0.001577,0.001020,0.065481,0.523171,-0.849708
1760474597.042687,-0.268572,-0.055018,0.308529,0.910852,0.000418,-0.000728,0.004470,0.002116,0.002840,0.000945,0.065497,0.523209,-0.849684
1760474597.084327,-0.268538,-0.055014,0.308586,0.910843,0.001960,-0.002129,0.004727,0.001786,0.003309,0.001777,0.065517,0.523145,-0.849722
1760474597.084671,-0.268504,-0.055009,0.308643,0.910834,0.003502,-0.003529,0.004984,0.001455,0.003778,0.002609,0.065536,0.523081,-0.849759
1760474597.114707,-0.268448,-0.054993,0.308703,0.910831,0.005088,-0.002797,0.005744,0.002087,0.001908,0.003347,0.065562,0.522976,-0.849822
1760474597.115219,-0.268391,-0.054968,0.308738,0.910838,0.002878,0.000236,0.002771,0.002999,0.002826,0.002993,0.065591,0.522863,-0.849890
1760474597.146716,-0.268374,-0.054918,0.308751,0.910842,0.002140,0.003235,-0.001990,0.003783,0.003315,0.001896,0.065678,0.522804,-0.849919
1760474597.152613,-0.268378,-0.054853,0.308730,0.910852,0.003721,0.004013,-0.001312,0.003738,0.000590,0.001691,0.065786,0.522775,-0.849929
1760474597.181440,-0.268378,-0.054813,0.308684,0.910869,0.001062,0.001348,-0.002221,0.003748,0.001481,0.001519,0.065833,0.522754,-0.849938
1760474597.215486,-0.268407,-0.054808,0.308642,0.910875,-0.001637,0.001687,-0.002344,0.004280,0.001510,0.000037,0.065836,0.522803,-0.849907
1760474597.216244,-0.268439,-0.054805,0.308588,0.910885,-0.000971,-0.000476,-0.005244,0.002518,-0.000075,0.000795,0.065831,0.522858,-0.849874
1760474597.247711,-0.268430,-0.054824,0.308543,0.910901,0.001717,-0.003268,-0.003813,0.002117,-0.001982,-0.000271,0.065766,0.522857,-0.849879
1760474597.252486,-0.268408,-0.054867,0.308541,0.910906,-0.001947,-0.001029,-0.000020,0.002551,-0.000559,0.002823,0.065672,0.522846,-0.849893
1760474597.282903,-0.268463,-0.054841,0.308552,0.910888,-0.005445,0.003786,0.004196,0.003514,-0.000272,0.004243,0.065761,0.522921,-0.849841
1760474597.312707,-0.268537,-0.054796,0.308593,0.910854,-0.007528,0.008993,0.007453,0.002855,0.001421,0.002036,0.065915,0.523016,-0.849770
1760474597.313764,-0.268626,-0.054739,0.308618,0.910823,-0.007816,0.002236,0.002435,0.003490,0.002771,-0.000280,0.066090,0.523128,-0.849688
1760474597.344204,-0.268687,-0.054746,0.308639,0.910797,-0.004895,-0.000984,0.000319,0.003222,0.004033,0.001765,0.066129,0.523233,-0.849620
1760474597.374274,-0.268723,-0.054754,0.308633,0.910789,-0.001163,-0.003092,-0.002635,0.004433,0.004404,0.001786,0.066135,0.523298,-0.849580
1760474597.375096,-0.268709,-0.054802,0.308565,0.910813,0.001258,-0.002411,-0.010449,0.003927,0.005203,0.001899,0.065999,0.523307,-0.849585
1760474597.406690,-0.268669,-0.054853,0.308464,0.910856,0.002492,-0.003026,-0.012103,0.003450,0.003399,0.000197,0.065822,0.523278,-0.849616
1760474597.411859,-0.268629,-0.054916,0.308365,0.910897,0.001937,-0.003548,-0.010581,0.002273,0.001974,0.000315,0.065625,0.523256,-0.849645
1760474597.441648,-0.268598,-0.054995,0.308280,0.910930,0.001522,-0.004797,-0.005223,0.002710,-0.000699,0.000816,0.065414,0.523256,-0.849661
1760474597.470710,-0.268568,-0.055059,0.308267,0.910940,0.002852,-0.006712,0.002095,0.003398,-0.000869,0.001337,0.065272,0.523245,-0.849679
1760474597.471456,-0.268554,-0.055103,0.308331,0.910920,0.002511,-0.004560,0.005347,0.003681,-0.000401,0.002912,0.065219,0.523242,-0.849685
1760474597.501429,-0.268548,-0.055097,0.308420,0.910892,-0.001182,-0.002059,0.005852,0.003400,0.000128,0.001988,0.065276,0.523222,-0.849693
1760474597.531412,-0.268570,-0.055111,0.308446,0.910875,-0.000707,-0.004793,0.000093,0.001034,0.000039,0.000604,0.065280,0.523266,-0.849665
1760474597.532413,-0.268578,-0.055216,0.308469,0.910859,-0.007091,-0.008823,-0.003440,0.000950,0.000225,0.000073,0.065107,0.523338,-0.849634
1760474597.562766,-0.268645,-0.055287,0.308460,0.910838,-0.006872,-0.002163,-0.002280,0.001674,-0.000496,0.002786,0.065018,0.523492,-0.849546
1760474597.592627,-0.268728,-0.055308,0.308470,0.910809,-0.008420,0.001341,0.000215,0.002040,0.001913,0.000972,0.065039,0.523641,-0.849453
1760474597.593972,-0.268832,-0.055320,0.308471,0.910777,-0.008095,-0.000463,-0.000020,0.001689,0.003506,-0.000530,0.065086,0.523820,-0.849339
1760474597.624976,-0.268912,-0.055357,0.308470,0.910752,-0.004930,-0.001004,0.000438,0.001396,0.002867,0.000114,0.065070,0.523976,-0.849244
1760474597.631757,-0.268919,-0.055362,0.308484,0.910744,0.001690,-0.000299,0.000654,0.002541,0.003614,0.000566,0.065073,0.523989,-0.849235
1760474597.662997,-0.268857,-0.055364,0.308476,0.910765,0.006702,-0.002198,-0.002684,0.003100,0.003379,0.001185,0.065025,0.523888,-0.849302
1760474597.692508,-0.268750,-0.055347,0.308461,0.910803,0.010290,-0.000947,-0.005059,0.002624,0.005211,0.001361,0.064978,0.523701,-0.849421
1760474597.692838,-0.268630,-0.055324,0.308445,0.910845,0.014252,0.000387,-0.004185,0.003710,0.004535,0.001791,0.064931,0.523489,-0.849555
1760474597.722181,-0.268481,-0.055283,0.308429,0.910897,0.018151,0.002753,-0.001409,0.002001,0.003680,0.002250,0.064900,0.523218,-0.849724
1760474597.752256,-0.268287,-0.055186,0.308472,0.910945,0.024745,-0.001190,0.004890,0.001988,0.003068,-0.000247,0.064975,0.522836,-0.849953
1760474597.753493,-0.268022,-0.055046,0.308561,0.911002,0.033708,0.001237,0.010456,0.003366,0.005518,-0.001254,0.065109,0.522307,-0.850268
1760474597.780063,-0.267674,-0.054912,0.308694,0.911067,0.041915,-0.001582,0.012228,0.004791,0.009761,-0.001861,0.065201,0.521639,-0.850671
1760474597.826684,-0.267213,-0.054766,0.308808,0.911173,0.050401,-0.002066,0.007779,0.003714,0.013393,-0.001003,0.065233,0.520779,-0.851196
1760474597.826973,-0.266753,-0.054619,0.308922,0.911278,0.058888,-0.002550,0.003330,0.002638,0.017025,-0.000146,0.065265,0.519918,-0.851719
1760474597.827438,-0.266178,-0.054481,0.308977,0.911435,0.069640,-0.001986,-0.001255,0.004366,0.018055,-0.001827,0.065174,0.518875,-0.852362
1760474597.859975,-0.265485,-0.054277,0.309005,0.911640,0.083331,-0.002580,-0.004044,0.004344,0.017606,-0.001607,0.065111,0.517597,-0.853143
1760474597.889171,-0.264651,-0.054031,0.309029,0.911889,0.096008,-0.001825,-0.004068,0.003554,0.017790,-0.000914,0.065029,0.516060,-0.854081
1760474597.891055,-0.263685,-0.053713,0.309069,0.912174,0.111564,0.000300,-0.001804,0.004985,0.015583,-0.000349,0.065002,0.514255,-0.855170
1760474597.920537,-0.262611,-0.053383,0.309131,0.912482,0.123195,-0.003273,-0.000139,0.003444,0.017807,-0.001143,0.064939,0.512260,-0.856372
1760474597.950361,-0.261407,-0.053036,0.309216,0.912819,0.140312,-0.003794,0.000181,0.002292,0.018617,-0.000676,0.064838,0.510035,-0.857707
1760474597.951177,-0.260023,-0.052625,0.309297,0.913211,0.161160,-0.007321,-0.002183,0.003588,0.017049,0.000368,0.064733,0.507466,-0.859237
1760474597.981597,-0.258439,-0.052145,0.309396,0.913655,0.181786,-0.005053,0.001260,0.003801,0.016107,-0.001003,0.064634,0.504514,-0.860981
1760474598.012502,-0.256691,-0.051576,0.309534,0.914133,0.196299,-0.005801,0.000533,0.002918,0.017316,-0.003984,0.064614,0.501228,-0.862899
1760474598.014453,-0.254813,-0.051006,0.309638,0.914655,0.212160,-0.002860,0.003804,0.004569,0.015303,-0.003127,0.064493,0.497719,-0.864937
1760474598.042839,-0.252849,-0.050348,0.309768,0.915192,0.222941,-0.000911,0.002160,0.001912,0.017363,-0.005953,0.064492,0.494003,-0.867065
1760474598.047367,-0.250758,-0.049631,0.309876,0.915770,0.239396,-0.000417,-0.002610,0.002454,0.019902,-0.010726,0.064507,0.490031,-0.869315
1760474598.075564,-0.248450,-0.048960,0.309940,0.916413,0.263764,-0.008519,-0.014279,0.002719,0.024567,-0.012476,0.064275,0.485715,-0.871751
1760474598.106688,-0.245864,-0.048168,0.309971,0.917141,0.295847,0.000178,-0.015583,0.003280,0.022681,-0.005356,0.064069,0.480846,-0.874461
1760474598.107488,-0.243051,-0.047284,0.309907,0.917958,0.317254,-0.000189,-0.029545,0.003499,0.028329,-0.006630,0.063836,0.475530,-0.877380
1760474598.150720,-0.240002,-0.046316,0.309769,0.918856,0.344998,0.004105,-0.034818,0.004649,0.025528,-0.002810,0.063574,0.469749,-0.880508
1760474598.156875,-0.236738,-0.045337,0.309560,0.919822,0.366107,0.000627,-0.040344,0.003573,0.021588,-0.001184,0.063166,0.463583,-0.883799
1760474598.185356,-0.233265,-0.044232,0.309397,0.920817,0.385657,0.007746,-0.034805,0.005653,0.019836,0.005212,0.062883,0.456960,-0.887262
1760474598.185713,-0.229709,-0.043061,0.309263,0.921811,0.393128,0.015210,-0.027797,0.005176,0.022314,0.006862,0.062693,0.450131,-0.890759
1760474598.217324,-0.226130,-0.041845,0.309122,0.922799,0.395431,0.004530,-0.033299,0.001412,0.028855,0.002675,0.062573,0.443215,-0.894229
1760474598.246593,-0.222449,-0.040647,0.308986,0.923792,0.412717,0.008477,-0.027563,0.001345,0.026972,0.009785,0.062369,0.436113,-0.897728
1760474598.248520,-0.218531,-0.039312,0.308847,0.924831,0.446513,0.005818,-0.027725,0.000943,0.024072,0.008680,0.062272,0.428491,-0.901397
1760474598.278597,-0.214333,-0.037904,0.308824,0.925879,0.466517,0.005413,-0.013251,0.001161,0.023110,0.009100,0.062193,0.420304,-0.905250
1760474598.307839,-0.210042,-0.036382,0.308876,0.926906,0.475172,0.016079,-0.008983,0.002989,0.031103,0.014515,0.062309,0.411853,-0.909118
1760474598.308648,-0.205653,-0.034793,0.308913,0.927938,0.489597,0.023223,-0.004636,0.002693,0.028861,0.016120,0.062487,0.403162,-0.912993
1760474598.339254,-0.201169,-0.033061,0.309009,0.928952,0.504952,0.023564,-0.001205,0.000193,0.030921,0.017204,0.062902,0.394186,-0.916876
1760474598.378856,-0.196501,-0.031269,0.309107,0.929980,0.518008,0.022138,-0.007996,0.001718,0.037072,0.016111,0.063321,0.384815,-0.920819
1760474598.379450,-0.191828,-0.029476,0.309198,0.930983,0.531064,0.020713,-0.014787,0.003241,0.043263,0.014922,0.063742,0.375405,-0.924666
1760474598.385694,-0.186895,-0.027661,0.309077,0.932082,0.550517,0.020087,-0.041956,0.005556,0.046639,0.016190,0.063965,0.365501,-0.928611
1760474598.414187,-0.181726,-0.025752,0.308791,0.933253,0.580682,0.030666,-0.046046,0.008499,0.037479,0.018899,0.064163,0.355096,-0.932625
1760474598.444206,-0.176391,-0.023840,0.308306,0.934487,0.595938,0.022726,-0.070564,0.007675,0.032860,0.016391,0.064208,0.344369,-0.936636
1760474598.444916,-0.170855,-0.022022,0.307764,0.935737,0.606743,0.014463,-0.066453,0.006528,0.017521,0.019583,0.063952,0.333306,-0.940647
1760474598.475510,-0.165380,-0.020130,0.307275,0.936924,0.587957,0.023015,-0.063492,0.007914,0.017234,0.025338,0.063913,0.322268,-0.944489
1760474598.506937,-0.160092,-0.018315,0.306696,0.938069,0.566419,0.015811,-0.071384,0.003975,0.007808,0.023072,0.063837,0.311590,-0.948070
1760474598.507267,-0.154928,-0.016514,0.306186,0.939135,0.562641,0.029369,-0.045143,0.005259,-0.008618,0.029918,0.063855,0.301110,-0.951449
1760474598.538290,-0.149910,-0.014560,0.305902,0.940074,0.536229,0.039293,-0.030520,0.004488,-0.001939,0.023626,0.064340,0.290761,-0.954630
1760474598.567668,-0.145040,-0.012730,0.305595,0.940964,0.525968,0.022074,-0.033920,0.001389,-0.010020,0.011608,0.064690,0.280735,-0.957603
1760474598.568805,-0.140224,-0.011039,0.305421,0.941771,0.510239,0.014595,-0.019573,0.005395,-0.016001,0.013157,0.064862,0.270861,-0.960431
1760474598.599918,-0.135664,-0.009375,0.305301,0.942496,0.467961,0.028096,-0.013129,0.009264,-0.008868,0.014306,0.065166,0.261450,-0.963015
1760474598.602309,-0.131521,-0.007814,0.305088,0.943166,0.435983,0.021559,-0.026643,0.008241,-0.012415,0.011386,0.065510,0.252860,-0.965282
1760474598.631950,-0.127598,-0.006423,0.304860,0.943789,0.410529,0.014629,-0.016412,0.007253,-0.023423,0.013979,0.065676,0.244768,-0.967355
1760474598.661456,-0.124006,-0.005108,0.304768,0.944306,0.354179,0.022758,-0.003878,0.006800,-0.013332,0.014290,0.065938,0.237312,-0.969193
1760474598.663531,-0.121024,-0.003944,0.304680,0.944726,0.295626,0.022521,-0.015295,0.009030,-0.005883,0.011542,0.066295,0.231072,-0.970675
1760474598.692863,-0.118375,-0.002905,0.304515,0.945119,0.283372,0.017414,-0.017731,0.006031,-0.016057,0.003505,0.066603,0.225526,-0.971958
1760474598.722610,-0.115766,-0.001861,0.304445,0.945467,0.280242,0.016332,-0.000602,0.007248,-0.023009,0.003534,0.066970,0.220040,-0.973189
1760474598.723843,-0.113251,-0.000731,0.304491,0.945759,0.265682,0.028918,0.012317,0.007298,-0.020138,0.003382,0.067584,0.214661,-0.974348
1760474598.761262,-0.110920,0.000291,0.304565,0.946011,0.241560,0.026703,0.013340,0.006725,-0.022509,0.001490,0.068116,0.209686,-0.975393
1760474598.785512,-0.109070,0.001176,0.304765,0.946161,0.190825,0.028095,0.020356,0.006689,-0.017761,0.004436,0.068706,0.205678,-0.976205
1760474598.815721,-0.107662,0.001972,0.304943,0.946264,0.135327,0.027544,0.017242,0.007326,-0.014807,0.004711,0.069393,0.202550,-0.976810
1760474598.888507,-0.107447,0.002570,0.304996,0.946269,0.081338,0.035326,0.005999,0.006385,-0.010209,0.002810,0.070405,0.201780,-0.976897
1760474598.888960,-0.107232,0.003167,0.305050,0.946275,0.027350,0.043107,-0.005244,0.005445,-0.005612,0.000908,0.071417,0.201010,-0.976982
1760474598.889584,-0.107413,0.004185,0.304894,0.946301,-0.059159,0.053466,-0.034648,0.003950,-0.004014,-0.000220,0.073419,0.200738,-0.976890
1760474598.889246,-0.107018,0.003765,0.305103,0.946280,-0.026638,0.050888,-0.016487,0.004504,-0.001014,-0.000996,0.072429,0.200240,-0.977066
1760474598.919798,-0.108121,0.004495,0.304494,0.946347,-0.075420,0.050867,-0.046883,0.003986,-0.012495,0.000823,0.074352,0.201902,-0.976579
1760474598.921872,-0.108985,0.004707,0.304010,0.946403,-0.081159,0.052577,-0.046827,0.004897,-0.018587,0.002737,0.075174,0.203426,-0.976200
1760474598.950376,-0.109952,0.004908,0.303514,0.946449,-0.092731,0.051237,-0.051868,0.004258,-0.015867,0.002098,0.076035,0.205147,-0.975773
1760474598.983141,-0.111010,0.005045,0.302968,0.946500,-0.104294,0.045569,-0.054593,0.003402,-0.016626,0.000886,0.076815,0.207086,-0.975302
1760474598.983464,-0.112169,0.005081,0.302424,0.946537,-0.116945,0.039712,-0.052472,0.001926,-0.017346,-0.000247,0.077464,0.209271,-0.974785
1760474599.013068,-0.113442,0.004996,0.301897,0.946554,-0.132359,0.032259,-0.051253,0.001676,-0.019064,-0.000792,0.077953,0.211742,-0.974212
1760474599.043097,-0.114819,0.004795,0.301394,0.946549,-0.141511,0.021973,-0.048589,0.000961,-0.025060,-0.001805,0.078288,0.214474,-0.973587
1760474599.043641,-0.116196,0.004531,0.300949,0.946524,-0.136235,0.017978,-0.040722,0.002436,-0.034227,-0.000774,0.078514,0.217238,-0.972956
1760474599.094320,-0.117239,0.004283,0.300705,0.946474,-0.107967,0.010945,-0.025079,0.001906,-0.040941,-0.001079,0.078617,0.219351,-0.972473
1760474599.094452,-0.118282,0.004036,0.300462,0.946423,-0.079699,0.003912,-0.009436,0.001377,-0.047654,-0.001388,0.078719,0.221464,-0.971986
1760474599.160641,-0.118707,0.003821,0.300580,0.946333,-0.071422,-0.005389,-0.000689,0.001998,-0.041955,-0.003564,0.078594,0.222376,-0.971788
1760474599.160927,-0.119133,0.003605,0.300697,0.946243,-0.063145,-0.014689,0.008057,0.002619,-0.036257,-0.005741,0.078469,0.223288,-0.971589
1760474599.161372,-0.119558,0.003390,0.300815,0.946153,-0.054868,-0.023990,0.016803,0.003239,-0.030558,-0.007919,0.078344,0.224200,-0.971389
1760474599.161698,-0.119960,0.003058,0.301002,0.946043,-0.062816,-0.030663,0.019767,0.002942,-0.026537,-0.009663,0.078002,0.225135,-0.971200
1760474599.191418,-0.120457,0.002574,0.301201,0.945918,-0.078131,-0.035255,0.016174,0.002960,-0.023449,-0.007142,0.077433,0.226335,-0.970967
1760474599.241749,-0.121111,0.002030,0.301355,0.945787,-0.077669,-0.035970,0.011331,0.001923,-0.022875,-0.006704,0.076835,0.227867,-0.970656
1760474599.242036,-0.121765,0.001486,0.301507,0.945656,-0.077206,-0.036685,0.006488,0.000885,-0.022301,-0.006269,0.076237,0.229399,-0.970342
1760474599.242479,-0.122330,0.000918,0.301599,0.945554,-0.066907,-0.036041,0.004985,0.001500,-0.020478,-0.006699,0.075524,0.230785,-0.970069
1760474599.314143,-0.122729,0.000554,0.301660,0.945483,-0.058182,-0.032204,0.004950,0.001584,-0.018952,-0.006472,0.075093,0.231742,-0.969874
1760474599.314472,-0.123129,0.000191,0.301720,0.945412,-0.049457,-0.028367,0.004914,0.001668,-0.017425,-0.006246,0.074661,0.232700,-0.969679
1760474599.314742,-0.123528,-0.000173,0.301781,0.945341,-0.040732,-0.024530,0.004879,0.001751,-0.015898,-0.006022,0.074230,0.233657,-0.969481
1760474599.318659,-0.123832,-0.000524,0.301853,0.945278,-0.039147,-0.026829,0.003860,0.001692,-0.015656,-0.003937,0.073768,0.234428,-0.969331
1760474599.376842,-0.124115,-0.000920,0.301905,0.945224,-0.039571,-0.029040,0.001294,0.003200,-0.015036,-0.003271,0.073203,0.235188,-0.969189
1760474599.377584,-0.124398,-0.001310,0.301960,0.945169,-0.041169,-0.028040,0.002631,0.004049,-0.015110,-0.002594,0.072650,0.235945,-0.969047
1760474599.378794,-0.124700,-0.001716,0.302014,0.945111,-0.047262,-0.029397,0.002561,0.003479,-0.014227,-0.002590,0.072079,0.236748,-0.968894
1760474599.441938,-0.125116,-0.002135,0.302033,0.945049,-0.052005,-0.027619,-0.002169,0.002776,-0.010996,-0.002147,0.071543,0.237770,-0.968683
1760474599.442127,-0.125531,-0.002554,0.302052,0.944987,-0.056748,-0.025841,-0.006899,0.002073,-0.007765,-0.001705,0.071006,0.238792,-0.968471
1760474599.442642,-0.125976,-0.002970,0.301996,0.944944,-0.056153,-0.024181,-0.012593,0.001769,-0.006364,-0.001514,0.070476,0.239875,-0.968242
1760474599.501843,-0.126413,-0.003338,0.301857,0.944929,-0.055180,-0.019732,-0.014993,0.002596,-0.004614,-0.000136,0.070008,0.240917,-0.968017
1760474599.502141,-0.126849,-0.003706,0.301718,0.944914,-0.054207,-0.015284,-0.017394,0.003424,-0.002863,0.001240,0.069541,0.241959,-0.967791
1760474599.502535,-0.127323,-0.004012,0.301548,0.944903,-0.056845,-0.009357,-0.021381,0.003141,0.000193,0.002617,0.069206,0.243035,-0.967546
1760474599.567811,-0.127846,-0.004324,0.301273,0.944919,-0.056235,-0.007026,-0.023152,0.003483,-0.001034,0.003298,0.068862,0.244213,-0.967274
1760474599.568167,-0.128368,-0.004635,0.300998,0.944934,-0.055626,-0.004694,-0.024924,0.003826,-0.002260,0.003976,0.068518,0.245390,-0.967000
1760474599.568483,-0.128891,-0.004946,0.300723,0.944949,-0.055016,-0.002362,-0.026696,0.004170,-0.003485,0.004654,0.068173,0.246566,-0.966725
1760474599.644406,-0.129384,-0.005134,0.300543,0.944938,-0.053818,-0.005106,-0.023633,0.004191,-0.001960,0.002999,0.068068,0.247605,-0.966467
1760474599.644778,-0.129876,-0.005322,0.300362,0.944927,-0.052620,-0.007850,-0.020570,0.004212,-0.000434,0.001343,0.067963,0.248644,-0.966208
1760474599.645164,-0.130369,-0.005509,0.300182,0.944915,-0.051421,-0.010594,-0.017507,0.004234,0.001093,-0.000313,0.067857,0.249683,-0.965947
1760474599.691747,-0.130813,-0.005783,0.300020,0.944903,-0.046681,-0.017219,-0.016628,0.005069,0.002859,-0.001177,0.067564,0.250682,-0.965709
1760474599.692505,-0.131185,-0.006118,0.299887,0.944892,-0.044796,-0.017604,-0.014476,0.005176,0.003274,0.000192,0.067119,0.251582,-0.965506
1760474599.692989,-0.131558,-0.006453,0.299753,0.944880,-0.042910,-0.017989,-0.012324,0.005283,0.003689,0.001561,0.066674,0.252481,-0.965302
1760474599.693731,-0.131907,-0.006771,0.299673,0.944855,-0.040225,-0.015753,-0.010189,0.004445,0.004874,0.002617,0.066262,0.253324,-0.965110
1760474599.738878,-0.132250,-0.007042,0.299615,0.944823,-0.038391,-0.014611,-0.004394,0.002453,0.004796,0.003322,0.065942,0.254126,-0.964921
1760474599.739909,-0.132578,-0.007286,0.299578,0.944787,-0.039163,-0.013774,-0.002726,0.001684,0.006539,0.003510,0.065668,0.254881,-0.964740
1760474599.798900,-0.132926,-0.007516,0.299551,0.944745,-0.040089,-0.012153,-0.003866,0.002189,0.007200,0.003439,0.065435,0.255666,-0.964548
1760474599.799513,-0.133275,-0.007746,0.299523,0.944703,-0.041015,-0.010533,-0.005005,0.002694,0.007861,0.003367,0.065202,0.256451,-0.964356
1760474599.799807,-0.133624,-0.007975,0.299461,0.944671,-0.037866,-0.009622,-0.006862,0.002400,0.007508,0.003015,0.064962,0.257239,-0.964162
1760474599.850595,-0.133931,-0.008171,0.299401,0.944645,-0.032256,-0.008900,-0.005937,0.001883,0.006161,0.002527,0.064762,0.257927,-0.963991
1760474599.850869,-0.134238,-0.008366,0.299341,0.944619,-0.026647,-0.008178,-0.005013,0.001367,0.004815,0.002038,0.064561,0.258615,-0.963821
1760474599.851215,-0.134475,-0.008548,0.299298,0.944597,-0.023155,-0.011079,-0.002967,0.001609,0.004448,0.000906,0.064348,0.259167,-0.963687
1760474599.926878,-0.134661,-0.008695,0.299324,0.944561,-0.022435,-0.009094,-0.000423,0.001766,0.004423,0.001475,0.064188,0.259597,-0.963582
1760474599.927205,-0.134847,-0.008843,0.299350,0.944525,-0.021715,-0.007108,0.002121,0.001924,0.004399,0.002044,0.064028,0.260027,-0.963476
1760474599.927476,-0.135032,-0.008991,0.299376,0.944489,-0.020995,-0.005123,0.004664,0.002082,0.004375,0.002613,0.063867,0.260457,-0.963371
1760474599.932691,-0.135249,-0.009115,0.299425,0.944441,-0.022031,-0.003900,0.006670,0.002140,0.004366,0.002824,0.063776,0.260928,-0.963249
1760474599.996826,-0.135477,-0.009207,0.299501,0.944383,-0.024656,-0.003854,0.006956,0.002421,0.005021,0.003343,0.063761,0.261400,-0.963122
1760474599.997070,-0.135706,-0.009299,0.299577,0.944326,-0.027281,-0.003808,0.007242,0.002702,0.005675,0.003862,0.063747,0.261873,-0.962995
1760474600.014509,-0.135972,-0.009394,0.299655,0.944262,-0.029261,-0.005068,0.006669,0.003403,0.005180,0.002199,0.063750,0.262417,-0.962847
1760474600.014841,-0.136274,-0.009510,0.299733,0.944192,-0.030267,-0.003744,0.008223,0.003717,0.005490,0.002920,0.063732,0.263040,-0.962678
1760474600.052695,-0.136575,-0.009628,0.299824,0.944119,-0.028727,-0.005466,0.007690,0.004223,0.005264,0.000868,0.063718,0.263659,-0.962509
1760474600.054000,-0.136841,-0.009754,0.299909,0.944052,-0.023148,-0.004397,0.008465,0.003260,0.002434,-0.000001,0.063664,0.264220,-0.962359
1760474600.084304,-0.137037,-0.009871,0.299983,0.943999,-0.019275,-0.006237,0.007639,0.003371,0.002542,0.000485,0.063581,0.264648,-0.962247
1760474600.114294,-0.137180,-0.009970,0.300081,0.943946,-0.013750,-0.007395,0.006736,0.003547,0.002624,0.001550,0.063507,0.264964,-0.962165
1760474600.115085,-0.137275,-0.010066,0.300150,0.943909,-0.007241,-0.002412,0.003603,0.002627,0.000886,0.000771,0.063403,0.265194,-0.962108
1760474600.145411,-0.137314,-0.010074,0.300213,0.943883,-0.002592,0.000101,0.002119,0.002879,-0.000487,0.002311,0.063429,0.265265,-0.962087
1760474600.151274,-0.137304,-0.010056,0.300236,0.943878,0.003856,0.002578,0.000788,0.003574,-0.000748,0.002729,0.063464,0.265234,-0.962093
1760474600.180679,-0.137267,-0.009976,0.300259,0.943876,0.004362,0.003832,-0.000362,0.003883,-0.001297,0.002413,0.063599,0.265116,-0.962117
1760474600.219838,-0.137253,-0.009929,0.300228,0.943889,0.004121,0.003139,-0.005329,0.003949,-0.000021,0.000830,0.063670,0.265066,-0.962126
1760474600.221955,-0.137254,-0.009888,0.300151,0.943914,-0.002702,0.000665,-0.009596,0.003829,0.000352,-0.000612,0.063727,0.265048,-0.962127
1760474600.250164,-0.137309,-0.009931,0.300029,0.943944,-0.007254,-0.001906,-0.011492,0.004306,-0.000836,-0.000622,0.063644,0.265184,-0.962095
1760474600.252332,-0.137395,-0.009971,0.299905,0.943971,-0.007707,0.001578,-0.014383,0.003912,-0.004386,0.002480,0.063587,0.265374,-0.962047
1760474600.281839,-0.137466,-0.009987,0.299782,0.943999,-0.004283,-0.006100,-0.011582,0.002648,-0.009384,-0.002393,0.063565,0.265524,-0.962007
1760474600.312264,-0.137507,-0.010039,0.299701,0.944018,-0.004743,-0.001030,-0.005053,0.004335,-0.008770,-0.000029,0.063467,0.265636,-0.961982
1760474600.314325,-0.137591,-0.010016,0.299658,0.944020,-0.009309,0.008152,-0.005614,0.004799,-0.005076,0.002966,0.063550,0.265781,-0.961937
1760474600.342998,-0.137704,-0.009957,0.299571,0.944032,-0.009583,0.010365,-0.008850,0.003791,-0.003807,0.001632,0.063706,0.265959,-0.961877
1760474600.373946,-0.137840,-0.009894,0.299456,0.944049,-0.008127,0.005456,-0.011753,0.004961,-0.002922,-0.001961,0.063874,0.266181,-0.961804
1760474600.375601,-0.137958,-0.009894,0.299307,0.944079,-0.015149,0.002507,-0.016325,0.006171,-0.001860,-0.000764,0.063902,0.266410,-0.961739
1760474600.404141,-0.138135,-0.009968,0.299128,0.944109,-0.022035,0.002084,-0.018956,0.007554,-0.001717,0.000927,0.063819,0.266792,-0.961639
1760474600.444052,-0.138423,-0.010091,0.298933,0.944127,-0.029542,-0.001310,-0.017113,0.006304,-0.002187,-0.000855,0.063704,0.267412,-0.961474
1760474600.444320,-0.138712,-0.010214,0.298738,0.944145,-0.037049,-0.004703,-0.015271,0.005054,-0.002656,-0.002636,0.063589,0.268031,-0.961309
1760474600.473069,-0.139060,-0.010419,0.298608,0.944133,-0.040995,-0.010457,-0.008215,0.004501,-0.003900,-0.002064,0.063376,0.268805,-0.961107
1760474600.474853,-0.139395,-0.010651,0.298569,0.944093,-0.038582,-0.010924,-0.000762,0.004330,-0.003213,0.000064,0.063128,0.269565,-0.960911
1760474600.504011,-0.139711,-0.010883,0.298572,0.944043,-0.035974,-0.010417,0.005057,0.005606,-0.002578,0.000437,0.062880,0.270285,-0.960725
1760474600.512066,-0.140027,-0.011087,0.298628,0.943976,-0.034058,-0.010933,0.003471,0.005989,-0.000274,0.000431,0.062699,0.270985,-0.960539
1760474600.544270,-0.140311,-0.011288,0.298659,0.943922,-0.034564,-0.011421,0.005257,0.005190,0.000588,0.000045,0.062501,0.271628,-0.960371
1760474600.559266,-0.140626,-0.011477,0.298695,0.943861,-0.036125,-0.008815,0.002738,0.004539,0.000141,0.000555,0.062343,0.272320,-0.960185
1760474600.590040,-0.140941,-0.011648,0.298718,0.943805,-0.035359,-0.006652,0.002845,0.004729,-0.002548,0.002313,0.062217,0.272999,-0.960000
1760474600.590297,-0.141224,-0.011839,0.298740,0.943753,-0.030724,-0.014334,0.003643,0.003773,-0.006828,-0.001047,0.062033,0.273636,-0.959831
1760474600.617820,-0.141488,-0.012092,0.298791,0.943694,-0.035094,-0.012750,0.005571,0.004622,-0.004858,0.001416,0.061728,0.274269,-0.959670
1760474600.650206,-0.141804,-0.012265,0.298876,0.943618,-0.036486,-0.005902,0.007878,0.004753,-0.003841,0.002554,0.061616,0.274949,-0.959482
1760474600.650453,-0.142164,-0.012393,0.298968,0.943533,-0.038557,-0.002557,0.010750,0.004142,-0.002700,0.000790,0.061619,0.275683,-0.959271
1760474600.679806,-0.142553,-0.012517,0.299046,0.943448,-0.043196,-0.005300,0.008041,0.003501,-0.001477,-0.000679,0.061642,0.276469,-0.959044
1760474600.711665,-0.142942,-0.012668,0.299076,0.943377,-0.043258,-0.005611,0.005067,0.004562,0.000335,-0.000236,0.061600,0.277274,-0.958814
1760474600.711835,-0.143358,-0.012850,0.299092,0.943306,-0.042576,-0.009901,0.000176,0.003958,0.000486,-0.001054,0.061513,0.278148,-0.958567
1760474600.741434,-0.143726,-0.013085,0.299078,0.943252,-0.044493,-0.009371,-0.000739,0.003024,0.000816,-0.000602,0.061286,0.278966,-0.958343
1760474600.776504,-0.144096,-0.013297,0.299072,0.943194,-0.042702,-0.009630,0.001968,0.002631,0.001958,0.000558,0.061106,0.279775,-0.958119
1760474600.777537,-0.144477,-0.013520,0.299082,0.943130,-0.040872,-0.009215,0.002344,0.002541,0.002219,0.000822,0.060919,0.280608,-0.957887
1760474600.808056,-0.144874,-0.013709,0.299110,0.943057,-0.040817,-0.006968,0.004562,0.001807,0.002039,0.001003,0.060810,0.281450,-0.957647
1760474600.808765,-0.145240,-0.013872,0.299175,0.942978,-0.040477,-0.006367,0.007192,0.002574,0.003455,-0.000271,0.060742,0.282216,-0.957426
1760474600.839918,-0.145626,-0.014054,0.299247,0.942893,-0.040554,-0.007434,0.004526,0.003703,0.004653,0.002024,0.060653,0.283031,-0.957191
1760474600.870022,-0.145983,-0.014245,0.299276,0.942826,-0.036725,-0.005218,0.002139,0.003215,0.004664,0.002633,0.060517,0.283799,-0.956972
1760474600.871064,-0.146342,-0.014430,0.299264,0.942771,-0.036086,-0.005969,-0.001623,0.002384,0.004422,0.002883,0.060381,0.284570,-0.956752
1760474600.900916,-0.146683,-0.014605,0.299260,0.942717,-0.032865,-0.003924,0.000403,0.001189,0.002277,0.002634,0.060256,0.285302,-0.956542
1760474600.927564,-0.146998,-0.014698,0.299260,0.942666,-0.033521,-0.005126,-0.000048,0.000860,0.002409,0.003136,0.060270,0.285936,-0.956351
1760474600.927853,-0.147335,-0.014801,0.299258,0.942612,-0.034543,-0.002110,0.000977,0.002763,0.003683,0.002301,0.060280,0.286619,-0.956147
1760474600.955384,-0.147687,-0.014922,0.299272,0.942551,-0.034394,-0.001430,0.003398,0.002375,0.003674,0.002270,0.060268,0.287337,-0.955932
1760474600.986122,-0.148024,-0.015037,0.299306,0.942486,-0.034711,-0.001416,0.001603,0.003336,0.002225,0.000454,0.060265,0.288022,-0.955726
1760474600.988078,-0.148362,-0.015096,0.299344,0.942419,-0.031398,-0.000292,0.003020,0.003414,0.002534,0.000692,0.060369,0.288677,-0.955521
1760474601.028583,-0.148658,-0.015157,0.299368,0.942364,-0.028317,0.001952,0.001618,0.003427,0.002588,0.000734,0.060440,0.289254,-0.955342
1760474601.029881,-0.148909,-0.015223,0.299344,0.942331,-0.024005,0.001163,0.000857,0.003301,0.000728,0.001439,0.060460,0.289758,-0.955188
1760474601.059208,-0.149161,-0.015259,0.299360,0.942285,-0.022682,0.004909,0.001621,0.003953,0.001257,0.001999,0.060549,0.290240,-0.955036
1760474601.066792,-0.149447,-0.015260,0.299381,0.942233,-0.027591,0.009959,0.001123,0.003188,0.001666,0.002797,0.060726,0.290765,-0.954866
1760474601.097444,-0.149792,-0.015235,0.299383,0.942178,-0.033765,0.011412,0.001844,0.002616,0.002200,0.001181,0.060982,0.291383,-0.954661
1760474601.127540,-0.150195,-0.015242,0.299363,0.942121,-0.040657,0.010892,-0.003083,0.004291,0.001623,-0.000496,0.061205,0.292129,-0.954419
1760474601.128633,-0.150615,-0.015246,0.299304,0.942072,-0.037196,0.008542,-0.003163,0.006387,0.001531,-0.000421,0.061433,0.292906,-0.954165
1760474601.158858,-0.151002,-0.015280,0.299243,0.942029,-0.034733,0.006355,-0.005809,0.005607,0.001791,-0.000865,0.061585,0.293642,-0.953930
1760474601.165701,-0.151320,-0.015321,0.299184,0.941996,-0.030087,0.004961,-0.004334,0.006763,0.001611,0.000721,0.061681,0.294253,-0.953735
1760474601.195831,-0.151644,-0.015322,0.299143,0.941957,-0.029120,0.004900,-0.001752,0.006729,0.001528,-0.000270,0.061861,0.294851,-0.953539
1760474601.224132,-0.151886,-0.015362,0.299091,0.941934,-0.025844,0.000807,-0.001713,0.007247,0.002335,-0.001130,0.061915,0.295324,-0.953389
1760474601.226034,-0.152149,-0.015435,0.299036,0.941908,-0.023832,0.000865,-0.001985,0.006480,0.003443,0.001328,0.061919,0.295853,-0.953225
1760474601.255209,-0.152355,-0.015482,0.299036,0.941873,-0.019182,-0.000257,-0.000139,0.006393,0.003568,0.001606,0.061955,0.296258,-0.953097
1760474601.285061,-0.152543,-0.015508,0.299026,0.941846,-0.013546,0.000030,-0.002007,0.007840,0.004069,0.000130,0.062017,0.296619,-0.952980
1760474601.287167,-0.152665,-0.015587,0.298983,0.941838,-0.012182,-0.002311,-0.002200,0.006867,0.004406,-0.000495,0.061928,0.296892,-0.952901
1760474601.316470,-0.152791,-0.015689,0.298954,0.941825,-0.014552,-0.008665,-0.006623,0.006376,0.005631,-0.000553,0.061802,0.297186,-0.952818
1760474601.347461,-0.152889,-0.015818,0.298892,0.941827,-0.009147,-0.008698,-0.006630,0.006662,0.004511,0.004579,0.061599,0.297447,-0.952749
1760474601.349480,-0.152884,-0.015924,0.298833,0.941845,0.002755,-0.014280,-0.006820,0.004153,-0.001793,0.000551,0.061378,0.297504,-0.952746
1760474601.380099,-0.152806,-0.016111,0.298795,0.941866,0.001705,-0.019435,-0.004997,0.003056,-0.000558,-0.001661,0.060966,0.297474,-0.952781
1760474601.381428,-0.152779,-0.016257,0.298829,0.941857,-0.003593,-0.006599,0.001812,0.005807,0.002509,0.003477,0.060686,0.297509,-0.952788
1760474601.413791,-0.152831,-0.016306,0.298810,0.941854,-0.009814,-0.002225,-0.002273,0.005616,0.006694,0.003676,0.060618,0.297634,-0.952754
1760474601.444631,-0.152930,-0.016370,0.298747,0.941857,-0.008242,-0.002688,-0.004105,0.003783,0.005652,0.002046,0.060539,0.297857,-0.952689
1760474601.446500,-0.152972,-0.016457,0.298704,0.941862,-0.004238,-0.004176,-0.007398,0.006026,0.006372,0.005559,0.060386,0.297989,-0.952658
1760474601.475572,-0.153012,-0.016572,0.298567,0.941897,-0.004816,-0.007282,-0.018019,0.005970,0.009146,0.004272,0.060150,0.298140,-0.952625
1760474601.482988,-0.153041,-0.016669,0.298408,0.941941,-0.004215,-0.008609,-0.017142,0.006830,0.005335,0.001581,0.059934,0.298260,-0.952601
1760474601.513374,-0.153052,-0.016810,0.298230,0.941993,-0.004680,-0.014475,-0.019466,0.005674,0.004103,-0.001675,0.059619,0.298374,-0.952585
1760474601.543420,-0.153036,-0.017035,0.298129,0.942024,-0.002385,-0.018153,-0.012864,0.003180,0.001824,-0.002646,0.059153,0.298484,-0.952580
1760474601.543750,-0.152987,-0.017261,0.298089,0.942040,0.001754,-0.018318,-0.000939,0.003068,0.000317,0.000172,0.058686,0.298530,-0.952594
1760474601.571475,-0.152919,-0.017383,0.298170,0.942023,0.006464,-0.015336,0.008090,0.001139,0.000373,0.001200,0.058442,0.298473,-0.952627
1760474601.602179,-0.152807,-0.017481,0.298294,0.942001,0.009928,-0.012716,0.008902,0.001582,0.003432,0.003780,0.058228,0.298317,-0.952689
1760474601.633795,-0.152670,-0.017539,0.298380,0.941994,0.009365,-0.005621,0.007236,0.003735,0.003424,0.004152,0.058065,0.298096,-0.952768
1760474601.666203,-0.152567,-0.017536,0.298426,0.941997,0.008984,-0.002812,0.004337,0.004665,0.003004,0.002621,0.058022,0.297902,-0.952831
1760474601.668211,-0.152456,-0.017540,0.298422,0.942016,0.010294,-0.004585,-0.000714,0.003184,0.001412,0.000106,0.057947,0.297701,-0.952899
1760474601.700230,-0.152338,-0.017580,0.298394,0.942043,0.007504,-0.005135,-0.004131,0.003018,0.000811,-0.000531,0.057791,0.297510,-0.952968
1760474601.700550,-0.152253,-0.017608,0.298372,0.942063,0.005991,-0.003233,-0.002346,0.003731,0.000036,-0.000232,0.057681,0.297371,-0.953018
1760474601.728925,-0.152191,-0.017576,0.298382,0.942071,0.007817,0.000049,-0.000549,0.004247,-0.000663,0.000264,0.057706,0.297239,-0.953058
1760474601.759681,-0.152093,-0.017541,0.298402,0.942081,0.009609,-0.001028,0.000329,0.003045,-0.001864,-0.000303,0.057719,0.297037,-0.953120
1760474601.761812,-0.151950,-0.017512,0.298417,0.942100,0.015034,-0.002286,0.000817,0.004094,-0.002654,-0.000822,0.057693,0.296757,-0.953209
1760474601.790234,-0.151776,-0.017510,0.298420,0.942127,0.017202,-0.006062,-0.001606,0.004015,-0.002484,-0.000288,0.057593,0.296435,-0.953315
1760474601.820337,-0.151580,-0.017510,0.298408,0.942162,0.016063,-0.004849,-0.003322,0.004510,-0.002601,-0.000464,0.057471,0.296075,-0.953434
1760474601.821366,-0.151412,-0.017509,0.298386,0.942196,0.013728,-0.005615,-0.004538,0.004689,-0.002299,-0.000194,0.057365,0.295768,-0.953536
1760474601.851565,-0.151248,-0.017532,0.298350,0.942234,0.012485,-0.005265,-0.004410,0.004776,-0.002153,-0.000064,0.057212,0.295483,-0.953633
1760474601.888109,-0.151124,-0.017534,0.298325,0.942261,0.008555,-0.004683,-0.003858,0.003379,-0.002564,0.000243,0.057125,0.295258,-0.953708
1760474601.888732,-0.151037,-0.017543,0.298304,0.942282,0.004413,-0.004394,-0.003983,0.002653,-0.002397,0.000749,0.057049,0.295105,-0.953760
1760474601.918787,-0.150991,-0.017567,0.298263,0.942302,0.000434,-0.001084,-0.003153,0.002730,-0.001793,0.001268,0.056964,0.295037,-0.953786
1760474601.920164,-0.150996,-0.017555,0.298222,0.942314,-0.002179,-0.001301,-0.004043,0.002797,-0.000722,-0.000014,0.056977,0.295042,-0.953784
1760474601.956108,-0.151031,-0.017602,0.298169,0.942324,-0.004384,-0.001728,-0.004297,0.003284,-0.000842,0.000832,0.056893,0.295137,-0.953759
1760474601.958466,-0.151073,-0.017666,0.298100,0.942338,-0.005644,-0.002001,-0.005872,0.004317,-0.000240,0.000699,0.056776,0.295257,-0.953729
1760474601.999397,-0.151136,-0.017724,0.298044,0.942345,-0.006764,-0.002311,-0.003519,0.003503,-0.000783,0.001252,0.056686,0.295409,-0.953688
1760474601.999917,-0.151202,-0.017785,0.298016,0.942342,-0.007061,-0.002382,-0.000956,0.003760,-0.000039,0.000610,0.056602,0.295567,-0.953644
1760474602.031220,-0.151267,-0.017816,0.298022,0.942329,-0.006972,-0.002341,0.001706,0.003993,0.000343,0.001048,0.056585,0.295706,-0.953602
1760474602.060551,-0.151333,-0.017833,0.298044,0.942311,-0.006537,0.000177,0.003507,0.003811,0.000819,0.000142,0.056599,0.295835,-0.953561
1760474602.062226,-0.151398,-0.017844,0.298073,0.942291,-0.004970,-0.000584,0.001938,0.003728,0.001038,-0.000274,0.056628,0.295960,-0.953520
1760474602.091822,-0.151428,-0.017849,0.298087,0.942282,-0.001902,-0.000944,0.001623,0.003304,0.001008,0.000365,0.056641,0.296017,-0.953502
1760474602.099292,-0.151417,-0.017839,0.298116,0.942275,0.001501,-0.000438,0.001138,0.004354,0.000611,0.000485,0.056662,0.295990,-0.953509
1760474602.129721,-0.151371,-0.017837,0.298131,0.942277,0.003400,-0.000892,0.001668,0.004767,0.000811,0.000915,0.056643,0.295903,-0.953537
1760474602.159727,-0.151338,-0.017829,0.298150,0.942277,0.002889,-0.000748,0.001327,0.005017,0.000520,0.000732,0.056642,0.295836,-0.953558
1760474602.159999,-0.151288,-0.017840,0.298171,0.942278,0.003862,-0.003515,0.002682,0.004950,0.000734,0.000272,0.056600,0.295749,-0.953587
1760474602.206440,-0.151216,-0.017839,0.298230,0.942271,0.004948,-0.004044,0.003939,0.005087,0.000325,0.000139,0.056577,0.295612,-0.953631
1760474602.206776,-0.151143,-0.017838,0.298289,0.942264,0.006034,-0.004572,0.005195,0.005224,-0.000083,0.000006,0.056553,0.295475,-0.953675
1760474602.237163,-0.151044,-0.017827,0.298341,0.942264,0.006815,-0.003069,0.004048,0.004772,-0.000435,0.000034,0.056530,0.295283,-0.953736
1760474602.238400,-0.150962,-0.017804,0.298399,0.942259,0.005764,-0.002051,0.002951,0.004572,-0.000590,0.000047,0.056543,0.295116,-0.953787
1760474602.267870,-0.150933,-0.017805,0.298435,0.942252,-0.000601,-0.001927,0.001810,0.004732,-0.001399,0.000051,0.056534,0.295062,-0.953804
1760474602.298342,-0.150940,-0.017823,0.298450,0.942246,-0.003376,-0.001873,0.001312,0.004596,-0.003061,-0.000247,0.056509,0.295084,-0.953799
1760474602.300440,-0.150993,-0.017840,0.298464,0.942232,-0.006666,-0.002546,0.001451,0.006677,-0.002653,0.000435,0.056513,0.295191,-0.953766
1760474602.333604,-0.151073,-0.017868,0.298490,0.942211,-0.010003,-0.000974,0.000912,0.006593,-0.003222,0.000517,0.056516,0.295352,-0.953715
1760474602.334856,-0.151186,-0.017952,0.298495,0.942189,-0.014243,-0.007093,-0.000962,0.006088,-0.001109,-0.001102,0.056428,0.295609,-0.953641
1760474602.365109,-0.151314,-0.018059,0.298493,0.942168,-0.017744,-0.007750,-0.000792,0.006301,-0.000487,0.000174,0.056302,0.295908,-0.953556
1760474602.394457,-0.151475,-0.018207,0.298496,0.942138,-0.020712,-0.011053,-0.001152,0.006402,-0.001061,-0.000865,0.056123,0.296291,-0.953447
1760474602.396078,-0.151634,-0.018403,0.298514,0.942103,-0.020704,-0.015418,0.000278,0.006365,-0.003446,-0.002406,0.055855,0.296697,-0.953337
1760474602.425452,-0.151775,-0.018652,0.298551,0.942064,-0.023396,-0.019851,0.001422,0.004292,-0.003009,-0.001583,0.055483,0.297101,-0.953233
1760474602.457350,-0.151974,-0.018867,0.298615,0.942007,-0.029251,-0.013036,0.005477,0.006456,-0.000115,0.003905,0.055219,0.297590,-0.953096
1760474602.458986,-0.152259,-0.019033,0.298675,0.941938,-0.032127,-0.006921,0.003768,0.005483,0.003467,0.003467,0.055097,0.298207,-0.952910
1760474602.490235,-0.152536,-0.019197,0.298679,0.941889,-0.028495,-0.009675,-0.000724,0.004820,0.002279,0.000150,0.054956,0.298812,-0.952728
1760474602.497363,-0.152773,-0.019374,0.298673,0.941849,-0.023659,-0.014010,-0.003751,0.004878,0.004060,0.001533,0.054762,0.299351,-0.952570
1760474602.526956,-0.152956,-0.019588,0.298617,0.941833,-0.019435,-0.013285,-0.008793,0.007445,0.003028,0.002629,0.054453,0.299816,-0.952442
1760474602.555287,-0.153089,-0.019787,0.298532,0.941834,-0.017152,-0.011056,-0.011021,0.007904,0.003726,0.001850,0.054133,0.300184,-0.952344
1760474602.557271,-0.153203,-0.019978,0.298435,0.941842,-0.014491,-0.010456,-0.009646,0.007000,0.002770,0.000082,0.053810,0.300510,-0.952259
1760474602.586469,-0.153319,-0.020140,0.298344,0.941848,-0.014532,-0.010585,-0.008908,0.005729,0.001644,-0.000026,0.053547,0.300824,-0.952175
1760474602.616468,-0.153438,-0.020306,0.298292,0.941842,-0.013255,-0.011978,-0.003654,0.005419,0.000819,0.000344,0.053287,0.301143,-0.952089
1760474602.617930,-0.153531,-0.020462,0.298280,0.941828,-0.011659,-0.010394,0.001556,0.005691,-0.000263,0.001319,0.053046,0.301406,-0.952019
1760474602.648619,-0.153618,-0.020591,0.298319,0.941798,-0.010777,-0.009689,0.005270,0.005530,0.000113,0.001703,0.052869,0.301639,-0.951955
1760474602.655424,-0.153708,-0.020687,0.298416,0.941751,-0.013100,-0.007625,0.009616,0.006099,0.000024,0.001338,0.052774,0.301855,-0.951892
1760474602.685459,-0.153814,-0.020794,0.298558,0.941686,-0.014707,-0.009753,0.008964,0.006120,0.000373,0.000776,0.052681,0.302106,-0.951818
1760474602.715254,-0.153918,-0.020970,0.298681,0.941626,-0.017951,-0.018665,0.007787,0.003035,-0.000523,-0.000647,0.052453,0.302392,-0.951739
1760474602.715519,-0.154067,-0.021169,0.298794,0.941561,-0.022647,-0.015067,0.008389,0.005793,0.000444,0.001622,0.052205,0.302777,-0.951631
1760474602.744976,-0.154257,-0.021320,0.298927,0.941485,-0.024400,-0.008237,0.011839,0.005909,-0.000863,0.001398,0.052079,0.303207,-0.951501
1760474602.782226,-0.154474,-0.021423,0.299079,0.941398,-0.022956,-0.007707,0.013796,0.005284,-0.000661,-0.001256,0.052064,0.303657,-0.951358
1760474602.782510,-0.154649,-0.021553,0.299241,0.941315,-0.020762,-0.012469,0.014520,0.004979,-0.000150,-0.001816,0.051979,0.304047,-0.951238
1760474602.810406,-0.154806,-0.021734,0.299407,0.941232,-0.018645,-0.014720,0.013726,0.006085,0.000906,-0.000924,0.051787,0.304431,-0.951126
1760474602.812247,-0.154921,-0.021944,0.299564,0.941158,-0.018330,-0.018483,0.012761,0.006698,0.000899,-0.000162,0.051513,0.304758,-0.951036
1760474602.841690,-0.155029,-0.022176,0.299730,0.941082,-0.017190,-0.018584,0.013082,0.005959,0.000109,0.000750,0.051194,0.305085,-0.950948
1760474602.873734,-0.155139,-0.022376,0.299898,0.941006,-0.015896,-0.016458,0.014753,0.004443,-0.000127,0.001719,0.050941,0.305394,-0.950862
1760474602.875634,-0.155269,-0.022546,0.300093,0.940919,-0.016686,-0.017997,0.019272,0.002756,0.000349,0.000409,0.050762,0.305722,-0.950767
1760474602.903985,-0.155356,-0.022690,0.300362,0.940815,-0.013140,-0.014457,0.035506,0.004388,-0.001098,0.001947,0.050632,0.305952,-0.950700
1760474602.933831,-0.155453,-0.022784,0.300722,0.940681,-0.012083,-0.011368,0.035715,0.005029,0.001258,0.000516,0.050631,0.306166,-0.950631
1760474602.935082,-0.155525,-0.022864,0.301076,0.940554,-0.009921,-0.013492,0.032013,0.004730,0.001434,-0.000331,0.050640,0.306328,-0.950578
1760474602.965197,-0.155563,-0.022962,0.301431,0.940432,-0.003811,-0.012446,0.033493,0.004627,0.001495,-0.000625,0.050594,0.306435,-0.950546
1760474602.971174,-0.155571,-0.023040,0.301760,0.940323,-0.004447,-0.012028,0.026108,0.003948,0.000337,0.001279,0.050560,0.306480,-0.950533
1760474603.000282,-0.155579,-0.023124,0.301989,0.940246,-0.006632,-0.010599,0.014545,0.004184,0.000100,0.000921,0.050482,0.306531,-0.950521
1760474603.033744,-0.155621,-0.023218,0.302129,0.940192,-0.009222,-0.007814,0.004277,0.003072,0.001562,0.000906,0.050377,0.306658,-0.950486
1760474603.035445,-0.155700,-0.023336,0.302133,0.940175,-0.014299,-0.010226,-0.005844,0.003388,0.001795,0.000340,0.050205,0.306871,-0.950426
1760474603.064118,-0.155820,-0.023476,0.302062,0.940174,-0.018085,-0.009766,-0.010827,0.003570,0.001409,-0.000308,0.049991,0.307178,-0.950338
1760474603.071785,-0.155989,-0.023614,0.301978,0.940170,-0.017166,-0.006927,-0.011041,0.004684,0.000649,0.000295,0.049809,0.307575,-0.950219
1760474603.101812,-0.156140,-0.023761,0.301878,0.940173,-0.017540,-0.006232,-0.007196,0.004207,0.000616,0.000134,0.049592,0.307942,-0.950112
1760474603.132484,-0.156297,-0.023899,0.301826,0.940160,-0.018026,-0.008119,-0.003885,0.004820,0.000860,0.000907,0.049412,0.308316,-0.950000
1760474603.132787,-0.156451,-0.024040,0.301816,0.940134,-0.018050,-0.007684,-0.000023,0.004167,0.001154,0.000793,0.049236,0.308681,-0.949890
1760474603.160233,-0.156604,-0.024203,0.301861,0.940090,-0.017172,-0.014283,0.010071,0.004669,0.000983,0.000180,0.049040,0.309056,-0.949779
1760474603.190937,-0.156711,-0.024349,0.302075,0.940000,-0.012840,-0.018032,0.025278,0.005050,0.000499,0.000459,0.048900,0.309327,-0.949697
1760474603.192438,-0.156787,-0.024464,0.302425,0.939872,-0.008399,-0.016140,0.037137,0.005022,0.000302,-0.000403,0.048846,0.309516,-0.949639
1760474603.223550,-0.156833,-0.024607,0.302832,0.939729,-0.007333,-0.015657,0.038858,0.003416,0.001742,0.001460,0.048741,0.309664,-0.949596
1760474603.252764,-0.156881,-0.024706,0.303228,0.939591,-0.008668,-0.012989,0.034592,0.003171,0.000725,0.000585,0.048715,0.309791,-0.949556
1760474603.254746,-0.156945,-0.024779,0.303566,0.939469,-0.009414,-0.011267,0.024436,0.002628,0.002319,0.001288,0.048728,0.309933,-0.949509
1760474603.283999,-0.157024,-0.024898,0.303759,0.939390,-0.011605,-0.008308,0.014667,0.003278,0.002029,0.000417,0.048617,0.310139,-0.949447
1760474603.314761,-0.157127,-0.024971,0.303853,0.939341,-0.013899,-0.006947,0.003066,0.002965,0.001775,0.001246,0.048573,0.310366,-0.949375
1760474603.316106,-0.157246,-0.025066,0.303860,0.939316,-0.014013,-0.005324,-0.003432,0.003693,0.000933,0.000395,0.048472,0.310641,-0.949291
1760474603.345399,-0.157371,-0.025167,0.303843,0.939298,-0.014072,-0.002778,-0.001352,0.002501,0.000750,0.000868,0.048354,0.310930,-0.949202
1760474603.351747,-0.157515,-0.025188,0.303832,0.939277,-0.013095,0.000375,0.000984,0.005200,0.001182,0.002031,0.048398,0.311207,-0.949109
1760474603.382034,-0.157673,-0.025202,0.303836,0.939248,-0.014154,0.000805,0.001858,0.005478,0.002206,0.001362,0.048471,0.311504,-0.949008
1760474603.411440,-0.157836,-0.025214,0.303845,0.939218,-0.015390,0.002740,0.000106,0.005318,0.002940,0.000681,0.048552,0.311806,-0.948904
1760474603.411757,-0.157976,-0.025244,0.303827,0.939199,-0.009535,0.002118,-0.002288,0.005204,0.002582,-0.001006,0.048576,0.312083,-0.948812
1760474603.448424,-0.158089,-0.025299,0.303774,0.939196,-0.009388,-0.002822,-0.002471,0.003500,0.003003,-0.001225,0.048526,0.312323,-0.948736
1760474603.485291,-0.158198,-0.025369,0.303719,0.939194,-0.005343,-0.004088,-0.006080,0.003574,0.000064,0.000038,0.048442,0.312567,-0.948660
1760474603.485625,-0.158307,-0.025439,0.303664,0.939191,-0.001299,-0.005355,-0.009690,0.003648,-0.002876,0.001300,0.048359,0.312811,-0.948584
1760474603.489631,-0.158290,-0.025518,0.303637,0.939200,0.001242,-0.009559,-0.000146,0.001938,-0.002557,-0.001842,0.048193,0.312829,-0.948586
1760474603.517769,-0.158314,-0.025582,0.303673,0.939183,-0.003315,0.001933,0.005585,0.004112,0.000031,0.003707,0.048099,0.312908,-0.948565
1760474603.557218,-0.158404,-0.025525,0.303707,0.939158,-0.005013,0.008999,0.002630,0.004851,0.001843,0.003925,0.048273,0.313038,-0.948513
1760474603.558450,-0.158496,-0.025451,0.303682,0.939153,-0.008013,0.006526,-0.002815,0.004843,0.002782,-0.000819,0.048460,0.313163,-0.948462
1760474603.588470,-0.158587,-0.025467,0.303611,0.939160,-0.010486,-0.001340,-0.009917,0.005249,0.002582,-0.000384,0.048463,0.313340,-0.948403
1760474603.590486,-0.158697,-0.025556,0.303484,0.939180,-0.010126,-0.003987,-0.017079,0.007958,0.002283,0.000408,0.048321,0.313601,-0.948324
1760474603.619106,-0.158793,-0.025631,0.303313,0.939217,-0.005818,-0.000935,-0.015223,0.006085,0.000253,0.001072,0.048181,0.313831,-0.948256
1760474603.649959,-0.158843,-0.025694,0.303196,0.939245,-0.004432,-0.003518,-0.009252,0.006761,0.000163,-0.001146,0.048055,0.313966,-0.948217
1760474603.651023,-0.158857,-0.025752,0.303139,0.939259,-0.002783,-0.005931,-0.003656,0.004565,-0.002920,-0.002221,0.047936,0.314029,-0.948202
1760474603.681119,-0.158892,-0.025856,0.303140,0.939250,-0.006268,-0.006599,0.003670,0.003819,-0.001962,-0.000842,0.047763,0.314155,-0.948169
1760474603.687063,-0.158948,-0.025955,0.303215,0.939214,-0.008640,-0.006134,0.006560,0.004203,-0.000424,0.000411,0.047636,0.314312,-0.948124
1760474603.715166,-0.159016,-0.026047,0.303274,0.939180,-0.013232,-0.006236,0.002230,0.004954,0.003020,0.000971,0.047525,0.314489,-0.948071
1760474603.745934,-0.159123,-0.026155,0.303296,0.939152,-0.014689,-0.005262,0.000254,0.005016,0.004276,0.001632,0.047396,0.314747,-0.947992
1760474603.748046,-0.159261,-0.026221,0.303294,0.939128,-0.016205,-0.001956,-0.001236,0.004644,0.003226,0.001889,0.047355,0.315038,-0.947897
1760474603.780995,-0.159389,-0.026317,0.303272,0.939111,-0.014680,-0.000705,0.000431,0.005095,0.002014,0.003042,0.047248,0.315331,-0.947805
1760474603.785768,-0.159537,-0.026327,0.303260,0.939089,-0.009732,-0.000096,-0.001125,0.003442,0.000613,0.000737,0.047315,0.315606,-0.947710
1760474603.814160,-0.159612,-0.026386,0.303288,0.939066,-0.005072,-0.009481,0.001925,0.002945,-0.003287,-0.002921,0.047260,0.315778,-0.947655
1760474603.845552,-0.159666,-0.026462,0.303355,0.939033,-0.008909,-0.004339,0.008634,0.006018,-0.000542,0.001533,0.047174,0.315918,-0.947613
1760474603.845861,-0.159750,-0.026511,0.303428,0.938994,-0.008342,0.001816,0.007032,0.004628,0.002321,0.000747,0.047158,0.316097,-0.947554
1760474603.876276,-0.159836,-0.026508,0.303534,0.938945,-0.006177,0.002336,0.007637,0.004756,0.001714,0.000612,0.047252,0.316246,-0.947500
1760474603.905306,-0.159886,-0.026502,0.303599,0.938915,-0.004442,0.001663,0.004036,0.004602,0.001556,-0.000557,0.047316,0.316331,-0.947468
1760474603.907248,-0.159930,-0.026496,0.303658,0.938889,-0.001686,-0.001310,0.002038,0.005897,0.000739,0.000276,0.047375,0.316404,-0.947441
1760474603.936532,-0.159913,-0.026541,0.303685,0.938882,0.001042,-0.003481,0.001460,0.004770,0.001409,-0.000621,0.047288,0.316399,-0.947447
1760474603.969598,-0.159884,-0.026570,0.303656,0.938895,0.002300,-0.003518,-0.003561,0.005154,0.000447,0.000410,0.047206,0.316365,-0.947462
1760474603.969938,-0.159880,-0.026574,0.303652,0.938897,0.000320,-0.000489,-0.000495,0.005112,0.000900,0.001147,0.047194,0.316360,-0.947465
1760474603.985673,-0.159906,-0.026552,0.303684,0.938883,-0.000549,0.003516,0.003481,0.006194,-0.000563,-0.000659,0.047263,0.316392,-0.947450
1760474604.014396,-0.159955,-0.026536,0.303703,0.938869,-0.003656,0.001790,0.003369,0.004365,-0.000150,-0.000629,0.047330,0.316472,-0.947420
1760474604.044179,-0.160019,-0.026537,0.303737,0.938847,-0.005094,-0.000058,0.004822,0.005114,0.000231,0.000434,0.047378,0.316587,-0.947380
1760474604.045149,-0.160048,-0.026572,0.303774,0.938829,-0.002213,-0.000546,0.000842,0.005022,0.000218,-0.000637,0.047344,0.316659,-0.947357
1760474604.075165,-0.160043,-0.026584,0.303814,0.938817,0.001950,-0.000622,0.001027,0.007310,-0.000956,-0.000437,0.047331,0.316655,-0.947359
1760474604.114318,-0.159980,-0.026568,0.303829,0.938823,0.003371,-0.000925,0.001535,0.006960,-0.000844,-0.000028,0.047329,0.316529,-0.947401
1760474604.114610,-0.159917,-0.026551,0.303845,0.938829,0.004791,-0.001229,0.002044,0.006610,-0.000733,0.000380,0.047326,0.316404,-0.947443
1760474604.135294,-0.159885,-0.026599,0.303865,0.938826,0.001831,-0.003612,0.001423,0.004729,-0.001336,-0.000530,0.047224,0.316373,-0.947459
1760474604.142500,-0.159872,-0.026611,0.303903,0.938816,-0.001609,-0.003573,0.005658,0.004305,-0.002803,0.000765,0.047205,0.316356,-0.947465
1760474604.171415,-0.159922,-0.026624,0.303976,0.938784,-0.003804,-0.002866,0.007575,0.004705,-0.001454,0.000740,0.047236,0.316450,-0.947432
1760474604.204820,-0.159988,-0.026655,0.304069,0.938741,-0.007674,0.001339,0.005513,0.005477,-0.000423,0.001224,0.047250,0.316584,-0.947387
1760474604.205130,-0.160065,-0.026679,0.304127,0.938709,-0.007839,-0.005046,0.004368,0.003982,0.001167,0.000775,0.047271,0.316736,-0.947335
1760474604.232729,-0.160093,-0.026718,0.304166,0.938690,-0.005640,-0.002041,0.001158,0.004585,-0.000524,0.001378,0.047230,0.316809,-0.947313
1760474604.263367,-0.160139,-0.026767,0.304185,0.938675,-0.003381,-0.001141,0.003220,0.003512,-0.002378,0.002992,0.047172,0.316921,-0.947278
1760474604.265452,-0.160194,-0.026782,0.304257,0.938642,-0.004075,0.001394,0.003346,0.004823,0.000732,0.000065,0.047202,0.317026,-0.947241
1760474604.293898,-0.160237,-0.026777,0.304315,0.938616,-0.003495,0.000344,0.004651,0.004745,-0.001235,0.000706,0.047259,0.317100,-0.947214
1760474604.325052,-0.160302,-0.026780,0.304352,0.938593,-0.005845,0.000901,0.003704,0.004322,-0.000069,0.000738,0.047305,0.317218,-0.947172
1760474604.339154,-0.160379,-0.026803,0.304406,0.938561,-0.009475,-0.000257,0.004267,0.005501,-0.000328,0.001247,0.047328,0.317369,-0.947120
1760474604.342982,-0.160485,-0.026774,0.304440,0.938533,-0.009597,-0.000296,0.004286,0.005691,0.001840,0.000451,0.047460,0.317542,-0.947056
1760474604.373264,-0.160545,-0.026841,0.304476,0.938509,-0.005792,-0.000450,0.002339,0.005228,0.000315,0.000581,0.047384,0.317691,-0.947010
1760474604.402672,-0.160629,-0.026801,0.304530,0.938478,-0.005940,0.000906,0.003647,0.004581,0.001511,-0.000760,0.047529,0.317817,-0.946960
1760474604.402993,-0.160683,-0.026785,0.304548,0.938464,-0.005074,-0.001679,0.003661,0.004894,0.000909,-0.000102,0.047597,0.317904,-0.946927
1760474604.461444,-0.160720,-0.026843,0.304604,0.938437,-0.003467,0.000293,0.004715,0.004896,0.000905,-0.000097,0.047530,0.318004,-0.946897
1760474604.463567,-0.160788,-0.026815,0.304640,0.938415,-0.003889,0.000156,0.001968,0.004896,0.000905,-0.000097,0.047639,0.318110,-0.946856
1760474604.495147,-0.160860,-0.026798,0.304656,0.938398,-0.004867,0.002039,-0.000086,0.004886,0.001636,0.001281,0.047720,0.318230,-0.946812
1760474604.527905,-0.160928,-0.026777,0.304652,0.938388,-0.006493,0.002596,-0.002331,0.005597,0.002240,0.000425,0.047800,0.318342,-0.946770
1760474604.528236,-0.160996,-0.026783,0.304618,0.938387,-0.003827,0.001067,-0.005308,0.005541,0.002032,-0.000266,0.047818,0.318471,-0.946726
1760474604.559627,-0.161046,-0.026787,0.304570,0.938394,-0.003936,-0.001649,-0.006459,0.004881,0.002091,-0.000876,0.047825,0.318566,-0.946693
1760474604.559933,-0.161102,-0.026839,0.304515,0.938401,-0.006644,-0.001628,-0.007401,0.004196,0.001998,-0.000396,0.047743,0.318702,-0.946652
1760474604.591143,-0.161145,-0.026866,0.304456,0.938412,-0.003558,-0.000151,-0.004294,0.003397,-0.000825,0.001128,0.047701,0.318801,-0.946621
1760474604.630103,-0.161164,-0.026891,0.304464,0.938405,-0.003903,0.001365,-0.000752,0.004084,0.000071,0.002339,0.047669,0.318850,-0.946606
1760474604.630411,-0.161184,-0.026915,0.304472,0.938399,-0.004248,0.002882,0.002791,0.004771,0.000966,0.003550,0.047637,0.318899,-0.946591
1760474604.669927,-0.161255,-0.026857,0.304464,0.938391,-0.004343,0.004875,-0.001436,0.005219,0.001581,0.001725,0.047789,0.318994,-0.946551
1760474604.670243,-0.161327,-0.026798,0.304456,0.938383,-0.004438,0.006869,-0.005663,0.005668,0.002195,-0.000100,0.047941,0.319090,-0.946511
1760474604.698876,-0.161407,-0.026777,0.304378,0.938395,-0.004726,0.003173,-0.011819,0.004974,0.002567,0.000260,0.048002,0.319228,-0.946462
1760474604.700159,-0.161482,-0.026799,0.304255,0.938421,-0.007247,0.002142,-0.014431,0.006536,0.002609,0.001620,0.047966,0.319383,-0.946411
1760474604.730985,-0.161575,-0.026823,0.304111,0.938451,-0.007361,0.001247,-0.016559,0.007027,0.001776,0.002348,0.047930,0.319574,-0.946348
1760474604.763801,-0.161656,-0.026866,0.303957,0.938486,-0.007718,0.000716,-0.013068,0.005726,0.001644,0.000691,0.047846,0.319755,-0.946291
1760474604.764930,-0.161729,-0.026903,0.303851,0.938506,-0.007141,-0.003163,-0.007633,0.005720,0.001011,-0.000899,0.047785,0.319917,-0.946240
1760474604.795912,-0.161807,-0.026964,0.303810,0.938505,-0.007175,-0.005094,-0.000546,0.005280,0.000954,-0.000471,0.047706,0.320097,-0.946183
1760474604.798378,-0.161858,-0.027028,0.303842,0.938484,-0.006455,-0.004193,0.004066,0.005820,0.001957,-0.000437,0.047628,0.320227,-0.946143
1760474604.827739,-0.161901,-0.027089,0.303887,0.938460,-0.004769,-0.005668,0.003844,0.005753,0.001926,0.000029,0.047555,0.320340,-0.946108
1760474604.857782,-0.161929,-0.027144,0.303950,0.938433,-0.001495,-0.003949,0.003239,0.005599,0.002656,0.000983,0.047492,0.320420,-0.946084
1760474604.861688,-0.161934,-0.027143,0.304022,0.938409,-0.000108,-0.002408,0.003700,0.005292,0.003703,0.001424,0.047521,0.320425,-0.946081
1760474604.892438,-0.161924,-0.027137,0.304067,0.938396,0.000055,-0.000274,0.003913,0.005502,0.003509,0.002367,0.047542,0.320401,-0.946088
1760474604.898856,-0.161901,-0.027117,0.304088,0.938394,0.004208,-0.001913,0.002751,0.005056,0.002049,0.000275,0.047571,0.320346,-0.946105
1760474604.930941,-0.161844,-0.027116,0.304122,0.938393,0.004365,-0.000044,0.003892,0.005145,0.001081,0.000444,0.047550,0.320239,-0.946143
1760474604.963512,-0.161809,-0.027074,0.304149,0.938391,0.003749,0.006986,0.005747,0.005742,0.001227,0.001562,0.047617,0.320149,-0.946170
1760474604.963847,-0.161817,-0.026968,0.304182,0.938382,0.003240,0.010082,0.005076,0.005032,0.001774,0.000645,0.047831,0.320098,-0.946176
1760474604.991858,-0.161817,-0.026873,0.304186,0.938384,0.004002,0.006957,0.001742,0.004090,0.001812,-0.000436,0.048010,0.320042,-0.946186
1760474605.006896,-0.161791,-0.026803,0.304178,0.938393,0.004702,0.004869,0.001012,0.004719,0.000960,0.000132,0.048123,0.319953,-0.946211
1760474605.036813,-0.161751,-0.026713,0.304188,0.938399,0.005376,0.003246,0.001449,0.004754,0.001315,0.000386,0.048271,0.319826,-0.946246
1760474605.041008,-0.161724,-0.026630,0.304204,0.938401,0.005719,0.005814,0.001471,0.005250,0.000813,0.002028,0.048415,0.319727,-0.946272
1760474605.069342,-0.161690,-0.026529,0.304201,0.938411,0.004345,0.008078,0.001658,0.004201,0.000170,0.001389,0.048583,0.319603,-0.946305
1760474605.099934,-0.161694,-0.026417,0.304188,0.938417,0.003012,0.010476,0.000199,0.003925,-0.000462,0.001495,0.048791,0.319545,-0.946314
1760474605.101898,-0.161696,-0.026282,0.304171,0.938426,0.002302,0.012303,0.000339,0.003804,-0.000738,0.001541,0.049039,0.319469,-0.946327
1760474605.130711,-0.161715,-0.026124,0.304174,0.938426,0.004451,0.013083,0.000821,0.004796,-0.000509,0.001383,0.049349,0.319407,-0.946332
1760474605.160223,-0.161723,-0.025969,0.304165,0.938432,0.003718,0.013703,-0.001135,0.004973,0.000341,0.001316,0.049641,0.319330,-0.946343
1760474605.161286,-0.161739,-0.025822,0.304138,0.938442,0.003907,0.012461,-0.001976,0.005400,0.000406,-0.000764,0.049916,0.319273,-0.946347
1760474605.191604,-0.161723,-0.025693,0.304116,0.938456,0.004735,0.010496,-0.000761,0.006329,-0.001002,-0.000077,0.050141,0.319167,-0.946371
1760474605.194941,-0.161710,-0.025557,0.304119,0.938461,0.004246,0.011066,0.004683,0.006313,-0.001736,0.001095,0.050391,0.319062,-0.946393
1760474605.236379,-0.161724,-0.025413,0.304165,0.938447,0.001909,0.010595,0.007340,0.005930,-0.001322,0.000796,0.050685,0.318998,-0.946399
1760474605.237433,-0.161745,-0.025304,0.304230,0.938425,-0.000140,0.010040,0.008636,0.006717,-0.000832,-0.000309,0.050924,0.318968,-0.946396
1760474605.267532,-0.161807,-0.025195,0.304289,0.938399,-0.003768,0.009742,0.007141,0.007168,-0.000587,0.000031,0.051186,0.319012,-0.946368
1760474605.298336,-0.161898,-0.025093,0.304333,0.938371,-0.006844,0.009097,0.003488,0.007097,0.000287,0.000173,0.051448,0.319115,-0.946318
1760474605.299678,-0.162005,-0.025028,0.304347,0.938350,-0.005945,0.009555,0.001615,0.006718,0.000098,0.000727,0.051642,0.319269,-0.946256
