timestamp,quat_x,quat_y,quat_z,quat_w,rot_x,rot_y,rot_z,acc_x,acc_y,acc_z,grav_x,grav_y,grav_z,pitch_rad
1760732785.305969,0.262028,0.456099,0.0,0.850479,-0.024456,-0.008796,0.01487,-1.17179,0.308605,-0.456999,0.775806,-0.445698,-0.44663,-0.8879914805538929
1760732785.306409,0.195708,0.164622,0.054276,0.965221,-0.021264,-0.010782,0.01546,-0.693632,0.258626,-0.035813,0.296549,-0.395673,-0.869196,-0.3010770522744162
1760732785.306551,0.108747,-0.144217,0.102828,0.978162,-0.018072,-0.012768,0.016049,-0.093681,0.046086,0.028363,-0.304501,-0.183085,-0.934751,0.30941444222197156
1760732785.334286,0.092764,-0.194338,0.110041,0.970319,-0.016549,0.008318,0.008335,-0.002529,0.000243,-0.001559,-0.397556,-0.137251,-0.907255,0.40885171710356816
1760732785.367628,0.092633,-0.194286,0.110081,0.970337,-0.018691,0.007788,0.006747,-0.001948,0.000637,0.000577,-0.397439,-0.136997,-0.907344,0.40872446529541573
1760732785.368039,0.092503,-0.194233,0.110121,0.970356,-0.020833,0.007258,0.005158,-0.001366,0.001031,0.002714,-0.397323,-0.136743,-0.907434,0.40859770785385835
1760732785.399687,0.092001,-0.194941,0.110162,0.970257,-0.028393,0.001387,-0.000705,0.001191,0.002107,0.003263,-0.398556,-0.135578,-0.907068,0.4099417154035469
1760732785.430293,0.091859,-0.194897,0.109979,0.9703,-0.027957,0.002193,-0.003003,0.000593,0.003544,0.003173,-0.398423,-0.135392,-0.907154,0.40979678619528676
1760732785.430701,0.091753,-0.194997,0.109912,0.970297,-0.027356,0.003994,-0.003001,0.000918,0.004941,-0.000212,-0.398579,-0.135191,-0.907115,0.40996705128900607
1760732785.461204,0.09162,-0.195069,0.10985,0.970303,-0.024542,0.005728,-0.003383,0.001795,0.005708,-0.001516,-0.398681,-0.134941,-0.907108,0.41007803355939054
1760732785.492495,0.091229,-0.194933,0.109781,0.970374,-0.020162,0.01546,0.001729,0.003081,0.004799,-0.002564,-0.398347,-0.134253,-0.907356,0.40971417651352326
1760732785.533615,0.0909,-0.194828,0.109782,0.970426,-0.01804,0.01189,-0.00052,0.003671,0.004193,-0.00205,-0.39809,-0.133647,-0.907559,0.4094337005148854
1760732785.533945,0.090571,-0.194722,0.109784,0.970478,-0.015918,0.008321,-0.002768,0.00426,0.003586,-0.001536,-0.397833,-0.13304,-0.907761,0.40915350460687017
1760732785.534253,0.090242,-0.194616,0.109786,0.97053,-0.013796,0.004752,-0.005016,0.00485,0.00298,-0.001022,-0.397576,-0.132433,-0.907962,0.4088735302807559
1760732785.56276,0.09,-0.19454,0.109763,0.97057,-0.011716,0.002543,-0.004655,0.005069,0.003153,-0.000542,-0.397387,-0.131997,-0.908108,0.4086676456383019
1760732785.563113,0.089759,-0.194464,0.10974,0.97061,-0.009637,0.000335,-0.004293,0.005288,0.003327,-6.2e-05,-0.397198,-0.13156,-0.908254,0.40846172924930507
1760732785.597403,0.089466,-0.194286,0.109703,0.970677,-0.003594,-0.00081,0.001644,0.004168,0.003703,0.001155,-0.396807,-0.131057,-0.908498,0.4080355596332228
1760732785.60429,0.089318,-0.194112,0.109775,0.970717,-0.002044,-0.000832,0.008879,0.002093,0.003063,0.000868,-0.396466,-0.130788,-0.908686,0.4076639416004655
1760732785.63415,0.089206,-0.194025,0.109867,0.970735,-0.003775,-0.001144,0.011671,0.002476,0.002401,0.00052,-0.396295,-0.130556,-0.908793,0.40747805672185805
1760732785.663919,0.089094,-0.193941,0.109961,0.970751,-0.003071,-0.000928,0.01196,0.002716,0.001463,0.001155,-0.396131,-0.130324,-0.908898,0.4072993572686026
1760732785.664244,0.088982,-0.193857,0.110056,0.970767,-0.002368,-0.000712,0.01225,0.002955,0.000525,0.00179,-0.395966,-0.130091,-0.909003,0.40711976992865107
1760732785.702602,0.088691,-0.193801,0.110245,0.970784,-0.010468,-0.000943,0.011081,0.002303,-0.000769,0.000392,-0.395832,-0.129468,-0.909151,0.4069735711087056
1760732785.704426,0.08841,-0.193715,0.110334,0.970816,-0.010125,-0.001006,0.008536,0.002514,-0.000841,0.001705,-0.395633,-0.128913,-0.909316,0.4067570662814442
1760732785.732849,0.088303,-0.193718,0.11037,0.970822,-0.007153,-0.00199,0.005206,0.001327,-0.000445,0.001583,-0.395623,-0.128691,-0.909352,0.40674609791220495
1760732785.763799,0.088275,-0.193719,0.110379,0.970823,-0.005507,-0.002537,0.004509,0.000867,-0.000646,0.001883,-0.395621,-0.128634,-0.909361,0.4067438947415197
1760732785.764155,0.088248,-0.193719,0.110388,0.970824,-0.003861,-0.003085,0.003813,0.000408,-0.000847,0.002183,-0.395618,-0.128578,-0.90937,0.40674071633573444
1760732785.794995,0.088234,-0.193745,0.110407,0.970818,-0.002791,-0.002962,0.003455,0.001065,-0.000356,0.000181,-0.395665,-0.128536,-0.909356,0.4067916918305072
1760732785.833107,0.088199,-0.193767,0.110409,0.970817,-0.005189,-0.00235,0.00213,0.001474,-0.00107,0.000835,-0.3957,-0.128463,-0.909351,0.40682983585215454
1760732785.833441,0.088164,-0.193788,0.110412,0.970815,-0.007587,-0.001739,0.000804,0.001884,-0.001785,0.001488,-0.395734,-0.128389,-0.909346,0.4068671146312763
1760732785.866241,0.088116,-0.193777,0.110382,0.970825,-0.009842,-0.001031,0.0002,0.001938,-0.001609,0.002585,-0.3957,-0.128312,-0.909372,0.40682996076964795
1760732785.86654,0.088069,-0.193766,0.110353,0.970835,-0.012097,-0.000323,-0.000403,0.001992,-0.001432,0.003682,-0.395666,-0.128235,-0.909398,0.40679280418194
1760732785.896416,0.087913,-0.193829,0.110266,0.970846,-0.012673,-0.00887,-0.004212,-3.9e-05,-0.001787,0.002465,-0.395743,-0.127956,-0.909403,0.40687695893491427
1760732785.927752,0.087856,-0.193903,0.110238,0.97084,-0.012708,-0.010148,-0.001103,-2.2e-05,-0.000998,0.001376,-0.395867,-0.127836,-0.909366,0.40701194937505086
1760732785.92807,0.087798,-0.193977,0.110211,0.970834,-0.012742,-0.011427,0.002006,-5e-06,-0.000208,0.000287,-0.395991,-0.127717,-0.909329,0.4071468791400635
1760732785.959274,0.087766,-0.194025,0.110242,0.970823,-0.001722,0.000257,0.010622,-0.000797,-0.000967,0.003423,-0.396079,-0.127631,-0.909303,0.407242616407479
1760732785.990143,0.087697,-0.194026,0.110495,0.970801,-0.008035,0.008368,0.022131,-0.001127,-0.001636,-0.002244,-0.396101,-0.127395,-0.909326,0.40726677655272936
1760732785.990447,0.087589,-0.193934,0.110648,0.970811,-0.010631,0.020862,0.021109,-1.2e-05,-0.000554,-0.002592,-0.395929,-0.127148,-0.909436,0.4070792549258381
1760732786.021132,0.087468,-0.193774,0.110772,0.97084,-0.014149,0.026623,0.019557,0.000992,-0.002863,0.00048,-0.395626,-0.126905,-0.909602,0.4067492313553461
1760732786.05229,0.087169,-0.193495,0.111049,0.970891,-0.016916,0.007079,0.015236,0.001983,-0.000677,0.01153,-0.395085,-0.126288,-0.909923,0.4061602301653019
1760732786.062014,0.08696,-0.193611,0.111117,0.970879,-0.02028,-0.000628,0.01369,0.002704,0.000561,0.006629,-0.395271,-0.125829,-0.909905,0.40636302791058515
1760732786.092042,0.086811,-0.193679,0.111177,0.970872,-0.020719,-0.000443,0.014184,0.002011,0.001671,0.004229,-0.395377,-0.1255,-0.909905,0.4064781869087386
1760732786.09235,0.086662,-0.193746,0.111238,0.970865,-0.021158,-0.000259,0.014679,0.001318,0.002781,0.001829,-0.395483,-0.125171,-0.909904,0.4065936918343545
1760732786.162355,0.086529,-0.193768,0.111388,0.970855,-0.017474,-0.000391,0.017074,0.000681,0.003282,0.000913,-0.395518,-0.124848,-0.909933,0.40663186256155837
1760732786.16271,0.086397,-0.19379,0.111539,0.970845,-0.01379,-0.000523,0.019468,4.4e-05,0.003783,-4e-06,-0.395553,-0.124525,-0.909962,0.4066699881055074
1760732786.163009,0.086264,-0.193812,0.111689,0.970835,-0.010106,-0.000655,0.021863,-0.000594,0.004284,-0.000921,-0.395588,-0.124202,-0.909991,0.40670806845185065
1760732786.190352,0.085994,-0.193864,0.112081,0.970804,-0.004642,-0.001395,0.024538,0.000342,0.002067,0.002048,-0.395684,-0.123509,-0.910044,0.40681243347524443
1760732786.220978,0.085894,-0.193924,0.112179,0.970789,-0.005303,-0.004142,0.018857,0.00038,0.002302,0.00228,-0.39579,-0.123261,-0.910031,0.4069280637739434
1760732786.221323,0.085794,-0.193984,0.112277,0.970775,-0.005963,-0.006889,0.013176,0.000419,0.002537,0.002513,-0.395895,-0.123013,-0.910019,0.4070423578906958
1760732786.223086,0.085623,-0.194172,0.112386,0.97074,-0.002657,-0.010646,0.006079,0.001037,0.003244,0.006128,-0.396225,-0.12259,-0.909932,0.4074019254279593
1760732786.26018,0.085587,-0.194237,0.112408,0.970727,-0.00412,-0.012521,0.005022,-0.000292,0.002946,0.003816,-0.396343,-0.122496,-0.909894,0.40753016049212165
1760732786.291404,0.085429,-0.194401,0.112436,0.970705,-0.01173,-0.001915,0.00389,0.000378,0.002789,-0.002879,-0.396622,-0.122137,-0.909821,0.4078339438693717
1760732786.32141,0.085348,-0.194379,0.112449,0.970715,-0.01102,-0.001178,0.001164,0.00029,0.002089,-0.001691,-0.396568,-0.121983,-0.909865,0.4077751978380763
1760732786.321747,0.085268,-0.194357,0.112461,0.970725,-0.01031,-0.00044,-0.001563,0.000202,0.001389,-0.000504,-0.396514,-0.121829,-0.909909,0.4077164409373504
1760732786.322457,0.0851,-0.194397,0.112445,0.970734,-0.008453,-0.006996,-0.002265,0.001857,0.001517,0.003473,-0.396554,-0.121501,-0.909936,0.4077597869857517
1760732786.353518,0.085055,-0.194481,0.112412,0.970725,-0.006531,-0.010582,-0.004453,0.002692,0.001718,0.003302,-0.396697,-0.121406,-0.909886,0.40791570025455753
1760732786.38294,0.085012,-0.194569,0.112378,0.970715,-0.00606,-0.010903,-0.003121,0.002055,0.002071,0.003101,-0.396848,-0.121315,-0.909832,0.4080803170476561
1760732786.38326,0.084969,-0.194656,0.112343,0.970705,-0.005588,-0.011224,-0.00179,0.001417,0.002425,0.002901,-0.396999,-0.121223,-0.909778,0.40824498337362136
1760732786.434957,0.084866,-0.194766,0.112339,0.970692,-0.003749,-0.002925,0.000302,7.9e-05,0.000479,0.000475,-0.397183,-0.120999,-0.909728,0.40844527342033005
1760732786.435278,0.084809,-0.194771,0.112359,0.970694,-0.003673,0.001279,0.003009,3.2e-05,0.000193,0.000191,-0.397185,-0.120879,-0.909743,0.40844748397060116
1760732786.44185,0.084683,-0.194773,0.112413,0.970698,-0.006268,0.002086,0.004488,0.000224,0.001353,0.00134,-0.39717,-0.120614,-0.909785,0.408431029320467
1760732786.481457,0.084637,-0.194771,0.112435,0.9707,-0.005609,0.000411,0.003294,0.000683,0.001213,0.001431,-0.397162,-0.120516,-0.909801,0.4084225010079776
1760732786.482484,0.084569,-0.194793,0.11244,0.970701,-0.00307,-0.003191,-0.001422,-0.000271,-0.000526,0.00072,-0.39719,-0.120376,-0.909807,0.40845313300901553
1760732786.512303,0.084545,-0.194842,0.112441,0.970693,0.000772,-0.007399,9.6e-05,0.000225,-0.000295,0.00212,-0.397277,-0.120319,-0.909777,0.4085477578194081
1760732786.541477,0.084565,-0.194919,0.112429,0.970678,0.005523,-0.007598,-0.001064,-0.00021,-0.000768,0.001741,-0.397422,-0.120342,-0.909711,0.4087056198304279
1760732786.541766,0.084585,-0.194996,0.112417,0.970662,0.010274,-0.007797,-0.002224,-0.000645,-0.00124,0.001363,-0.397567,-0.120364,-0.909644,0.4088639275845376
1760732786.5759,0.084821,-0.195071,0.112418,0.970626,0.013067,-0.007925,-0.001025,0.000622,-0.000138,0.002201,-0.397752,-0.120799,-0.909506,0.4090653391323766
1760732786.608999,0.084993,-0.195166,0.112472,0.970585,0.008498,-0.004295,0.002918,0.000382,-0.000858,0.0022,-0.39797,-0.121084,-0.909373,0.4093028483800755
1760732786.639675,0.08501,-0.19521,0.112513,0.97057,0.003882,-0.004739,0.004136,0.000343,-0.001093,0.001968,-0.398059,-0.12109,-0.909333,0.40939996117632915
1760732786.639986,0.085028,-0.195253,0.112554,0.970556,-0.000733,-0.005183,0.005355,0.000304,-0.001327,0.001735,-0.398149,-0.121096,-0.909293,0.4094979912814134
1760732786.641669,0.084972,-0.195346,0.112629,0.970533,-0.004871,-0.005581,0.006447,-3.9e-05,-0.002131,0.002178,-0.398321,-0.120933,-0.909239,0.4096856444174612
1760732786.670641,0.084937,-0.195371,0.112669,0.970526,-0.00413,-0.003925,0.004651,-1.1e-05,-0.00315,0.004127,-0.398365,-0.120843,-0.909232,0.40973349189270597
1760732786.735212,0.084896,-0.195426,0.11271,0.970514,-0.004465,-0.003169,0.004699,-0.000182,-0.002635,0.00338,-0.398464,-0.120732,-0.909203,0.40984157251214953
1760732786.735536,0.084854,-0.19548,0.112751,0.970502,-0.0048,-0.002413,0.004746,-0.000354,-0.002119,0.002633,-0.398562,-0.120621,-0.909175,0.40994833605759223
1760732786.735842,0.084812,-0.195534,0.112792,0.97049,-0.005134,-0.001657,0.004794,-0.000526,-0.001604,0.001886,-0.398661,-0.120509,-0.909146,0.4100564593294873
1760732786.741955,0.08474,-0.195585,0.112823,0.970483,-0.008834,7e-06,0.004234,-0.000948,-0.00185,0.002035,-0.398746,-0.120344,-0.909131,0.4101489786027023
1760732786.771856,0.084693,-0.195591,0.112839,0.970484,-0.010289,-0.000433,0.003131,-0.001135,-0.000857,0.001058,-0.39875,-0.120245,-0.909142,0.41015347674883873
1760732786.801318,0.084624,-0.195596,0.11283,0.97049,-0.009722,0.001294,0.000808,-0.000893,-0.001048,0.001209,-0.398743,-0.120115,-0.909162,0.41014594436310686
1760732786.801612,0.084555,-0.1956,0.11282,0.970496,-0.009155,0.003022,-0.001514,-0.000651,-0.001239,0.001359,-0.398737,-0.119985,-0.909182,0.41013932152116916
1760732786.83112,0.084383,-0.195581,0.112751,0.970523,-0.011547,0.001944,-0.00187,0.000866,0.000207,0.003358,-0.398661,-0.119688,-0.909255,0.410056241117068
1760732786.878328,0.084288,-0.195621,0.112705,0.970528,-0.011624,-0.00042,-0.001764,5.7e-05,4.8e-05,0.002844,-0.398711,-0.119513,-0.909256,0.4101107991479022
1760732786.87859,0.084193,-0.195661,0.112658,0.970534,-0.011701,-0.002783,-0.001658,-0.000753,-0.000111,0.002329,-0.398762,-0.119339,-0.909256,0.4101666046119271
1760732786.91116,0.084013,-0.195758,0.112591,0.970538,-0.00382,0.000214,0.001031,-0.000574,-0.000658,0.002081,-0.398899,-0.118995,-0.909241,0.41031599755787634
1760732786.911507,0.084016,-0.195737,0.112614,0.970539,0.001725,0.002909,0.00437,-0.001049,-0.001865,0.002506,-0.398864,-0.118996,-0.909257,0.4102775225710456
1760732786.9437,0.084039,-0.195717,0.11266,0.970536,0.001361,0.005486,0.00744,-0.001771,-0.00161,0.001503,-0.398837,-0.119028,-0.909264,0.4102483383694763
1760732786.944027,0.084063,-0.195698,0.112706,0.970532,0.000996,0.008063,0.010511,-0.002493,-0.001354,0.000501,-0.398811,-0.11906,-0.909272,0.4102196753184123
1760732786.973896,0.083912,-0.19543,0.112857,0.970582,-0.011696,0.029869,0.008551,0.000571,-0.001363,-0.002266,-0.398302,-0.118776,-0.909532,0.4096647757975985
1760732787.040312,0.083653,-0.195032,0.112936,0.970675,-0.014837,0.02533,0.002054,0.001374,-0.001197,0.007965,-0.397521,-0.118347,-0.909929,0.40881368232176446
1760732787.041053,0.083412,-0.195012,0.112925,0.970701,-0.017989,0.018777,0.003723,0.001913,5.2e-05,0.005246,-0.397436,-0.117892,-0.910025,0.4087211251164954
1760732787.041452,0.083171,-0.194992,0.112915,0.970727,-0.021141,0.012225,0.005392,0.002452,0.001301,0.002528,-0.397351,-0.117437,-0.910121,0.4086284748283918
1760732787.041806,0.082929,-0.194973,0.112904,0.970753,-0.024293,0.005672,0.007061,0.002992,0.00255,-0.000191,-0.397266,-0.116981,-0.910217,0.40853578217029707
1760732787.072442,0.082779,-0.194979,0.112959,0.970758,-0.020327,0.008536,0.011919,0.001153,0.004121,-0.001525,-0.397256,-0.116668,-0.910262,0.4085247027116885
1760732787.102,0.082662,-0.194951,0.113041,0.970764,-0.015738,0.008941,0.015917,-0.000349,0.003511,-0.001343,-0.397192,-0.116416,-0.910322,0.4084550398674183
1760732787.102594,0.082546,-0.194924,0.113124,0.97077,-0.011149,0.009346,0.019914,-0.001851,0.002901,-0.001162,-0.397128,-0.116165,-0.910382,0.4083852980242405
1760732787.13323,0.082279,-0.194815,0.11344,0.970777,-0.006185,0.005593,0.017406,0.000173,0.002445,0.001079,-0.396912,-0.11555,-0.910554,0.4081501317470164
1760732787.166392,0.08222,-0.194815,0.11353,0.970772,-0.005037,0.002411,0.012081,0.000594,0.001849,0.001271,-0.39691,-0.115398,-0.910574,0.4081480109589138
1760732787.166741,0.08216,-0.194815,0.11362,0.970767,-0.003889,-0.000771,0.006756,0.001015,0.001254,0.001463,-0.396909,-0.115246,-0.910594,0.40814679786504576
1760732787.198079,0.082003,-0.194876,0.113667,0.970762,-0.0037,-0.003717,0.002139,0.00041,0.001752,0.00347,-0.396999,-0.114908,-0.910598,0.40824465008499666
1760732787.229504,0.081983,-0.194995,0.113656,0.970741,0.00199,-0.012312,0.00092,-0.000782,0.002441,0.003255,-0.397215,-0.114844,-0.910512,0.4084799525547643
1760732787.261268,0.081968,-0.194994,0.113639,0.970744,0.000614,-0.004708,-0.000128,-0.000564,0.001417,0.001967,-0.397209,-0.114822,-0.910517,0.40847356919261374
1760732787.261772,0.081954,-0.194994,0.113623,0.970748,-0.000763,0.002897,-0.001177,-0.000345,0.000393,0.000679,-0.397203,-0.114801,-0.910522,0.40846713592089295
1760732787.262166,0.081939,-0.194993,0.113606,0.970751,-0.00214,0.010501,-0.002226,-0.000126,-0.000631,-0.000609,-0.397198,-0.114779,-0.910527,0.40846166985695986
1760732787.291665,0.081888,-0.194923,0.113564,0.970774,-0.002955,0.000979,-0.002743,0.001102,-0.001537,0.002765,-0.397052,-0.114717,-0.910599,0.40830238608747993
1760732787.33404,0.081847,-0.194957,0.113517,0.970776,-0.003876,-0.001945,-0.003982,0.000835,-0.001286,0.002556,-0.397101,-0.114648,-0.910586,0.40835590266922034
1760732787.334335,0.081806,-0.19499,0.113471,0.970779,-0.004798,-0.004868,-0.00522,0.000568,-0.001034,0.002346,-0.39715,-0.114579,-0.910573,0.4084094173492722
1760732787.370242,0.081703,-0.195036,0.113371,0.97079,-0.01024,-0.000565,-0.00268,0.000185,0.001338,0.001308,-0.397203,-0.114409,-0.910571,0.4084672693915778
1760732787.370564,0.081646,-0.195024,0.113364,0.970798,-0.010123,0.00588,0.001471,-0.000543,0.000655,0.00034,-0.397169,-0.114307,-0.910599,0.4084300800203036
1760732787.410178,0.081533,-0.194973,0.113378,0.970816,-0.010704,0.005655,0.002856,3.8e-05,0.000272,0.000266,-0.397053,-0.114096,-0.910676,0.4083037050684032
1760732787.410515,0.08142,-0.194921,0.113393,0.970834,-0.011286,0.005429,0.004242,0.000618,-0.00011,0.000193,-0.396937,-0.113884,-0.910753,0.40817735862859084
1760732787.441048,0.081314,-0.194911,0.113429,0.970841,-0.011653,0.00403,0.003257,0.001031,0.000769,0.000508,-0.396902,-0.113669,-0.910796,0.4081388762657187
1760732787.441388,0.081208,-0.194901,0.113464,0.970847,-0.01202,0.00263,0.002272,0.001444,0.001648,0.000823,-0.396866,-0.113453,-0.910838,0.4080998982912871
1760732787.481491,0.081073,-0.194895,0.113458,0.970861,-0.006105,-0.001694,0.00116,0.00143,0.00025,0.000906,-0.396829,-0.113196,-0.910886,0.4080596255563278
1760732787.481812,0.081024,-0.194911,0.113462,0.970861,-0.005034,-0.001294,0.002033,0.001906,9.1e-05,0.000988,-0.39685,-0.113095,-0.910889,0.40808266041975716
1760732787.515248,0.080981,-0.19495,0.113509,0.970851,-0.000481,-0.002799,0.002906,0.002439,0.001744,0.001347,-0.396919,-0.112985,-0.910873,0.4081576717892451
1760732787.546666,0.08101,-0.194997,0.113591,0.97083,0.003349,-0.005492,0.004985,0.000664,-0.000342,0.001556,-0.397021,-0.112995,-0.910827,0.4082689236616326
1760732787.546977,0.081027,-0.194991,0.11364,0.970824,0.000747,-0.004623,0.004542,0.000123,-0.001716,0.002039,-0.39702,-0.113008,-0.910826,0.4082677643918351
1760732787.577071,0.081023,-0.195044,0.113668,0.97081,0.001147,-0.005537,0.003898,-0.000229,-0.001091,0.002042,-0.397121,-0.112976,-0.910786,0.4083777873086798
1760732787.634695,0.081039,-0.195116,0.113726,0.970788,0.00191,-0.006461,0.000616,0.001506,-0.001232,0.000992,-0.397264,-0.112965,-0.910725,0.40853360577459846
1760732787.636817,0.081018,-0.195162,0.113758,0.970777,0.00102,-0.004645,0.000875,0.000684,-0.001212,0.001595,-0.39735,-0.112898,-0.910696,0.4086272369117836
1760732787.637159,0.080996,-0.195208,0.11379,0.970765,0.000131,-0.002829,0.001135,-0.000138,-0.001192,0.002198,-0.397436,-0.112831,-0.910667,0.4087208662975465
1760732787.665363,0.080967,-0.195233,0.113803,0.970761,-0.002359,-0.002688,0.002147,0.000395,-0.00115,0.002859,-0.397477,-0.112763,-0.910657,0.40876575543216703
1760732787.665718,0.080938,-0.195257,0.113817,0.970757,-0.004848,-0.002547,0.003158,0.000927,-0.001108,0.00352,-0.397519,-0.112696,-0.910647,0.40881151148083067
1760732787.70491,0.080922,-0.195279,0.113835,0.970752,-0.004373,-0.002797,0.003429,0.001039,-0.001436,0.002708,-0.397558,-0.112652,-0.910636,0.40885378501519226
1760732787.705643,0.080906,-0.1953,0.113853,0.970747,-0.003898,-0.003047,0.0037,0.001152,-0.001763,0.001895,-0.397597,-0.112608,-0.910624,0.4088964523198689
1760732787.738378,0.080802,-0.195374,0.113868,0.970739,-0.010482,-0.00028,0.002032,-0.000455,-0.000874,0.000958,-0.397716,-0.112381,-0.9106,0.40902617799796626
1760732787.740576,0.080621,-0.195461,0.113809,0.970743,-0.013197,-0.002669,-0.000362,0.000529,-0.000923,0.000844,-0.397836,-0.112034,-0.91059,0.40915710460384414
1760732787.771054,0.080556,-0.195474,0.113777,0.97075,-0.013162,-0.001895,0.000403,0.000161,-0.001708,0.001697,-0.397843,-0.111918,-0.910602,0.4091644209697952
1760732787.816023,0.080367,-0.195517,0.113712,0.970764,-0.015536,-0.002268,0.001762,0.001145,0.001587,0.002154,-0.39788,-0.11157,-0.910628,0.40920496285104113
1760732787.816353,0.080279,-0.195571,0.11369,0.970763,-0.014829,-0.004,0.000518,0.000167,4.2e-05,0.001721,-0.397961,-0.111395,-0.910614,0.40929326547900347
1760732787.848737,0.080102,-0.195686,0.113641,0.970761,-0.010384,-0.010985,0.001752,-0.001789,-8.1e-05,0.004464,-0.398134,-0.111043,-0.910581,0.4094819952480856
1760732787.849086,0.080016,-0.195777,0.113623,0.970751,-0.012207,-0.008468,0.001346,-0.000492,0.000444,0.001887,-0.398286,-0.110861,-0.910537,0.4096475828135527
1760732787.879168,0.079948,-0.195815,0.113622,0.97075,-0.006781,-0.004674,0.004113,-0.000561,0.000323,0.003002,-0.398342,-0.110721,-0.91053,0.4097084520652928
1760732787.935385,0.079883,-0.195836,0.11371,0.97074,0.000382,0.001312,0.012584,-0.003122,-0.001874,0.002412,-0.398378,-0.110554,-0.910534,0.4097479149884057
1760732787.935999,0.079727,-0.195692,0.113819,0.970769,-0.005613,0.00943,0.012238,-0.001629,-0.000842,0.0021,-0.398093,-0.110245,-0.910696,0.4094372542176252
1760732787.936335,0.07957,-0.195549,0.113928,0.970798,-0.011608,0.017547,0.011892,-0.000136,0.00019,0.001788,-0.397808,-0.109936,-0.910858,0.4091265472686625
1760732787.965406,0.079422,-0.195437,0.113984,0.970826,-0.015407,0.01166,0.008948,0.001106,0.000649,0.005696,-0.397576,-0.109657,-0.910993,0.40887365793637537
1760732787.965718,0.079275,-0.195324,0.11404,0.970855,-0.019207,0.005773,0.006004,0.002347,0.001108,0.009603,-0.397344,-0.109378,-0.911128,0.40862073144922073
1760732787.995962,0.079133,-0.195352,0.114048,0.97086,-0.019794,-0.003114,0.002882,0.002807,0.001503,0.006148,-0.39737,-0.109095,-0.911151,0.4086489024940693
1760732788.026624,0.078858,-0.195496,0.113992,0.97086,-0.011489,-0.00594,-0.002627,0.003312,0.00395,-0.000508,-0.397577,-0.108551,-0.911125,0.4088747528249006
1760732788.026887,0.078819,-0.195564,0.113981,0.970851,-0.005405,-0.002983,0.001037,0.001497,0.004059,-0.002231,-0.397694,-0.108461,-0.911085,0.4090021313195604
1760732788.039947,0.078806,-0.195573,0.114063,0.97084,0.008072,-0.000169,0.009316,-0.000311,0.005173,0.000249,-0.397718,-0.108402,-0.911081,0.40902850435821075
1760732788.069035,0.078869,-0.195553,0.114157,0.970828,0.009193,-0.000298,0.013442,-5.5e-05,0.004134,0.000437,-0.397703,-0.108489,-0.911077,0.4090122317200538
1760732788.103912,0.078929,-0.195546,0.114434,0.970792,0.00904,-0.002383,0.015739,-0.0002,0.000491,0.00214,-0.397733,-0.108493,-0.911064,0.40904470290935674
1760732788.104231,0.078954,-0.195593,0.114518,0.97077,0.008699,-0.006297,0.010066,-0.000727,-0.000847,0.00261,-0.397836,-0.108495,-0.911019,0.4091568838582816
1760732788.157414,0.079009,-0.195673,0.114538,0.970747,0.011156,-0.009449,0.006272,-0.000156,-0.001417,0.004447,-0.397998,-0.108571,-0.910939,0.4093335382748145
1760732788.157793,0.079064,-0.195753,0.114558,0.970724,0.013613,-0.0126,0.002478,0.000415,-0.001986,0.006284,-0.398159,-0.108648,-0.910859,0.4095092251393166
1760732788.15914,0.079266,-0.196026,0.114561,0.970653,0.014926,-0.020861,-0.00631,-0.001266,-0.002476,0.002779,-0.398707,-0.108965,-0.910582,0.41010645277665864
1760732788.187933,0.079384,-0.196101,0.114526,0.970632,0.011792,-0.008812,-0.006527,-0.001048,-0.002553,-0.003032,-0.398866,-0.109189,-0.910485,0.41028004537959983
1760732788.233566,0.079482,-0.196086,0.114488,0.970631,0.009006,-0.004492,-0.006518,-0.001249,-0.002225,0.000325,-0.398855,-0.109396,-0.910466,0.41026764231986373
1760732788.234004,0.079579,-0.196072,0.114451,0.970631,0.00622,-0.000172,-0.006508,-0.001451,-0.001898,0.003683,-0.398843,-0.109603,-0.910446,0.410254699469982
1760732788.283865,0.079691,-0.196094,0.114345,0.970629,-0.003018,-0.006586,-0.00744,0.00024,-0.003664,0.003659,-0.398894,-0.109857,-0.910393,0.4103103318566798
1760732788.283942,0.079697,-0.196169,0.114222,0.970628,-0.002827,-0.005432,-0.006297,0.000337,-0.001741,0.002659,-0.399021,-0.1099,-0.910332,0.41044889234330195
1760732788.306831,0.079679,-0.196232,0.114147,0.970626,-0.006066,-0.00097,-0.003765,-0.00056,-0.001825,0.002235,-0.399127,-0.109878,-0.910288,0.41056457063140067
1760732788.335829,0.079627,-0.196245,0.114103,0.970633,-0.006168,0.004129,-0.001089,-0.000541,-0.00095,0.002104,-0.399136,-0.109793,-0.910295,0.4105741129164388
1760732788.347967,0.079572,-0.196185,0.114081,0.970652,-0.006645,0.004867,0.000686,-0.000837,-0.001579,0.002062,-0.39901,-0.109712,-0.910359,0.4104370932603676
1760732788.37834,0.079512,-0.196137,0.114078,0.970667,-0.008214,0.004566,8e-05,-0.00052,-0.002415,0.002626,-0.398908,-0.10961,-0.910417,0.41032545550325467
1760732788.378683,0.079437,-0.196074,0.114057,0.970688,-0.005432,0.004393,-0.002507,-0.000198,-0.002244,0.00233,-0.398774,-0.109489,-0.91049,0.41017943320886324
1760732788.406414,0.0794,-0.196036,0.114027,0.970702,-0.005022,0.003478,-0.00236,0.000731,5.6e-05,0.001769,-0.398694,-0.10944,-0.910531,0.4100921688160648
1760732788.436746,0.079357,-0.196024,0.113983,0.970714,-0.004074,0.00191,-0.001153,0.000157,0.000543,0.001961,-0.398657,-0.109379,-0.910554,0.4100520336569951
1760732788.437364,0.079311,-0.196031,0.113972,0.970717,-0.00519,0.00291,0.001848,0.000352,0.001077,0.000597,-0.398661,-0.109293,-0.910563,0.4100562271091473
1760732788.46775,0.079252,-0.196016,0.11401,0.970721,-0.00282,0.003323,0.004148,0.001129,0.001507,0.000767,-0.398624,-0.109168,-0.910594,0.4100159591861229
1760732788.498464,0.079207,-0.195975,0.114074,0.970725,-0.003672,0.003971,0.006533,0.000194,0.000501,0.001184,-0.398547,-0.109065,-0.91064,0.409932019860819
1760732788.500705,0.079129,-0.195974,0.114161,0.970721,-0.003102,0.002869,0.008425,0.000698,-6.3e-05,0.000464,-0.398539,-0.108878,-0.910666,0.4099232489663983
1760732788.534725,0.079055,-0.195991,0.114241,0.970715,-0.005146,-0.000806,0.006856,0.00093,0.00025,0.000726,-0.398565,-0.108699,-0.910676,0.40995159955453575
1760732788.537019,0.078985,-0.196001,0.114281,0.970714,-0.005463,-0.002,0.004471,0.001348,0.000225,0.002831,-0.398575,-0.108544,-0.91069,0.40996254696196177
1760732788.568507,0.078911,-0.196044,0.114322,0.970706,-0.007461,-0.003771,0.003539,0.000559,0.001037,0.001799,-0.398645,-0.108374,-0.910679,0.4100391131184515
1760732788.575498,0.078822,-0.19608,0.114339,0.970704,-0.008053,-0.004296,0.003263,0.001051,0.001549,0.002084,-0.398695,-0.108187,-0.91068,0.4100933741749163
1760732788.605411,0.078724,-0.196148,0.114361,0.970696,-0.006774,-0.003908,0.004367,0.001196,0.001699,0.002168,-0.398806,-0.107971,-0.910657,0.4102144258758369
1760732788.63576,0.07868,-0.196162,0.114381,0.970694,-0.004644,-0.003346,0.003947,-0.000138,0.001688,0.001489,-0.398826,-0.107874,-0.91066,0.4102361310908427
1760732788.636072,0.078632,-0.19619,0.114427,0.970687,-0.002265,-0.002734,0.003078,-0.000189,0.000538,0.0014,-0.398873,-0.107756,-0.910653,0.41028753685043934
1760732788.664095,0.078617,-0.19621,0.114479,0.970678,-0.001114,-0.001673,0.001857,0.000175,0.000597,-8e-05,-0.398913,-0.107699,-0.910642,0.41033124529286047
1760732788.695374,0.078563,-0.196221,0.11451,0.970676,-0.003686,-0.000399,0.003004,6.4e-05,0.001202,0.001922,-0.398926,-0.10758,-0.910651,0.41034517304123524
1760732788.713814,0.078495,-0.196253,0.11451,0.970675,-0.003829,-0.000226,-0.000561,0.000372,0.000223,0.002608,-0.398972,-0.107441,-0.910647,0.41039544027525354
1760732788.714125,0.078444,-0.196261,0.114474,0.970682,-0.006813,-0.001275,-0.003981,0.00061,-0.000106,0.001829,-0.398974,-0.107354,-0.910656,0.4103977735765735
1760732788.742929,0.07836,-0.196298,0.114404,0.97069,-0.006979,-0.00389,-0.004735,0.001647,0.00052,0.00172,-0.399018,-0.107211,-0.910654,0.410445587550936
1760732788.773516,0.078285,-0.196325,0.114336,0.970698,-0.005875,-0.006061,-0.005706,0.000709,0.001632,0.001955,-0.399046,-0.107088,-0.910656,0.4104762045860175
1760732788.775549,0.078205,-0.196409,0.114256,0.970697,-0.006553,-0.00425,-0.004239,0.001568,0.002619,0.001154,-0.399179,-0.106945,-0.910615,0.4106210655985172
1760732788.836128,0.078197,-0.196455,0.114264,0.970688,0.000144,-0.001956,0.001055,0.000639,0.000999,0.001241,-0.399263,-0.106915,-0.910581,0.41071295907233
1760732788.836535,0.07819,-0.196501,0.114272,0.970678,0.00684,0.000338,0.006348,-0.00029,-0.00062,0.001328,-0.399348,-0.106885,-0.910548,0.4108053725465943
1760732788.837153,0.078253,-0.196515,0.114348,0.970661,0.009802,0.003772,0.006835,-0.001569,-0.000727,-0.000848,-0.399395,-0.106972,-0.910517,0.4108567051658597
1760732788.866849,0.078303,-0.196393,0.114446,0.97067,0.009117,0.017901,0.006081,-0.000473,0.000874,-0.002323,-0.399188,-0.10706,-0.910597,0.41063109621664406
1760732788.89803,0.078343,-0.196153,0.114541,0.970704,0.008401,0.025136,0.006643,-0.000129,0.000238,-0.000634,-0.39876,-0.107161,-0.910773,0.410164190660643
1760732788.898306,0.078372,-0.195941,0.11462,0.970735,0.005159,0.016467,0.003802,0.000883,-0.001309,0.005134,-0.398381,-0.10724,-0.910929,0.40975116427394015
1760732788.930116,0.078381,-0.195884,0.114642,0.970744,0.000256,-0.000486,-0.001966,0.002895,-0.000716,0.007429,-0.398278,-0.107262,-0.910972,0.4096386529635453
1760732788.934833,0.078324,-0.195935,0.114651,0.970737,-0.00617,-0.004441,0.000776,0.00362,-7.7e-05,0.003448,-0.398362,-0.107137,-0.91095,0.40973022364032863
1760732788.963032,0.078256,-0.195978,0.114644,0.970734,-0.006116,0.001367,0.004521,0.00172,0.000261,0.001535,-0.398429,-0.106996,-0.910937,0.4098033778565033
1760732788.993422,0.078174,-0.195964,0.1147,0.970737,-0.006075,0.005045,0.009531,2.2e-05,0.00075,-0.000207,-0.398393,-0.106819,-0.910974,0.4097639371818329
1760732788.995485,0.078087,-0.195948,0.114812,0.970734,-0.003512,0.006239,0.014334,-0.000667,0.000423,-0.000169,-0.398358,-0.106609,-0.911014,0.40972574087438574
1760732789.02425,0.078002,-0.195906,0.114967,0.970731,-0.002438,0.004273,0.017843,-0.001524,0.000561,-0.000274,-0.39828,-0.106392,-0.911073,0.4096408896581936
1760732789.054203,0.077966,-0.195866,0.115155,0.97072,-0.001,0.000148,0.013953,-0.000593,-0.001406,0.002561,-0.398218,-0.106257,-0.911116,0.4095732411075728
1760732789.054917,0.077935,-0.195898,0.115271,0.970702,-0.002653,-0.004561,0.008662,0.001484,-0.001453,0.002524,-0.398285,-0.10614,-0.9111,0.4096464224129106
1760732789.085156,0.077866,-0.195987,0.115345,0.970681,-0.000368,-0.006691,0.007748,-0.000364,-0.002293,0.005823,-0.398445,-0.105954,-0.911052,0.4098207387477521
1760732789.092669,0.077858,-0.196067,0.115402,0.970659,-0.003967,-0.011255,0.006029,-0.00097,-0.001923,0.004026,-0.398597,-0.105893,-0.910992,0.40998670577496316
1760732789.134054,0.077815,-0.196136,0.115432,0.970645,-0.007316,0.002488,0.003428,-0.001027,-0.001854,-0.001632,-0.398722,-0.105781,-0.910951,0.41012273176572644
1760732789.165295,0.077808,-0.196078,0.115422,0.970658,-0.003632,0.002487,0.000795,-0.001507,-0.002626,0.001398,-0.398612,-0.105787,-0.910998,0.4100029630508626
1760732789.165548,0.077801,-0.19602,0.115413,0.970671,5.3e-05,0.002485,-0.001838,-0.001987,-0.003398,0.004429,-0.398501,-0.105792,-0.911046,0.4098819271973224
1760732789.194184,0.077793,-0.196055,0.115356,0.970672,-0.003181,-0.00595,-0.003769,-0.000538,-0.002476,0.002756,-0.398559,-0.10579,-0.911021,0.40994511089300345
1760732789.196092,0.077785,-0.196114,0.115287,0.970669,-0.003506,-0.007131,-0.005277,0.001042,-0.002652,0.003595,-0.398659,-0.105787,-0.910978,0.4100539866806244
1760732789.225251,0.077788,-0.196223,0.115214,0.970655,-0.004478,-0.006031,-0.006912,0.000387,-0.00125,0.003571,-0.398854,-0.105795,-0.910891,0.4102669049539931
1760732789.267419,0.077778,-0.196241,0.115174,0.970657,-0.00365,-0.001187,-0.003615,8.1e-05,-0.000979,0.002327,-0.398882,-0.105788,-0.91088,0.4102972615521241
1760732789.267665,0.077768,-0.19626,0.115133,0.970659,-0.002823,0.003658,-0.000317,-0.000224,-0.000708,0.001082,-0.39891,-0.105781,-0.910868,0.4103280143582347
1760732789.274167,0.077738,-0.196213,0.11514,0.97067,-0.003489,0.008437,0.003356,0.000149,-0.001344,0.001412,-0.398818,-0.105732,-0.910914,0.4102276780785632
1760732789.304274,0.077686,-0.196144,0.115173,0.970684,-0.00466,0.005514,0.002172,-0.000614,-0.001215,0.002409,-0.398683,-0.105637,-0.910985,0.4100801179542908
1760732789.333871,0.077623,-0.19612,0.115158,0.970696,-0.007581,0.004586,-0.001702,-0.001131,-0.002181,0.002648,-0.398623,-0.105527,-0.911023,0.4100150922303576
1760732789.334194,0.077522,-0.196106,0.115093,0.970714,-0.011737,0.003297,-0.003107,0.000183,-0.001224,0.001267,-0.39857,-0.105364,-0.911066,0.4099569285319172
1760732789.373386,0.077413,-0.196094,0.115015,0.970735,-0.010834,0.003473,-0.004244,0.001542,0.000876,0.003143,-0.398518,-0.105187,-0.911109,0.40990030990730103
1760732789.374636,0.077305,-0.196057,0.114963,0.970757,-0.010035,0.0022,-0.001143,0.000623,0.001788,0.002304,-0.398422,-0.105009,-0.911171,0.4097958455488398
1760732789.446536,0.0772,-0.196042,0.114993,0.970765,-0.009037,0.002212,0.001401,0.00078,0.001571,0.002067,-0.398377,-0.104798,-0.911215,0.4097467708380304
1760732789.446886,0.077095,-0.196028,0.115023,0.970773,-0.008038,0.002224,0.003946,0.000938,0.001354,0.001829,-0.398332,-0.104588,-0.911259,0.4096976307023623
1760732789.447333,0.07699,-0.196013,0.115053,0.97078,-0.00704,0.002236,0.00649,0.001095,0.001137,0.001591,-0.398286,-0.104377,-0.911303,0.4096475988255732
1760732789.462698,0.076859,-0.196021,0.115095,0.970784,-0.0114,0.001525,0.004244,0.0015,-0.00016,0.001656,-0.39828,-0.104105,-0.911337,0.40964095270444456
1760732789.490605,0.076722,-0.196034,0.115141,0.970787,-0.011479,-7.1e-05,0.005027,0.001843,2.5e-05,0.001143,-0.398282,-0.103819,-0.911369,0.40964303465719376
1760732789.49137,0.076601,-0.196055,0.115171,0.970788,-0.011497,-0.000433,0.005204,0.001832,-0.000468,0.000498,-0.398301,-0.103567,-0.911389,0.4096638942348276
1760732789.521393,0.076468,-0.196058,0.115172,0.970798,-0.008749,0.000837,0.001249,0.000408,-0.000104,0.000111,-0.39828,-0.103309,-0.911428,0.40964078552042904
1760732789.552639,0.076385,-0.196065,0.115191,0.970801,-0.005286,0.000169,0.000852,0.000179,0.000514,0.000556,-0.398278,-0.103139,-0.911448,0.4096386554391449
1760732789.55378,0.076329,-0.196079,0.115197,0.970802,-0.004519,2.1e-05,0.000764,0.000888,-0.000743,0.003026,-0.398293,-0.103026,-0.911454,0.40965509761959557
1760732789.583936,0.076265,-0.196074,0.115175,0.970811,-0.006288,-0.000506,0.001566,0.001208,-0.001072,0.002501,-0.39827,-0.102912,-0.911477,0.4096299949092866
1760732789.600477,0.076192,-0.196119,0.115202,0.970804,-0.006674,-0.000621,0.001741,7e-06,-0.000718,0.001074,-0.39834,-0.102748,-0.911465,0.4097062751610842
1760732789.630558,0.076106,-0.196114,0.115199,0.970812,-0.009124,0.00129,0.00022,-0.000596,-0.001671,0.000764,-0.398314,-0.102585,-0.911494,0.40967821520537634
1760732789.660723,0.076001,-0.196092,0.115206,0.970824,-0.008718,0.000241,0.001211,0.000805,-0.001814,0.00148,-0.398253,-0.102386,-0.911544,0.40961132823733165
1760732789.668677,0.075904,-0.196112,0.115212,0.970827,-0.009565,0.00148,0.000101,0.000593,-0.002825,0.002707,-0.398272,-0.10219,-0.911557,0.4096323159415209
1760732789.671278,0.075776,-0.196115,0.115208,0.970837,-0.014596,0.002208,0.000206,0.000548,-0.003038,0.002966,-0.398251,-0.101944,-0.911594,0.40960931067515094
1760732789.735099,0.075648,-0.196132,0.115176,0.970847,-0.014778,-0.000418,-0.002062,1.9e-05,-0.002243,0.002256,-0.398254,-0.101706,-0.911619,0.4096126895241222
1760732789.735464,0.075521,-0.196149,0.115144,0.970857,-0.014959,-0.003044,-0.00433,-0.00051,-0.001448,0.001545,-0.398257,-0.101469,-0.911645,0.4096156036432969
1760732789.736858,0.075397,-0.19621,0.115058,0.970865,-0.014055,-0.00506,-0.003464,-0.000695,-0.000681,0.003028,-0.398337,-0.101249,-0.911634,0.4097030213688273
1760732789.765745,0.075294,-0.196261,0.114974,0.970872,-0.010072,-0.003255,-0.001699,0.00132,-0.000625,0.00086,-0.398403,-0.101072,-0.911625,0.4097748983400695
1760732789.771236,0.075201,-0.196271,0.114992,0.970876,-0.007744,0.001249,0.007638,0.000144,-0.001254,0.003567,-0.398404,-0.100882,-0.911645,0.4097762294691222
1760732789.801135,0.075111,-0.196259,0.115102,0.970872,-0.00438,0.008183,0.01414,-0.002306,-0.001805,0.001548,-0.398376,-0.100666,-0.911681,0.40974574670818265
1760732789.830481,0.07503,-0.196176,0.115245,0.970878,-0.007482,0.017839,0.014441,-0.001554,-0.002324,-0.002015,-0.39822,-0.100474,-0.911771,0.4095754087460152
1760732789.834214,0.074894,-0.195957,0.115388,0.970916,-0.010216,0.028656,0.014855,0.000987,-0.002054,-0.001241,-0.397799,-0.100209,-0.911984,0.409116460365467
1760732789.864155,0.074713,-0.195683,0.115519,0.970969,-0.012594,0.029035,0.012481,0.001068,-0.00128,0.002762,-0.397266,-0.099879,-0.912252,0.4085357854829999
1760732789.893743,0.074545,-0.19552,0.115615,0.971004,-0.015258,0.00983,0.006988,0.002887,-0.001149,0.007775,-0.396939,-0.099558,-0.91243,0.4081792575029203
1760732789.894096,0.074382,-0.195508,0.115614,0.971019,-0.019931,-0.003078,0.002355,0.004453,0.000835,0.005421,-0.396883,-0.099246,-0.912488,0.4081183832816019
1760732789.931183,0.074193,-0.195585,0.115595,0.97102,-0.020077,-0.001047,0.005913,0.002506,0.00078,0.002378,-0.396986,-0.098869,-0.912484,0.40823065014988835
1760732789.932701,0.074012,-0.195584,0.115617,0.971031,-0.015858,0.003841,0.010427,0.001521,-0.000803,0.00236,-0.39695,-0.098509,-0.912538,0.4081916622705737
1760732789.967592,0.073849,-0.195577,0.115749,0.97103,-0.008358,0.007256,0.01674,-0.000512,-0.001668,0.002101,-0.396917,-0.098144,-0.912592,0.40815558291969367
1760732789.969776,0.073753,-0.195507,0.115941,0.971028,-0.007848,0.00698,0.021247,-0.001866,-0.004479,0.002607,-0.396788,-0.097898,-0.912675,0.40801485117460085
1760732789.999893,0.073613,-0.195433,0.116163,0.971027,-0.005352,0.009708,0.023446,-0.001468,-0.009984,0.004195,-0.396644,-0.097556,-0.912774,0.4078580605538117
1760732790.06142,0.073736,-0.195438,0.11624,0.971007,0.011631,0.002943,0.010406,-0.001318,-0.015847,0.008081,-0.396687,-0.097761,-0.912734,0.4079046586021582
1760732790.061687,0.07386,-0.195443,0.116318,0.970987,0.028614,-0.003822,-0.002634,-0.001167,-0.02171,0.011968,-0.396729,-0.097967,-0.912693,0.4079506720697338
1760732790.062026,0.073983,-0.195449,0.116395,0.970968,0.045596,-0.010587,-0.015675,-0.001017,-0.027573,0.015854,-0.396771,-0.098172,-0.912653,0.4079963146154107
1760732790.090341,0.074765,-0.195534,0.116259,0.970907,0.091981,-0.029847,-0.034696,-0.004115,-0.043224,0.021415,-0.397075,-0.099714,-0.912353,0.4083277459712718
1760732790.092403,0.076101,-0.195725,0.116021,0.970793,0.133586,-0.038325,-0.052296,-0.001501,-0.053022,0.025534,-0.397675,-0.102341,-0.911801,0.40898143071769183
1760732790.121369,0.077827,-0.195851,0.115729,0.970666,0.163367,-0.031595,-0.060375,0.000491,-0.064904,0.032801,-0.398225,-0.105757,-0.911171,0.40958091702614075
1760732790.151489,0.079888,-0.195919,0.115424,0.970521,0.202462,-0.034536,-0.065633,-0.000491,-0.082262,0.047416,-0.398729,-0.109839,-0.910467,0.4101305817662935
1760732790.152531,0.082455,-0.196008,0.115066,0.970331,0.257453,-0.043878,-0.081998,-0.00303,-0.098971,0.057194,-0.39936,-0.114909,-0.909564,0.4108188385315806
1760732790.189202,0.085766,-0.196093,0.114666,0.970074,0.337661,-0.066688,-0.103168,-0.00676,-0.106125,0.069648,-0.400118,-0.121429,-0.908384,0.4116454001556077
1760732790.18992,0.08998,-0.196422,0.114196,0.969681,0.412337,-0.103153,-0.121359,-0.004779,-0.106326,0.073793,-0.401485,-0.129643,-0.906644,0.41313750040692926
1760732790.221042,0.094819,-0.196998,0.11366,0.969166,0.446051,-0.129716,-0.137583,-9.1e-05,-0.099853,0.071868,-0.403401,-0.13901,-0.904402,0.41523085256266895
1760732790.250244,0.099739,-0.197563,0.113028,0.968631,0.425149,-0.126415,-0.136322,0.004396,-0.095174,0.082568,-0.405278,-0.148559,-0.902042,0.4172829468522554
1760732790.252167,0.10428,-0.198298,0.112317,0.968085,0.373969,-0.132063,-0.136076,0.012438,-0.091349,0.083449,-0.407363,-0.157359,-0.899607,0.41956493149492513
1760732790.272966,0.108308,-0.198984,0.111463,0.9676,0.312154,-0.114955,-0.147576,0.015647,-0.080308,0.082179,-0.409219,-0.16524,-0.897349,0.4215980202623464
1760732790.30309,0.111674,-0.199578,0.110389,0.967219,0.242933,-0.101051,-0.150761,0.012233,-0.04886,0.064457,-0.410727,-0.171963,-0.895395,0.4232512461779677
1760732790.335978,0.114228,-0.200023,0.109246,0.966958,0.147115,-0.066788,-0.129045,0.007919,-0.02236,0.038081,-0.411785,-0.177204,-0.893886,0.4244119049666544
1760732790.338679,0.115708,-0.200124,0.108229,0.966876,0.052823,0.002244,-0.10547,0.010422,-0.015716,0.026136,-0.412036,-0.180431,-0.893124,0.4246875471580177
1760732790.381228,0.116199,-0.199922,0.107174,0.966976,-0.059786,0.006751,-0.09893,0.002773,0.010357,0.015911,-0.411547,-0.181871,-0.893058,0.42415069083115375
1760732790.381536,0.115177,-0.199745,0.106152,0.967248,-0.208099,0.045122,-0.04698,0.004077,0.031469,-0.013046,-0.410858,-0.180403,-0.893673,0.42339474411050815
1760732790.411647,0.112759,-0.199616,0.105374,0.967644,-0.328933,0.048777,0.005326,-0.00047,0.057992,-0.048524,-0.410079,-0.176152,-0.894877,0.42254086774287886
1760732790.412959,0.109116,-0.199351,0.105158,0.96814,-0.403608,0.094714,0.091942,-0.001404,0.075641,-0.061507,-0.408948,-0.169353,-0.896706,0.42130083564420323
1760732790.44132,0.104854,-0.198896,0.105723,0.968643,-0.421037,0.127238,0.175284,-0.005012,0.07173,-0.065948,-0.407489,-0.161076,-0.898892,0.41970282014735266
1760732790.469753,0.100276,-0.198186,0.107026,0.96913,-0.40084,0.15183,0.220663,-0.006953,0.047728,-0.051088,-0.4056,-0.151938,-0.901334,0.4176352657966203
1760732790.486749,0.095777,-0.197176,0.108645,0.96961,-0.372204,0.186918,0.221921,-0.001722,0.033166,-0.039785,-0.40318,-0.142889,-0.903897,0.4149888918171456
1760732790.489132,0.091377,-0.19583,0.110262,0.970125,-0.355722,0.207629,0.211074,0.002849,0.014078,-0.009471,-0.400111,-0.134109,-0.906601,0.41163808911929456
1760732790.519385,0.087237,-0.194439,0.111736,0.970617,-0.323484,0.191477,0.177429,0.003589,0.00516,0.013128,-0.396947,-0.125896,-0.909166,0.40818826135569686
1760732790.549854,0.083569,-0.193113,0.112877,0.971073,-0.303613,0.174013,0.146943,0.006792,0.008684,0.023008,-0.393919,-0.118708,-0.911447,0.4048915896618813
1760732790.57901,0.080231,-0.192138,0.113728,0.971448,-0.292383,0.120488,0.120025,0.005124,0.017469,0.025977,-0.391554,-0.112178,-0.913292,0.40231968043943916
1760732790.579913,0.076828,-0.191549,0.114341,0.971768,-0.348131,0.097094,0.118545,0.007849,0.027821,0.016515,-0.389852,-0.105514,-0.914813,0.4004707416165732
1760732790.634217,0.07287,-0.191317,0.114716,0.972074,-0.383349,0.088377,0.106092,0.004223,0.028093,-0.002664,-0.388667,-0.097777,-0.916176,0.3991842273523063
1760732790.634503,0.068912,-0.191081,0.11509,0.972365,-0.418567,0.079659,0.09364,0.000578,0.028358,-0.021904,-0.387463,-0.090031,-0.917478,0.3978782286750727
1760732790.63493,0.064444,-0.190967,0.11521,0.97268,-0.4788,0.074154,0.098621,-0.00156,0.055367,-0.042485,-0.386348,-0.081365,-0.918757,0.39666896733284013
1760732790.665276,0.059196,-0.190736,0.115376,0.973039,-0.530386,0.107708,0.124122,-0.004607,0.071728,-0.067662,-0.384847,-0.071187,-0.920231,0.3950420712233249
1760732790.669969,0.053785,-0.190168,0.115737,0.973421,-0.503938,0.138237,0.141848,-0.006185,0.06882,-0.061785,-0.382677,-0.060691,-0.921887,0.39269196930477773
1760732790.717426,0.048908,-0.189461,0.116256,0.973754,-0.416026,0.128886,0.132595,-0.006715,0.066655,-0.051747,-0.380349,-0.051197,-0.923425,0.39017358222376114
1760732790.719139,0.04483,-0.188843,0.116846,0.974,-0.336578,0.098085,0.122551,-0.006435,0.070845,-0.043948,-0.378342,-0.043197,-0.924657,0.3880046562991216
1760732790.747968,0.041452,-0.188391,0.117553,0.974152,-0.265226,0.073825,0.117137,-0.002787,0.06617,-0.036039,-0.376789,-0.036469,-0.925581,0.3863273336005568
1760732790.74976,0.03873,-0.188076,0.118242,0.974241,-0.198981,0.046478,0.096698,-0.00036,0.056487,-0.021256,-0.375622,-0.030988,-0.926255,0.38506773447859605
1760732790.779116,0.036611,-0.187977,0.118752,0.97428,-0.1719,0.02908,0.068231,0.000253,0.050785,-0.020072,-0.37498,-0.026692,-0.926649,0.38437503183040417
1760732790.819814,0.034568,-0.18794,0.119065,0.974324,-0.181264,0.028754,0.050819,-0.001007,0.048683,-0.02071,-0.374461,-0.022606,-0.926967,0.3838154349021676
1760732790.821741,0.032428,-0.187896,0.119237,0.974385,-0.181881,0.033888,0.046363,-0.002403,0.045608,-0.018928,-0.373899,-0.018387,-0.927287,0.3832094444669157
1760732790.850373,0.030407,-0.187662,0.119356,0.974481,-0.165665,0.056669,0.038446,-0.002225,0.041913,-0.021708,-0.373004,-0.014464,-0.927717,0.3822445803011134
1760732790.853101,0.028597,-0.187306,0.119424,0.974596,-0.142374,0.056852,0.028432,-0.001914,0.042129,-0.022588,-0.371926,-0.011003,-0.928197,0.3810830677020471
1760732790.881711,0.027046,-0.186878,0.119502,0.974712,-0.119524,0.057911,0.030641,0.002607,0.043959,-0.01761,-0.37077,-0.008059,-0.92869,0.3798378864031975
1760732790.936015,0.025715,-0.186644,0.119664,0.974773,-0.106176,0.045518,0.027903,0.005273,0.038004,-0.014355,-0.370026,-0.005463,-0.929005,0.3790371314320025
1760732790.936786,0.024383,-0.18641,0.119826,0.974833,-0.092827,0.033126,0.025164,0.007937,0.032048,-0.011107,-0.36928,-0.002866,-0.929314,0.37823405175774283
1760732790.937433,0.023251,-0.186199,0.119943,0.974886,-0.081065,0.027198,0.020387,0.009353,0.030475,-0.00867,-0.368623,-0.000667,-0.929579,0.377527174235069
1760732790.967648,0.022239,-0.186008,0.120048,0.974933,-0.069687,0.028596,0.018923,0.008544,0.02597,-0.011611,-0.368031,0.001296,-0.929813,0.37689036114870184
1760732790.969395,0.021301,-0.185825,0.120179,0.974973,-0.060835,0.028747,0.017442,0.008621,0.023546,-0.011077,-0.367468,0.00313,-0.930031,0.376285039399975
1760732790.997771,0.020487,-0.18555,0.120222,0.975038,-0.058285,0.03354,0.004437,0.004928,0.022575,-0.013505,-0.366763,0.004664,-0.930303,0.3755270520219508
1760732791.028633,0.019815,-0.185246,0.120215,0.97511,-0.0388,0.02072,0.000591,0.002532,0.022525,-0.00688,-0.366034,0.005896,-0.930583,0.3747435968281641
1760732791.029952,0.019346,-0.185126,0.120151,0.97515,-0.012121,0.007301,-0.001691,0.003845,0.020673,-0.007376,-0.3657,0.006756,-0.930708,0.3743848829426765
1760732791.059854,0.019146,-0.185067,0.120161,0.975164,-0.000613,0.001781,0.001157,0.004332,0.017016,-0.005219,-0.365542,0.007135,-0.930768,0.3742148515967325
1760732791.08863,0.018968,-0.184981,0.12021,0.975178,0.000811,0.005268,0.005178,0.004691,0.009853,-0.00337,-0.365339,0.007478,-0.930844,0.3739971356370411
1760732791.090797,0.018796,-0.184863,0.120296,0.975193,-3.1e-05,0.016714,0.009981,0.003451,0.005024,0.001362,-0.365077,0.007817,-0.930945,0.3737153312188111
1760732791.12046,0.018607,-0.184706,0.120437,0.975209,0.001709,0.011371,0.010864,0.002859,-0.000586,0.00579,-0.364737,0.008199,-0.931075,0.37335014133752903
1760732791.153024,0.01839,-0.184588,0.120617,0.975213,-0.00719,0.014048,0.01202,0.002449,-0.004916,0.006201,-0.364462,0.008661,-0.931178,0.3730549940190732
1760732791.153783,0.018196,-0.184446,0.120679,0.975236,-0.012926,0.013203,0.006054,0.001707,-0.006993,0.006866,-0.364148,0.009026,-0.931297,0.3727179590953458
1760732791.185422,0.018037,-0.184393,0.120679,0.975249,-0.009562,0.00229,-0.002442,-0.001435,-0.006766,0.008397,-0.364011,0.009323,-0.931348,0.37257072936176644
1760732791.190131,0.017965,-0.184369,0.120599,0.975265,-0.01003,-0.002218,-0.006784,-0.001785,-0.007376,0.002507,-0.363951,0.009428,-0.93137,0.3725064530911292
1760732791.234218,0.01789,-0.18441,0.120446,0.975277,-0.012047,-0.005931,-0.013794,-0.001586,-0.006096,0.003506,-0.364011,0.009527,-0.931346,0.3725707059100092
1760732791.249078,0.017858,-0.184466,0.120252,0.975291,-0.018648,-0.009493,-0.017633,0.000929,-0.004085,-0.001498,-0.364111,0.009531,-0.931307,0.37267802614328216
1760732791.2494,0.017705,-0.184617,0.120012,0.975295,-0.024931,-0.006262,-0.022913,0.001154,-0.003333,-0.001075,-0.364361,0.009777,-0.931206,0.37294670988300804
1760732791.279735,0.017551,-0.184739,0.119667,0.975317,-0.027614,-0.009502,-0.027369,0.000892,-0.006702,-0.000257,-0.364558,0.009979,-0.931127,0.3731581698798291
1760732791.308868,0.017465,-0.184847,0.119295,0.975344,-0.019403,-0.018003,-0.033928,-0.000641,-0.003536,0.003414,-0.364746,0.010033,-0.931053,0.373359996038846
1760732791.310062,0.017392,-0.185058,0.118936,0.975349,-0.018974,-0.021182,-0.028624,-0.000738,-0.000594,0.003408,-0.365129,0.010094,-0.930902,0.37377144306862753
1760732791.340997,0.017279,-0.185229,0.118652,0.975353,-0.024271,-0.008274,-0.019079,-2.4e-05,-2e-05,0.000113,-0.365427,0.010249,-0.930784,0.37409133237661263
1760732791.375802,0.017062,-0.185318,0.118449,0.975364,-0.029916,-0.001798,-0.010409,0.000886,-0.000297,0.000154,-0.365547,0.010618,-0.930732,0.37422052277807477
1760732791.377915,0.016856,-0.185292,0.118303,0.975391,-0.023319,0.008873,-0.005548,0.000692,-0.001645,-0.001171,-0.365452,0.010959,-0.930766,0.37411822495824953
1760732791.406422,0.016703,-0.185196,0.118278,0.975415,-0.006503,0.013548,0.001014,0.00054,-0.003058,0.002928,-0.365237,0.011224,-0.930847,0.37388734305527954
1760732791.407663,0.016696,-0.18504,0.118246,0.975448,0.002114,0.012361,-0.001599,-0.000264,-0.003535,0.00088,-0.364943,0.011188,-0.930963,0.3735714481176378
1760732791.438634,0.016692,-0.184883,0.118214,0.975482,0.000518,0.012932,-0.001963,0.000988,-0.004687,0.003142,-0.364647,0.011145,-0.931079,0.37325372108953997
1760732791.470024,0.016683,-0.184775,0.118198,0.975504,-0.003659,0.007181,-0.000946,0.002343,-0.007303,0.008326,-0.364442,0.011132,-0.931159,0.3730337231091363
1760732791.470343,0.016592,-0.184763,0.118188,0.97551,-0.014456,0.004921,-0.002466,0.001656,-0.008542,0.004244,-0.364398,0.011302,-0.931175,0.37298617225615704
1760732791.499938,0.01646,-0.184705,0.118111,0.975532,-0.018238,0.00609,-0.003104,0.001174,-0.006968,0.004026,-0.36426,0.011516,-0.931226,0.37283812241542713
1760732791.534624,0.016279,-0.184667,0.118037,0.975551,-0.024168,0.005191,-0.006738,0.001335,-0.00412,0.002524,-0.364147,0.011833,-0.931266,0.3727168690576016
1760732791.53593,0.016071,-0.184655,0.117947,0.975568,-0.02461,0.008186,0.001342,0.000543,-0.003103,0.003031,-0.364077,0.012202,-0.931289,0.3726415666638483
1760732791.569568,0.015913,-0.184607,0.117942,0.97558,-0.019155,0.006387,0.002336,0.000799,-0.001005,-0.000508,-0.363952,0.012497,-0.931334,0.3725073394788832
1760732791.571658,0.015784,-0.184517,0.1179,0.975604,-0.013427,0.005925,0.004634,0.001826,-0.000612,0.000309,-0.363753,0.01271,-0.931409,0.3722936445642868
1760732791.607709,0.01567,-0.1845,0.11791,0.975608,-0.009336,0.004567,0.002536,0.002743,-0.000916,0.000467,-0.363694,0.012933,-0.931429,0.3722302954669019
1760732791.638129,0.015626,-0.184478,0.117923,0.975612,-0.007137,0.001644,0.002318,0.001826,-0.00061,0.000311,-0.363643,0.013019,-0.931448,0.37217544284772713
1760732791.666831,0.015587,-0.184505,0.11793,0.975606,-0.005464,-0.002198,0.000309,0.002067,-0.001421,0.000388,-0.363686,0.013103,-0.93143,0.37222161561902406
1760732791.667121,0.015553,-0.184549,0.117907,0.975601,-0.002695,-0.005489,-0.002437,0.001382,-0.000826,0.000957,-0.36376,0.013173,-0.9314,0.3723010986191639
1760732791.696675,0.015575,-0.184634,0.117873,0.975589,-0.000835,-0.008754,-0.003649,0.000984,-0.000876,0.000896,-0.363925,0.013138,-0.931335,0.37247861687128175
1760732791.726363,0.015621,-0.184765,0.117843,0.975567,-8.1e-05,-0.013258,-0.002724,0.000575,-0.000833,0.002241,-0.364183,0.013068,-0.931236,0.3727553086913772
1760732791.727503,0.01568,-0.184919,0.117814,0.97554,0.004869,-0.014082,-0.001632,4.6e-05,-0.001438,0.003596,-0.364487,0.012979,-0.931118,0.37308185490386503
1760732791.758643,0.015751,-0.185043,0.117795,0.975518,0.003395,-0.01465,-0.003101,-0.001342,-0.003571,0.004187,-0.364736,0.012864,-0.931022,0.37334929488696283
1760732791.787799,0.015812,-0.185173,0.117728,0.975501,-0.000172,-0.012506,-0.007217,-0.001462,-0.00297,0.001296,-0.364995,0.01275,-0.930922,0.37362749477037466
1760732791.789692,0.015815,-0.185271,0.117632,0.975493,-0.005264,-0.00148,-0.007424,-0.001494,-0.001573,-0.001247,-0.365183,0.012733,-0.930849,0.3738292515531634
1760732791.834778,0.015754,-0.185249,0.117555,0.975508,-0.011011,0.00947,-0.002616,-0.001084,8e-05,0.0,-0.365127,0.012817,-0.93087,0.3737690301135812
1760732791.836724,0.015643,-0.185134,0.117499,0.975538,-0.016264,0.013457,-0.001258,-0.000949,0.000913,0.00416,-0.364886,0.012986,-0.930962,0.3735102258259643
1760732791.870968,0.015476,-0.185026,0.117445,0.975568,-0.022418,0.014386,-0.000373,-0.000417,0.001168,0.006287,-0.364645,0.013265,-0.931052,0.3732515706379482
1760732791.872214,0.015235,-0.184916,0.117387,0.9756,-0.030393,0.012783,0.000118,-0.00036,0.000993,0.00482,-0.364384,0.013687,-0.931148,0.3729713121560257
1760732791.904851,0.014893,-0.184839,0.117322,0.975627,-0.036993,0.013635,0.000579,-0.000585,0.000994,0.002629,-0.364162,0.014311,-0.931225,0.3727331025134417
1760732791.905191,0.014528,-0.184768,0.117252,0.975654,-0.035125,0.012352,-0.001188,-0.000774,0.002137,0.001128,-0.363947,0.014981,-0.931299,0.3725020839171201
1760732791.934232,0.014196,-0.184715,0.117213,0.975674,-0.031052,0.012904,0.000523,-0.001453,0.004015,-0.002986,-0.363771,0.0156,-0.931358,0.3723129859292627
1760732791.96504,0.013898,-0.18463,0.117188,0.975697,-0.025782,0.01506,0.004637,-0.001424,0.004811,-0.004217,-0.363544,0.016152,-0.931437,0.3720693820882635
1760732791.966825,0.013646,-0.184487,0.117205,0.975726,-0.019888,0.018743,0.004869,-0.000167,0.004411,-0.004229,-0.363216,0.016617,-0.931557,0.37171723336290674
1760732791.997334,0.013448,-0.184342,0.117193,0.975758,-0.013998,0.01804,0.001254,0.000153,0.00356,-0.000651,-0.362898,0.016962,-0.931674,0.37137620370314717
1760732792.026619,0.01331,-0.184223,0.117192,0.975782,-0.00799,0.012149,0.001695,-0.00027,0.003339,0.001711,-0.362643,0.017203,-0.931769,0.3711025145103926
1760732792.027374,0.013207,-0.184164,0.117176,0.975797,-0.007385,0.004058,-0.00107,0.00035,0.002206,0.002316,-0.362508,0.017383,-0.931818,0.37095772645864505
1760732792.058687,0.013097,-0.184135,0.117126,0.97581,-0.009181,0.006093,-0.003751,0.000141,-5.3e-05,0.002255,-0.362429,0.017573,-0.931846,0.37087265990894364
1760732792.087944,0.012999,-0.184097,0.117042,0.975828,-0.009458,0.004626,-0.007007,-0.000285,-0.001041,0.00434,-0.362338,0.017725,-0.931878,0.3707752080303333
1760732792.090612,0.012914,-0.184086,0.116939,0.975844,-0.006927,9e-06,-0.006529,-0.00055,-0.001876,0.004996,-0.362298,0.017849,-0.931891,0.3707323591808708
1760732792.137579,0.012849,-0.184071,0.116891,0.975853,-0.005902,0.00294,-0.003216,0.000244,-0.002184,0.004146,-0.362256,0.017955,-0.931906,0.3706870415029446
1760732792.137917,0.012784,-0.184055,0.116843,0.975863,-0.004878,0.005872,9.7e-05,0.001038,-0.002493,0.003296,-0.362213,0.018061,-0.93192,0.37064114959432215
1760732792.166638,0.012708,-0.184017,0.116806,0.975875,-0.00676,0.005052,-0.001471,0.001868,-0.003928,0.004111,-0.362124,0.018186,-0.931953,0.3705453620479706
1760732792.168514,0.012624,-0.183984,0.116755,0.975889,-0.012049,0.003847,-0.003585,0.001205,-0.004264,0.005051,-0.362044,0.018322,-0.931981,0.37045968970219706
1760732792.197756,0.012482,-0.184009,0.116663,0.975897,-0.021558,0.001799,-0.004868,0.000856,-0.003654,0.003999,-0.362061,0.018572,-0.931969,0.37047808894881895
1760732792.227583,0.012255,-0.184028,0.116548,0.97591,-0.028742,0.003214,-0.004544,7.1e-05,-0.002395,0.002622,-0.362046,0.018977,-0.931967,0.37046187724959684
1760732792.22875,0.011967,-0.184011,0.116433,0.97593,-0.036105,0.00596,-0.002901,0.00096,-0.000688,-9.3e-05,-0.36195,0.019493,-0.931994,0.3703587618979764
1760732792.268995,0.011623,-0.183987,0.11632,0.975953,-0.038946,0.008572,-0.003542,0.001894,-0.000807,0.000201,-0.361829,0.020115,-0.932028,0.37022887984758057
1760732792.270113,0.011279,-0.183949,0.116207,0.975977,-0.037543,0.008135,-0.004074,0.00192,-0.000343,0.000617,-0.361682,0.020736,-0.932071,0.37007136207376296
1760732792.300003,0.010947,-0.183908,0.116082,0.976004,-0.035115,0.009635,-0.004877,0.002292,-0.001006,0.00018,-0.361532,0.021329,-0.932116,0.36991040693407745
1760732792.305574,0.010646,-0.183856,0.115951,0.976032,-0.031434,0.00721,-0.006922,0.001989,-0.00116,-0.00011,-0.361367,0.021856,-0.932167,0.36973372204868427
1760732792.333726,0.010368,-0.183827,0.115815,0.976057,-0.027478,0.003785,-0.005966,0.001593,-0.000383,-0.000328,-0.361253,0.02234,-0.9322,0.36961135897832703
1760732792.364484,0.010127,-0.183799,0.115674,0.976081,-0.024801,0.0042,-0.00623,0.002068,0.000915,0.00073,-0.361149,0.022752,-0.93223,0.36949994923452845
1760732792.365808,0.009891,-0.183778,0.115571,0.9761,-0.026471,0.0046,-0.001643,0.001668,0.002508,0.000347,-0.361057,0.023169,-0.932256,0.3694010634423127
1760732792.433992,0.009556,-0.183714,0.115604,0.976111,-0.029239,0.007357,0.002874,0.001214,0.002057,0.000785,-0.360861,0.023821,-0.932315,0.36919105841634847
1760732792.434335,0.00922,-0.183651,0.115637,0.976123,-0.032008,0.010114,0.007391,0.00076,0.001607,0.001223,-0.360664,0.024473,-0.932375,0.36897959645406037
1760732792.434657,0.008885,-0.183587,0.11567,0.976134,-0.034776,0.012871,0.011907,0.000306,0.001156,0.00166,-0.360467,0.025125,-0.932434,0.3687683317087398
1760732792.464177,0.0085,-0.183492,0.115734,0.976148,-0.035449,0.013182,0.01492,0.000468,0.000818,0.002672,-0.360198,0.025879,-0.932517,0.36848007812527556
1760732792.464901,0.008102,-0.183395,0.115831,0.976158,-0.035421,0.013989,0.015609,0.001223,-0.000729,0.002949,-0.359922,0.026669,-0.932601,0.3681843457707105
1760732792.496113,0.007707,-0.183318,0.115914,0.976166,-0.036523,0.012417,0.012131,0.000714,-0.001165,0.002186,-0.359684,0.027451,-0.93267,0.36792930874972396
1760732792.527174,0.007303,-0.183247,0.116,0.976172,-0.038928,0.010755,0.013246,0.000394,-0.000176,0.001384,-0.359455,0.028256,-0.932735,0.367683622918094
1760732792.528406,0.006865,-0.183207,0.116071,0.976174,-0.045508,0.011019,0.01512,0.000133,0.000323,0.001738,-0.359278,0.029128,-0.932776,0.36749408535075395
1760732792.560434,0.006394,-0.183122,0.116137,0.976185,-0.043849,0.0119,0.015932,-0.000568,-0.000809,0.00263,-0.359008,0.03005,-0.932851,0.367204678736252
1760732792.564424,0.005989,-0.183068,0.116212,0.976189,-0.038202,0.00913,0.014223,-0.000926,-0.000545,0.001504,-0.358809,0.030856,-0.932901,0.3669915634461165
1760732792.603329,0.005644,-0.182989,0.11628,0.976198,-0.028716,0.00946,0.009152,-5.2e-05,-0.00038,0.001512,-0.358579,0.031536,-0.932966,0.36674541509868336
1760732792.605369,0.005398,-0.182937,0.116339,0.976202,-0.021363,0.00863,0.007296,-0.00031,-0.000473,0.001798,-0.358424,0.032026,-0.93301,0.36657897280934226
1760732792.634365,0.005195,-0.182916,0.116373,0.976203,-0.015594,0.005111,0.006201,0.000615,-0.000474,0.002464,-0.358336,0.03243,-0.933029,0.3664850148467721
1760732792.664757,0.005072,-0.182945,0.116401,0.976195,-0.006933,-0.000862,0.00156,-0.000268,-0.002388,0.00342,-0.35836,0.032688,-0.933011,0.3665106429668446
1760732792.66597,0.005078,-0.182957,0.116379,0.976195,0.002924,-0.004004,-0.002685,-0.000676,-0.003274,0.003863,-0.358385,0.032671,-0.933002,0.3665374190700139
1760732792.695772,0.005149,-0.183018,0.116343,0.976187,0.00468,-0.00688,-0.004248,-0.001647,-0.001848,0.002345,-0.358519,0.032533,-0.932956,0.3666807207156997
1760732792.734012,0.00518,-0.183027,0.116287,0.976192,0.002631,-0.000235,-0.004994,-0.001717,-0.001492,0.000454,-0.358544,0.032454,-0.932948,0.3667079110587282
1760732792.734289,0.005211,-0.183036,0.116232,0.976197,0.000583,0.00641,-0.005741,-0.001788,-0.001137,-0.001437,-0.358569,0.032376,-0.932941,0.3667347282924126
1760732792.765251,0.005221,-0.182973,0.116169,0.976216,0.000239,0.011629,-0.005342,-0.000633,0.0006,0.000452,-0.358455,0.032319,-0.932987,0.36661253282029493
1760732792.766378,0.00522,-0.182887,0.116132,0.976237,-0.00076,0.006395,-0.00187,0.000785,0.001887,0.003709,-0.358294,0.032287,-0.933051,0.36643970136914666
1760732792.796466,0.005192,-0.182858,0.116117,0.976244,-0.00567,0.003903,-0.000959,0.002265,-0.00057,0.004338,-0.358234,0.032328,-0.933072,0.3663756568321646
1760732792.826415,0.005115,-0.182855,0.116096,0.976248,-0.008682,0.003022,-0.002197,0.002818,-0.002443,0.003883,-0.358211,0.03247,-0.933076,0.36635098596869053
1760732792.829976,0.005016,-0.182854,0.116043,0.976255,-0.013648,0.001439,-0.004017,0.002809,-0.002417,0.003591,-0.358188,0.032644,-0.933079,0.3663262648078609
1760732792.859635,0.004853,-0.182876,0.115979,0.976259,-0.017615,-0.000305,-0.003529,0.001193,-0.001868,0.003948,-0.358194,0.032944,-0.933066,0.36633274591496895
1760732792.862136,0.004675,-0.182903,0.115949,0.976258,-0.021502,0.00198,0.001575,0.000394,-0.0,0.000959,-0.358206,0.033288,-0.933049,0.36634566462963475
1760732792.891425,0.004455,-0.182896,0.115957,0.97626,-0.023247,0.004601,0.006879,-0.000146,0.000507,-2.4e-05,-0.358141,0.033717,-0.933058,0.36627624187001584
1760732792.922476,0.004198,-0.182821,0.116014,0.976268,-0.023936,0.01134,0.012857,0.001145,0.001424,-0.001419,-0.357938,0.034223,-0.933118,0.36605864003000704
1760732792.939281,0.003937,-0.182709,0.116133,0.976276,-0.021968,0.016819,0.0204,0.001321,0.001572,-0.000178,-0.357664,0.03475,-0.933204,0.36576506575089435
1760732792.943205,0.003673,-0.182591,0.116308,0.976278,-0.021286,0.014557,0.02247,0.000637,0.000689,0.003006,-0.357373,0.035302,-0.933294,0.3654537434878273
1760732792.971412,0.00339,-0.182512,0.11651,0.97627,-0.025025,0.009271,0.025306,0.001715,-0.000973,0.003945,-0.357151,0.035911,-0.933356,0.3652159659722772
1760732793.059014,0.003116,-0.182472,0.116613,0.976266,-0.02344,0.007639,0.021506,0.001191,-0.000563,0.003234,-0.357009,0.036474,-0.933389,0.3650637631968941
1760732793.059354,0.002842,-0.182432,0.116715,0.976262,-0.021854,0.006007,0.017706,0.000668,-0.000154,0.002523,-0.356866,0.037037,-0.933421,0.3649108626416965
1760732793.0596,0.002568,-0.182392,0.116817,0.976258,-0.020269,0.004375,0.013905,0.000144,0.000256,0.001812,-0.356724,0.037599,-0.933453,0.36475879020533203
1760732793.060168,0.002294,-0.182352,0.116919,0.976254,-0.018683,0.002743,0.010105,-0.000379,0.000665,0.0011,-0.356581,0.038162,-0.933485,0.36460564918879834
1760732793.063382,0.002092,-0.182351,0.116991,0.976246,-0.016324,-0.000958,0.006481,0.000223,0.000164,0.001333,-0.356528,0.038583,-0.933488,0.36454889860748385
1760732793.093824,0.001944,-0.182391,0.117007,0.976237,-0.012648,-0.002671,0.002939,4.6e-05,0.000494,0.001729,-0.35657,0.038886,-0.933459,0.36459399021558525
1760732793.124729,0.001861,-0.182443,0.116985,0.97623,-0.009169,-0.003233,-0.002257,0.000593,0.000433,0.001233,-0.356648,0.039052,-0.933422,0.36467757587475386
1760732793.125088,0.001781,-0.182501,0.116918,0.976228,-0.009536,-0.002034,-0.004149,0.000633,0.00169,0.001308,-0.356741,0.039198,-0.933381,0.36477688908311673
1760732793.159894,0.001695,-0.182512,0.116853,0.976234,-0.009806,-0.000657,-0.002704,0.00029,0.001554,0.002101,-0.356745,0.039344,-0.933373,0.3647812878431167
1760732793.161791,0.001603,-0.182531,0.116798,0.976237,-0.010459,0.001759,-0.002236,0.000767,0.001285,0.001777,-0.356761,0.039509,-0.93336,0.3647983843987378
1760732793.194954,0.001496,-0.182549,0.11676,0.976238,-0.00985,0.001712,-0.00262,0.000913,0.00078,0.001251,-0.356772,0.039709,-0.933347,0.3648102690039492
1760732793.223937,0.001372,-0.182536,0.116729,0.976244,-0.010353,0.003579,-0.001432,0.000978,0.000558,0.00102,-0.35672,0.039936,-0.933357,0.36475467428092145
1760732793.225249,0.00124,-0.182519,0.116732,0.976247,-0.013462,0.004542,0.002569,0.001584,0.000676,0.001389,-0.356656,0.04019,-0.933371,0.36468600971199866
1760732793.276439,0.00106,-0.182512,0.116765,0.976245,-0.01329,0.002362,0.005993,0.001556,-1.2e-05,0.001246,-0.3566,0.040553,-0.933377,0.36462595998753344
1760732793.276734,0.000879,-0.182505,0.116797,0.976243,-0.013119,0.000182,0.009417,0.001528,-0.000699,0.001103,-0.356544,0.040915,-0.933382,0.36456623199288485
1760732793.282361,0.000721,-0.1825,0.116859,0.976236,-0.011821,0.002109,0.00938,0.001665,0.000186,-0.000969,-0.356495,0.041245,-0.933386,0.3645138541183225
1760732793.332762,0.000585,-0.182493,0.116961,0.976225,-0.01095,0.002475,0.010467,0.00118,0.000343,-0.000865,-0.356445,0.041548,-0.933392,0.3644602164109721
1760732793.333078,0.000448,-0.182486,0.117064,0.976215,-0.010078,0.002842,0.011555,0.000695,0.0005,-0.000761,-0.356395,0.04185,-0.933398,0.36440655981194764
1760732793.363451,0.000324,-0.182465,0.117165,0.976206,-0.008554,0.001797,0.009885,0.001338,-0.000129,-0.000153,-0.356324,0.042124,-0.933413,0.36433049330221196
1760732793.364596,0.000204,-0.182458,0.117245,0.976198,-0.00906,0.000907,0.008208,0.000578,-5.6e-05,-6.6e-05,-0.356278,0.042387,-0.933418,0.36428149479300714
1760732793.394698,8.2e-05,-0.182475,0.117296,0.976189,-0.008933,-0.000416,0.003606,0.00025,-2.4e-05,-2.9e-05,-0.35628,0.042646,-0.933406,0.36428343568264326
1760732793.423921,-2.5e-05,-0.182497,0.117291,0.976185,-0.010852,-0.001154,-0.001068,-7.7e-05,-0.000364,0.000375,-0.356295,0.042859,-0.93339,0.36429967363460825
1760732793.425939,-0.000138,-0.182507,0.117243,0.976189,-0.012593,-0.000339,-0.002482,-0.000272,-7.9e-05,0.001716,-0.35629,0.043065,-0.933383,0.36429411845662607
1760732793.455356,-0.000267,-0.182508,0.117189,0.976195,-0.013887,0.001858,-0.003267,0.000102,-0.000524,0.001993,-0.356265,0.043297,-0.933381,0.36426765090651514
1760732793.462015,-0.000393,-0.182538,0.117129,0.976197,-0.009888,0.002114,-0.00367,0.0006,-0.001245,0.00259,-0.356295,0.043529,-0.933359,0.36429967158673066
1760732793.491115,-0.000471,-0.182525,0.117065,0.976207,-0.009222,0.002574,-0.004021,0.00017,-0.00134,0.003538,-0.356254,0.043653,-0.933369,0.3642557420821344
1760732793.525838,-0.000558,-0.182523,0.116981,0.976217,-0.010729,0.001696,-0.002788,0.002117,-0.000837,0.003039,-0.356234,0.043793,-0.93337,0.3642343646115697
1760732793.527842,-0.000679,-0.182549,0.11692,0.97622,-0.01461,-0.001781,-0.003407,0.002707,-0.000545,0.004393,-0.356256,0.044014,-0.933351,0.3642579832035376
1760732793.556386,-0.000808,-0.182637,0.116848,0.976212,-0.012314,-0.006254,-0.004526,0.002542,-0.001116,0.002525,-0.356396,0.044259,-0.933286,0.3644078054095075
1760732793.561126,-0.000896,-0.182724,0.116777,0.976204,-0.009911,-0.007792,-0.005607,0.001076,-0.000473,0.001069,-0.356543,0.044426,-0.933222,0.36456511155553756
1760732793.602637,-0.000965,-0.182793,0.116729,0.976197,-0.006256,-0.005967,-0.002555,0.000563,0.002284,0.001152,-0.356658,0.044557,-0.933172,0.36468813623714225
1760732793.602936,-0.000982,-0.182835,0.116727,0.976189,0.001479,-0.003054,0.002007,0.00049,0.001721,0.000487,-0.356733,0.0446,-0.933141,0.364768515871653
1760732793.636211,-0.000972,-0.182828,0.116788,0.976183,0.00146,0.000114,0.005763,-0.000257,0.0013,0.00051,-0.35672,0.044602,-0.933146,0.36475455549495767
1760732793.642895,-0.000971,-0.182845,0.116876,0.976169,0.000899,0.003323,0.007169,-0.001433,-0.000698,-0.001549,-0.356748,0.044636,-0.933134,0.36478440988572225
1760732793.673105,-0.000998,-0.182745,0.11697,0.976177,-0.000118,0.012545,0.006435,-0.000833,-0.000634,-0.003512,-0.35655,0.044699,-0.933206,0.3645727070305567
1760732793.703221,-0.001047,-0.182573,0.117015,0.976204,-0.000724,0.019019,0.005156,-0.00128,0.000891,-0.000856,-0.356212,0.044772,-0.933332,0.36421080169432846
1760732793.71543,-0.001127,-0.182426,0.117072,0.976224,-0.006031,0.014088,0.005041,-0.000267,-0.000147,0.004192,-0.355913,0.044914,-0.933439,0.36389091638820176
1760732793.72162,-0.001224,-0.182326,0.117091,0.97624,-0.007715,0.008454,0.001988,0.002158,-0.002098,0.005869,-0.355702,0.045087,-0.933511,0.36366517195916354
1760732793.75187,-0.001317,-0.18227,0.117062,0.976254,-0.009907,0.002354,-0.005049,0.002191,-0.003862,0.006875,-0.355575,0.045246,-0.933552,0.3635291779488837
1760732793.782305,-0.00143,-0.182286,0.116961,0.976263,-0.012668,-0.002975,-0.009761,0.002013,-0.002825,0.004719,-0.355584,0.045432,-0.93354,0.3635386433963569
1760732793.782645,-0.001563,-0.182329,0.116841,0.976269,-0.014284,-0.003333,-0.005323,0.001346,0.000367,0.001955,-0.355639,0.045659,-0.933508,0.36359748054037716
1760732793.835491,-0.001729,-0.182343,0.116881,0.976262,-0.014369,0.000221,0.005549,0.001107,0.001494,-8.7e-05,-0.355625,0.046001,-0.933496,0.363582694213738
1760732793.835889,-0.001895,-0.182358,0.11692,0.976254,-0.014454,0.003776,0.016421,0.000869,0.002621,-0.002129,-0.355612,0.046342,-0.933484,0.3635688155898786
1760732793.84002,-0.002042,-0.182334,0.11706,0.976241,-0.008143,0.008273,0.018435,0.00029,0.000672,-0.001277,-0.355525,0.046675,-0.933501,0.3634755720208327
1760732793.86902,-0.002152,-0.182271,0.117207,0.976235,-0.005407,0.004074,0.013811,-0.000477,0.000902,0.000591,-0.355374,0.046928,-0.933545,0.36331430998131853
1760732793.898764,-0.002257,-0.18228,0.117304,0.976222,-0.004439,-0.000173,0.007881,-3.7e-05,-0.000545,0.001138,-0.355362,0.047171,-0.933538,0.3633012310307506
1760732793.899922,-0.002317,-0.18231,0.117366,0.976209,-0.000952,-0.005525,0.001966,-0.000826,-0.000389,0.004902,-0.355401,0.047318,-0.933515,0.3633432080243431
1760732793.934988,-0.002309,-0.182392,0.117376,0.976192,-0.000649,-0.015104,-0.001085,-0.001227,-0.00159,0.004419,-0.355557,0.047324,-0.933456,0.36350985717042594
1760732793.941833,-0.002304,-0.182527,0.117346,0.97617,-0.002025,-0.009866,-0.004678,-0.000634,-0.001464,0.000985,-0.355815,0.047336,-0.933357,0.363785936924228
1760732793.970002,-0.0023,-0.182562,0.11727,0.976173,-0.001843,-0.001059,-0.004695,-6.5e-05,-0.000225,-5e-06,-0.355885,0.047308,-0.933332,0.363860744288928
1760732794.001019,-0.002326,-0.182578,0.117209,0.976177,-0.002539,0.001038,-0.003081,4.2e-05,0.00032,0.000404,-0.355912,0.047341,-0.933319,0.3638900024488861
1760732794.001285,-0.002323,-0.182589,0.117173,0.97618,-0.000319,-0.000686,-0.000245,0.00054,-0.000484,0.003195,-0.355934,0.047324,-0.933312,0.36391335651875084
1760732794.030493,-0.002294,-0.18259,0.117188,0.976177,0.000964,-0.000641,8.7e-05,0.001437,-0.002779,0.003692,-0.355944,0.047273,-0.933311,0.3639239758688124
1760732794.061095,-0.002288,-0.182641,0.117183,0.976169,-0.00123,-0.00146,-0.000153,0.001127,-0.003482,0.004615,-0.35604,0.047272,-0.933274,0.3640268596673979
1760732794.063015,-0.002328,-0.18266,0.117163,0.976167,-0.008689,0.000406,-0.001369,0.000418,-0.002695,0.003167,-0.356067,0.047346,-0.93326,0.3640557346881984
1760732794.091963,-0.00247,-0.182664,0.117101,0.976174,-0.015938,0.003448,-0.001785,0.000751,-0.002148,0.003088,-0.356044,0.047602,-0.933256,0.3640310336360746
1760732794.123415,-0.002625,-0.182659,0.117052,0.97618,-0.017029,0.003185,-0.000759,0.001205,-0.001597,0.001828,-0.356002,0.047886,-0.933258,0.3639859085852283
1760732794.125488,-0.002769,-0.182635,0.117018,0.976188,-0.014599,0.004753,0.00085,0.000811,0.000568,0.001139,-0.355924,0.048149,-0.933274,0.3639025193357827
1760732794.157227,-0.002893,-0.182597,0.117033,0.976193,-0.012319,0.004056,0.005978,0.000907,0.001349,-0.00078,-0.355823,0.048388,-0.9333,0.3637944980417985
1760732794.159285,-0.003028,-0.182581,0.117089,0.976189,-0.010242,0.00603,0.005548,0.000843,-6.7e-05,-0.000627,-0.355757,0.048667,-0.93331,0.3637241092043934
1760732794.190071,-0.003135,-0.182549,0.117127,0.97619,-0.01036,0.002725,0.002897,0.002062,-0.000164,0.000448,-0.355671,0.048883,-0.933332,0.3636319091269408
1760732794.23683,-0.003237,-0.182579,0.117108,0.976186,-0.009957,0.000118,0.000814,0.001592,6.9e-05,0.00111,-0.355705,0.049082,-0.933309,0.3636681455930889
1760732794.237103,-0.003339,-0.182609,0.117089,0.976183,-0.009553,-0.002489,-0.001269,0.001123,0.000301,0.001773,-0.355738,0.049282,-0.933285,0.36370376871659105
1760732794.240122,-0.003428,-0.18267,0.117052,0.976175,-0.007031,-0.003419,-0.00088,0.001621,0.000166,0.001299,-0.355834,0.049456,-0.93324,0.3638062049572551
1760732794.276316,-0.003493,-0.182707,0.11704,0.97617,-0.005715,-0.005669,0.001121,0.00198,-0.00083,0.002037,-0.355889,0.049588,-0.933212,0.36386506551420256
1760732794.277612,-0.003565,-0.182751,0.117028,0.976163,-0.003551,-0.005325,0.002096,0.000842,9.7e-05,0.001211,-0.355955,0.049734,-0.933179,0.3639357109141014
1760732794.307681,-0.003624,-0.182781,0.117025,0.976157,-0.003289,-0.003216,0.002289,0.001445,-0.000335,0.000661,-0.355998,0.049855,-0.933156,0.36398177486517863
1760732794.337531,-0.003681,-0.182836,0.117037,0.976145,-0.003326,-0.003238,0.001529,0.00175,-8.2e-05,0.000865,-0.356088,0.049983,-0.933115,0.3640780195092311
1760732794.338762,-0.003721,-0.182885,0.117065,0.976133,-0.002615,-0.004382,0.002259,0.001143,0.001152,-8.2e-05,-0.356168,0.050083,-0.933079,0.36416366984879234
1760732794.378741,-0.00374,-0.182934,0.117086,0.976121,-0.003323,-0.003604,0.003189,-5e-05,0.001055,0.000292,-0.356256,0.05014,-0.933042,0.364257969484035
1760732794.379978,-0.003777,-0.182957,0.117152,0.976109,-0.006082,-0.00069,0.008199,-1.9e-05,0.000406,0.000112,-0.356286,0.050241,-0.933025,0.36429011598083316
1760732794.41091,-0.003847,-0.182951,0.117226,0.976101,-0.003697,0.001977,0.007998,-0.000335,-0.000185,0.001303,-0.356255,0.050404,-0.933028,0.3642569552883014
1760732794.430361,-0.003902,-0.182941,0.11728,0.976096,-0.002263,0.002835,0.004555,-0.000328,-0.000454,0.000919,-0.356221,0.050529,-0.933034,0.3642206464836694
1760732794.45911,-0.003978,-0.182913,0.117316,0.976096,-0.005386,0.002592,0.00097,0.00024,-0.000746,0.000868,-0.356147,0.050684,-0.933054,0.3641413964454274
1760732794.459849,-0.004068,-0.182917,0.117302,0.976097,-0.006863,0.000793,-0.002092,0.000528,-0.000431,0.001271,-0.356135,0.050854,-0.93305,0.36412831628015185
1760732794.490101,-0.004148,-0.182938,0.117255,0.976098,-0.008702,-0.00037,-0.0043,0.000768,-0.000353,0.000579,-0.356158,0.050998,-0.933033,0.3641530586494644
1760732794.557639,-0.004154,-0.182986,0.117171,0.976099,-0.005399,-0.00137,-0.003691,0.000485,0.000575,0.000755,-0.356251,0.05099,-0.932998,0.3642525626908938
1760732794.557972,-0.00416,-0.183033,0.117087,0.9761,-0.002097,-0.002371,-0.003083,0.000203,0.001504,0.00093,-0.356344,0.050982,-0.932963,0.36435206670460724
1760732794.558696,-0.004166,-0.183081,0.117003,0.976102,0.001206,-0.003372,-0.002475,-7.9e-05,0.002432,0.001105,-0.356437,0.050975,-0.932928,0.36445155124218015
1760732794.55913,-0.004128,-0.183132,0.117001,0.976093,0.006304,-0.002313,0.000894,0.000851,0.000618,0.002312,-0.356541,0.050912,-0.932892,0.3645627574501698
1760732794.58838,-0.004034,-0.183097,0.117062,0.976092,0.007506,0.001053,0.004528,-0.000657,-0.000354,0.00162,-0.356495,0.050743,-0.932918,0.3645138022727652
1760732794.617783,-0.003985,-0.183089,0.117162,0.976082,0.00366,0.005573,0.006822,-0.001534,-0.000613,-0.000445,-0.356486,0.050681,-0.932925,0.3645041015036941
1760732794.619819,-0.004026,-0.182973,0.117229,0.976095,-0.001516,0.018562,0.005666,-0.000786,-0.001525,-0.00145,-0.356255,0.050759,-0.933009,0.3642568679463972
1760732794.648965,-0.004099,-0.182807,0.117251,0.976124,-0.003684,0.018,0.003709,-0.00022,-0.000134,-0.00011,-0.355922,0.050871,-0.93313,0.3639005036226529
1760732794.680299,-0.004133,-0.182678,0.117249,0.976148,-0.001101,0.006581,-0.000343,0.000853,0.001928,0.002206,-0.355672,0.050906,-0.933224,0.3636327894897921
1760732794.682049,-0.00414,-0.182707,0.117201,0.976148,-0.002922,-0.007743,-0.005299,0.00234,0.007386,-0.001855,-0.355727,0.05091,-0.933202,0.3636919287738165
1760732794.713692,-0.00414,-0.182815,0.117113,0.976138,-0.004701,-0.016352,-0.007137,0.001704,0.016248,-0.010067,-0.355936,0.050903,-0.933123,0.36391545440664813
1760732794.717603,-0.00419,-0.183015,0.117014,0.976113,-0.007936,-0.018668,-0.006483,-0.002551,0.026858,-0.021605,-0.356306,0.051011,-0.932976,0.3643113716425638
1760732794.748898,-0.004218,-0.183162,0.116942,0.976093,0.006491,-0.01089,-0.003389,-0.007089,0.033604,-0.029994,-0.35658,0.051073,-0.932868,0.3646046055219258
1760732794.779572,-0.004005,-0.183221,0.11692,0.976086,0.040397,-0.009255,-0.009348,-0.008305,0.035926,-0.032106,-0.356743,0.050663,-0.932828,0.3647790929995981
1760732794.781236,-0.00342,-0.183248,0.116892,0.976087,0.082887,-0.01035,-0.02017,-0.008811,0.037257,-0.031576,-0.356932,0.049517,-0.932817,0.36498149714333583
1760732794.813671,-0.002457,-0.183241,0.116842,0.976097,0.123568,-0.012646,-0.035305,-0.005316,0.036511,-0.028082,-0.357147,0.047617,-0.932834,0.36521153624809316
1760732794.82784,-0.00115,-0.183245,0.116686,0.976117,0.152484,-0.021894,-0.054289,-0.002548,0.034337,-0.01979,-0.357469,0.045009,-0.93284,0.36555634614520605
1760732794.857846,0.00044,-0.18331,0.116386,0.976141,0.173462,-0.033382,-0.076143,0.002877,0.032999,-0.0125,-0.357975,0.041811,-0.932795,0.36609812290953586
1760732794.861634,0.002224,-0.183491,0.115967,0.976155,0.191197,-0.047447,-0.084672,0.003607,0.031055,-0.005502,-0.358746,0.038215,-0.932653,0.3669239872927307
1760732794.890053,0.004129,-0.183787,0.115533,0.976144,0.194536,-0.058975,-0.082505,0.00608,0.031956,-0.004965,-0.359759,0.034406,-0.932411,0.36800947400641176
1760732794.919048,0.006014,-0.184145,0.115157,0.976111,0.191227,-0.056941,-0.074636,0.005892,0.029839,-0.011109,-0.360876,0.030671,-0.932109,0.3692071373804732
1760732794.919884,0.007858,-0.184419,0.114807,0.976088,0.193816,-0.051852,-0.069656,0.004721,0.029919,-0.01307,-0.361822,0.027006,-0.931856,0.37022155406060225
1760732794.950227,0.009701,-0.184671,0.114546,0.976054,0.199064,-0.050546,-0.062679,0.001254,0.032374,-0.01481,-0.36272,0.02337,-0.931605,0.3711850481540258
1760732794.980134,0.011589,-0.1849,0.11436,0.976012,0.205387,-0.051571,-0.057631,-0.001384,0.034662,-0.020233,-0.363579,0.019668,-0.931356,0.37210685428173906
1760732794.981185,0.01351,-0.185106,0.114212,0.975966,0.206393,-0.047754,-0.056239,-0.002763,0.036563,-0.021374,-0.3644,0.015912,-0.931107,0.3729882653436727
1760732795.018728,0.01543,-0.185271,0.114079,0.975921,0.204054,-0.041732,-0.05458,-0.003225,0.035339,-0.021678,-0.36514,0.012153,-0.930873,0.3737832886953659
1760732795.020027,0.017367,-0.185396,0.113927,0.975883,0.215149,-0.037899,-0.064969,-0.000796,0.027412,-0.01193,-0.365807,0.008346,-0.930653,0.3744998667189249
1760732795.050043,0.019464,-0.18548,0.113675,0.975857,0.234259,-0.037824,-0.080778,0.001038,0.023827,-0.007859,-0.366429,0.00418,-0.930436,0.3751683915680766
1760732795.114748,0.021721,-0.185616,0.113304,0.975826,0.225721,-0.043076,-0.078338,0.003103,0.027844,-0.006973,-0.367179,-0.000329,-0.93015,0.37597444423935333
1760732795.115013,0.023977,-0.18575,0.112933,0.975791,0.217184,-0.048327,-0.075898,0.005161,0.031861,-0.006107,-0.367922,-0.004838,-0.929844,0.37677330286319755
1760732795.115322,0.026233,-0.185883,0.112561,0.975751,0.208647,-0.053579,-0.073458,0.007211,0.035878,-0.00526,-0.368657,-0.009347,-0.929518,0.3775640309499862
1760732795.120481,0.028102,-0.18621,0.112291,0.975668,0.168842,-0.062205,-0.054104,0.007457,0.039816,-0.00929,-0.369669,-0.013018,-0.929072,0.37865287660907965
1760732795.159152,0.029374,-0.186626,0.112129,0.975569,0.105791,-0.057309,-0.030697,0.00684,0.043801,-0.021443,-0.370721,-0.015461,-0.928616,0.37978506231895576
1760732795.159819,0.029911,-0.186972,0.11212,0.975488,0.037586,-0.042079,-0.004713,0.000383,0.049167,-0.021312,-0.371485,-0.016429,-0.928294,0.3806078152668441
1760732795.189965,0.029648,-0.187276,0.112279,0.975419,-0.041685,-0.021135,0.032572,-0.003648,0.051621,-0.021574,-0.372004,-0.015784,-0.928097,0.3811670037621547
1760732795.219176,0.028719,-0.187511,0.11267,0.975357,-0.073997,-0.020876,0.05326,-0.005895,0.033112,-0.01025,-0.372252,-0.013769,-0.92803,0.3814340593891712
1760732795.22289,0.027619,-0.187617,0.113091,0.975319,-0.073937,0.006202,0.047818,-0.002705,0.0149,-0.012538,-0.372219,-0.011439,-0.928074,0.38139883192772256
1760732795.251398,0.026568,-0.187427,0.113425,0.975346,-0.066544,0.036072,0.034984,0.001185,0.014935,-0.005355,-0.37164,-0.009308,-0.92833,0.3807750179259028
1760732795.257907,0.02543,-0.187106,0.113726,0.975403,-0.08911,0.054593,0.048538,0.001949,0.02523,0.004353,-0.370791,-0.007052,-0.92869,0.3798604270836505
1760732795.287832,0.024019,-0.186597,0.114217,0.975479,-0.116082,0.083677,0.081463,0.002676,0.014096,0.01679,-0.369529,-0.004234,-0.92921,0.37850192683266676
1760732795.318166,0.022507,-0.185946,0.114917,0.975557,-0.127221,0.083554,0.101145,0.001721,-0.002806,0.030751,-0.367975,-0.001178,-0.929835,0.3768302526944621
1760732795.318467,0.020943,-0.18527,0.115774,0.975619,-0.116752,0.088433,0.115298,0.000813,-0.019922,0.036868,-0.366354,0.002033,-0.930473,0.37508767691249784
1760732795.346331,0.019714,-0.184729,0.116663,0.975641,-0.062211,0.052734,0.089702,0.001417,-0.037608,0.038726,-0.365059,0.004635,-0.930973,0.3736961204978295
1760732795.416045,0.019647,-0.184511,0.117021,0.975641,-0.039446,0.040149,0.067868,0.001065,-0.031868,0.031505,-0.364631,0.004845,-0.93114,0.37323630503556227
1760732795.41655,0.019581,-0.184292,0.117378,0.975641,-0.016682,0.027563,0.046034,0.000713,-0.026128,0.024284,-0.364202,0.005055,-0.931306,0.3727759057437462
1760732795.416722,0.019515,-0.184073,0.117736,0.97564,0.006083,0.014977,0.0242,0.000361,-0.020387,0.017062,-0.363774,0.005265,-0.931472,0.3723164203041443
1760732795.417975,0.019698,-0.183857,0.118009,0.975645,0.0109,0.034155,0.029456,0.00231,-0.031377,0.014224,-0.363408,0.004958,-0.931617,0.37192336235186724
1760732795.446329,0.019857,-0.183495,0.11829,0.975676,0.003943,0.039425,0.029931,0.005198,-0.041143,0.020986,-0.362761,0.004664,-0.931871,0.37122884518874055
1760732795.475061,0.019825,-0.18304,0.118577,0.975727,-0.017582,0.058345,0.036632,0.00709,-0.052016,0.023266,-0.361897,0.004721,-0.932206,0.370302071213216
1760732795.477174,0.019514,-0.182409,0.118912,0.97581,-0.038485,0.077007,0.04551,0.008794,-0.060375,0.037152,-0.360635,0.005297,-0.932692,0.368948612431985
1760732795.506279,0.019007,-0.181794,0.119281,0.97589,-0.061421,0.059959,0.048033,0.008371,-0.057875,0.053556,-0.359356,0.006271,-0.933179,0.367577875572501
1760732795.5372,0.018417,-0.181469,0.119681,0.975913,-0.06141,0.028276,0.053199,0.007838,-0.064308,0.051146,-0.358605,0.007491,-0.933459,0.3667731925232127
1760732795.544423,0.018208,-0.181374,0.120055,0.975889,-0.001671,-0.003865,0.034791,0.002419,-0.079928,0.042174,-0.358374,0.008012,-0.933544,0.3665255248107776
1760732795.567718,0.018832,-0.181496,0.120262,0.975829,0.080738,-0.033288,0.003393,-0.002844,-0.075872,0.027835,-0.358748,0.006901,-0.933409,0.36692624224902937
1760732795.603799,0.020262,-0.181818,0.12032,0.975733,0.142146,-0.05438,-0.017892,-0.00412,-0.059347,0.017296,-0.359687,0.004211,-0.933064,0.3679322478402654
1760732795.605483,0.022131,-0.182157,0.12034,0.975627,0.161077,-0.048987,-0.021614,-0.004921,-0.035056,0.00338,-0.360761,0.000658,-0.932658,0.3690837358624522
1760732795.633972,0.024016,-0.182351,0.120399,0.975539,0.139483,-0.028127,-0.006984,-0.00287,-0.01813,-0.004985,-0.361564,-0.002947,-0.932343,0.3699447034947272
1760732795.635978,0.025521,-0.182394,0.120553,0.975473,0.093661,-0.013493,0.007551,-0.00157,-0.007003,-0.000176,-0.361995,-0.005813,-0.932162,0.37040711892424205
1760732795.665352,0.026392,-0.182418,0.120779,0.975418,0.027517,0.000371,0.022937,-0.00026,-0.000787,0.001349,-0.362243,-0.007422,-0.932054,0.3706732590744488
1760732795.714128,0.025983,-0.182315,0.120957,0.975426,-0.033148,0.0167,0.026838,0.002455,-0.001337,0.001244,-0.361954,-0.006584,-0.932173,0.370363061860656
1760732795.714446,0.025573,-0.182211,0.121136,0.975434,-0.093814,0.03303,0.030739,0.00517,-0.001887,0.001138,-0.361665,-0.005745,-0.93229,0.3700533174904675
1760732795.715131,0.024557,-0.181995,0.121182,0.975495,-0.11463,0.040781,0.014193,0.005636,-0.015983,0.005598,-0.361021,-0.003801,-0.93255,0.3693624783862977
1760732795.747981,0.023521,-0.181783,0.120997,0.975582,-0.09117,0.029217,-0.016588,0.001606,-0.029049,0.014509,-0.360381,-0.001903,-0.932803,0.3686763987050113
1760732795.778339,0.0229,-0.181689,0.120531,0.975673,-0.040606,0.003166,-0.053208,-0.00205,-0.039349,0.019149,-0.360059,-0.000887,-0.932929,0.36833117497257695
1760732795.778683,0.022957,-0.18174,0.119805,0.975751,0.020822,-0.018111,-0.087847,-0.004062,-0.044752,0.017161,-0.360167,-0.001254,-0.932887,0.3684469021998439
1760732795.806426,0.023778,-0.181913,0.118915,0.975808,0.08614,-0.03609,-0.104393,-0.007288,-0.042505,0.014012,-0.36068,-0.003142,-0.932684,0.3689969851996353
1760732795.842228,0.025323,-0.182089,0.11806,0.97584,0.1444,-0.036135,-0.101906,-0.007812,-0.039946,0.014001,-0.361359,-0.006426,-0.932405,0.3697248331859494
1760732795.843551,0.027396,-0.182251,0.11738,0.975836,0.186747,-0.038281,-0.087512,-0.011001,-0.037142,0.014408,-0.362125,-0.010682,-0.932068,0.37054673376677666
1760732795.872829,0.029687,-0.182326,0.116976,0.975804,0.191875,-0.026224,-0.055651,-0.01038,-0.027149,0.006014,-0.362774,-0.015281,-0.931752,0.37124290898247203
1760732795.876504,0.031741,-0.182322,0.116932,0.975745,0.166599,-0.003487,-0.013897,-0.008238,-0.020701,-0.001288,-0.363223,-0.019304,-0.931502,0.37172491478653263
1760732795.906515,0.033406,-0.182113,0.117228,0.975693,0.134607,0.015544,0.019809,-0.006876,-0.031257,0.002152,-0.363204,-0.02249,-0.931438,0.37170449763689545
1760732795.93894,0.03474,-0.181846,0.117632,0.975647,0.113206,0.010884,0.018779,-0.008241,-0.04151,0.012599,-0.363007,-0.025006,-0.931451,0.3714929396690603
1760732795.940066,0.035848,-0.181797,0.117909,0.975583,0.093809,-0.00869,0.007536,-0.006076,-0.042859,0.012577,-0.36317,-0.027075,-0.931329,0.3716680999270047
1760732795.967791,0.036827,-0.181926,0.117999,0.975512,0.084137,-0.025491,-0.011636,-0.003729,-0.041771,0.009798,-0.363633,-0.028916,-0.931093,0.37216506592603077
1760732796.014404,0.037944,-0.18217,0.117778,0.97545,0.08418,-0.030165,-0.028522,-0.002426,-0.035544,0.008286,-0.364334,-0.031114,-0.930749,0.37291734472474203
1760732796.014749,0.039062,-0.182414,0.117557,0.975387,0.084223,-0.03484,-0.045408,-0.001125,-0.029317,0.006769,-0.365032,-0.033313,-0.930399,0.37366709308036333
1760732796.015035,0.04025,-0.182663,0.117203,0.975335,0.084882,-0.0323,-0.04648,-0.000543,-0.024979,0.005734,-0.36575,-0.035697,-0.930028,0.3744386234421494
1760732796.047852,0.041433,-0.182846,0.116852,0.975293,0.083018,-0.031912,-0.044109,-0.000955,-0.024036,0.003868,-0.36634,-0.038087,-0.929701,0.3750725965433657
1760732796.07852,0.042561,-0.183055,0.116532,0.975244,0.084103,-0.030272,-0.041256,-9.7e-05,-0.026159,0.001605,-0.366965,-0.040351,-0.929359,0.3757443612958318
1760732796.079697,0.043671,-0.183272,0.11622,0.975191,0.08714,-0.039015,-0.039554,-0.001654,-0.028768,0.003268,-0.3676,-0.042576,-0.929009,0.3764269715561203
1760732796.109808,0.04482,-0.183533,0.115944,0.975123,0.099586,-0.048506,-0.041938,-0.001262,-0.024078,0.005103,-0.368327,-0.044852,-0.928614,0.3772087779127189
1760732796.116663,0.046112,-0.18394,0.115718,0.975012,0.110844,-0.060052,-0.034987,-0.001702,-0.014731,0.00264,-0.36936,-0.047349,-0.928079,0.3783203515252782
1760732796.146935,0.047482,-0.184345,0.115593,0.974885,0.118748,-0.060745,-0.020375,-0.001653,-0.007429,0.001232,-0.370407,-0.049961,-0.927525,0.3794471349358806
1760732796.177234,0.048876,-0.184728,0.115627,0.974739,0.117122,-0.053389,-0.005142,0.000222,-0.004411,0.000569,-0.371426,-0.052564,-0.926973,0.38054458409057756
1760732796.177538,0.050117,-0.185063,0.115785,0.974594,0.099516,-0.044557,0.007263,0.000914,-0.002569,0.001365,-0.372328,-0.054832,-0.92648,0.381516134087804
1760732796.207339,0.05107,-0.18535,0.116036,0.97446,0.078331,-0.033517,0.016903,0.001015,-0.006224,0.002791,-0.373084,-0.056516,-0.926075,0.3823306815560946
1760732796.236592,0.051862,-0.185595,0.116281,0.974343,0.072642,-0.036807,0.005788,-0.002738,-0.013358,0.008981,-0.373727,-0.0579,-0.92573,0.3830238818320159
1760732796.240384,0.052698,-0.18591,0.116387,0.974225,0.085634,-0.045729,-0.00986,-0.004279,-0.011477,0.007897,-0.374503,-0.059405,-0.925321,0.3838606272598752
1760732796.31338,0.053806,-0.186318,0.116306,0.974096,0.093336,-0.04838,-0.01515,-0.005115,-0.008451,0.006295,-0.375499,-0.061485,-0.924781,0.3849351543803672
1760732796.313845,0.054914,-0.186725,0.116225,0.973966,0.101038,-0.05103,-0.020439,-0.005951,-0.005425,0.004686,-0.376493,-0.063564,-0.924236,0.3860079212761841
1760732796.314289,0.056021,-0.187133,0.116144,0.973834,0.108739,-0.053681,-0.025729,-0.00679,-0.0024,0.003073,-0.377486,-0.065642,-0.923686,0.3870798539835428
1760732796.314625,0.057259,-0.187498,0.116056,0.973703,0.117697,-0.048188,-0.028466,-0.006013,-0.006698,0.004576,-0.378426,-0.067986,-0.923131,0.38809541180595464
1760732796.347145,0.058646,-0.187884,0.115931,0.973561,0.141465,-0.052742,-0.040977,-0.004532,-0.012009,0.002827,-0.37943,-0.070627,-0.922521,0.38918008902160917
1760732796.355333,0.060359,-0.188256,0.115682,0.973414,0.175778,-0.057921,-0.06344,0.000321,-0.015459,0.003654,-0.380466,-0.073952,-0.921833,0.39030027239063747
1760732796.385094,0.062356,-0.188651,0.115278,0.973259,0.19316,-0.066296,-0.086336,0.002921,-0.015745,0.00199,-0.381589,-0.077883,-0.921045,0.3915148042905943
1760732796.414977,0.06446,-0.189068,0.114699,0.97311,0.185006,-0.068539,-0.09851,0.004421,-0.010195,-0.001183,-0.382754,-0.082082,-0.920196,0.3927757221184664
1760732796.416097,0.066376,-0.189464,0.113997,0.972986,0.150721,-0.067005,-0.098522,0.004391,1e-06,-0.000462,-0.383826,-0.08597,-0.919395,0.3939360210173189
1760732796.446611,0.06789,-0.189839,0.113292,0.972891,0.10399,-0.0648,-0.08167,0.004279,0.0081,-0.002626,-0.384769,-0.089084,-0.918704,0.3949575041959712
1760732796.476384,0.068965,-0.190302,0.112689,0.972795,0.06799,-0.066016,-0.059071,0.001891,0.016935,-0.003373,-0.385793,-0.091288,-0.918058,0.39606716138429715
1760732796.477469,0.069707,-0.19077,0.112289,0.972697,0.049939,-0.056979,-0.038387,0.004177,0.019887,-0.005748,-0.386777,-0.092765,-0.917496,0.39713386799832406
1760732796.508499,0.070282,-0.191078,0.112059,0.972621,0.052477,-0.042991,-0.025229,0.004561,0.015306,-0.001969,-0.387445,-0.093891,-0.917099,0.3978585594069288
1760732796.515345,0.070833,-0.191316,0.111952,0.972547,0.062401,-0.032732,-0.017626,0.001556,0.011369,-0.001857,-0.387987,-0.09494,-0.916762,0.3984464779465059
1760732796.543834,0.071417,-0.191498,0.111902,0.972474,0.066387,-0.027327,-0.018729,0.002478,0.010883,-0.001594,-0.388438,-0.096044,-0.916456,0.39893584984961933
1760732796.574468,0.071962,-0.191635,0.11187,0.972411,0.068505,-0.016528,-0.016172,0.002246,0.006563,-0.002436,-0.388798,-0.097077,-0.916195,0.39932635389702686
1760732796.576568,0.072616,-0.191626,0.111836,0.972368,0.080651,-0.010028,-0.021267,0.000121,0.002341,-0.001238,-0.388903,-0.098358,-0.916013,0.399440629367926
1760732796.611992,0.07341,-0.191636,0.111739,0.972317,0.090513,-0.015027,-0.029572,-0.001285,0.001017,0.003668,-0.389068,-0.09993,-0.915773,0.3996196410352047
1760732796.613368,0.074304,-0.191679,0.111565,0.972261,0.096734,-0.021903,-0.037102,-0.001205,-0.001098,0.003471,-0.389303,-0.101716,-0.915477,0.39987454151513163
1760732796.643393,0.075259,-0.191705,0.11133,0.972209,0.095091,-0.022538,-0.045842,-0.001113,-0.002194,0.001881,-0.389512,-0.103651,-0.91517,0.40010184390138864
1760732796.672764,0.076224,-0.191779,0.111025,0.972154,0.089965,-0.020015,-0.052027,-0.001249,-0.002413,0.002518,-0.389802,-0.105618,-0.914822,0.4004165643740341
1760732796.674618,0.077108,-0.191832,0.11067,0.972115,0.079598,-0.017461,-0.051864,-0.00209,-0.000543,0.001924,-0.390033,-0.107455,-0.91451,0.4006672490354432
1760732796.704482,0.077903,-0.19188,0.110334,0.97208,0.067073,-0.011301,-0.047271,-0.002413,0.001608,0.001147,-0.390237,-0.109115,-0.914226,0.4008889496428877
1760732796.749917,0.078598,-0.191869,0.109996,0.972064,0.060563,-0.004229,-0.042719,-0.001882,0.001374,0.000558,-0.39031,-0.110595,-0.914017,0.40096822705926194
1760732796.750496,0.07924,-0.191793,0.109675,0.972064,0.054153,-0.003127,-0.042337,-0.002641,0.003829,0.00122,-0.390252,-0.111982,-0.913873,0.4009051834334759
1760732796.75172,0.079808,-0.191771,0.109362,0.972057,0.048608,-0.000414,-0.041917,-0.001503,0.007311,-0.000698,-0.39028,-0.113212,-0.913709,0.40093578149775505
1760732796.782311,0.08028,-0.191703,0.109044,0.972067,0.040153,0.003721,-0.039879,0.002277,0.008076,0.001527,-0.390204,-0.114267,-0.91361,0.400853285645773
1760732796.814748,0.08069,-0.191649,0.108768,0.972075,0.038222,0.00022,-0.039165,0.000693,0.006297,0.003374,-0.390147,-0.115183,-0.91352,0.4007911131477193
1760732796.815147,0.081086,-0.191598,0.108502,0.972082,0.035549,-0.000984,-0.036102,0.001854,0.00314,-0.00118,-0.390094,-0.116067,-0.913431,0.4007334519414048
1760732796.842581,0.081464,-0.191529,0.108213,0.972096,0.040803,0.001248,-0.036757,0.003674,0.005238,-0.001075,-0.39,-0.116929,-0.913361,0.40063144290414454
1760732796.873237,0.081908,-0.191445,0.107955,0.972104,0.046982,-0.00213,-0.035954,0.004111,0.006839,0.001049,-0.389893,-0.117912,-0.91328,0.4005153624648975
1760732796.875437,0.082431,-0.19141,0.107725,0.972092,0.052379,-0.00873,-0.03271,0.005079,0.006921,0.000608,-0.389896,-0.119022,-0.913135,0.4005185131835425
1760732796.91575,0.082979,-0.191471,0.107513,0.972057,0.052531,-0.015514,-0.026464,0.005301,0.006939,0.000507,-0.390084,-0.12015,-0.912907,0.40072266122156985
1760732796.91591,0.083482,-0.191546,0.107394,0.972012,0.05024,-0.0208,-0.018713,0.004674,0.004914,0.000481,-0.390301,-0.121149,-0.912682,0.4009584183480486
1760732796.944093,0.083969,-0.191663,0.107308,0.971956,0.04922,-0.022959,-0.015904,0.003515,0.001407,0.000472,-0.390598,-0.122094,-0.912429,0.40128101725115034
1760732796.974585,0.084451,-0.191803,0.107272,0.971891,0.054206,-0.024059,-0.009003,0.002532,-0.003104,0.002176,-0.390942,-0.123003,-0.912159,0.40165494331675816
1760732796.975807,0.085033,-0.191978,0.107225,0.971811,0.065739,-0.031175,-0.015333,0.001898,-0.00454,0.004149,-0.391367,-0.124103,-0.911828,0.40211661814898003
1760732797.005172,0.085749,-0.192124,0.107168,0.971725,0.075695,-0.03067,-0.017885,0.002011,-0.004373,0.004054,-0.391763,-0.12547,-0.911471,0.40254690420900185
1760732797.035309,0.086522,-0.192318,0.107092,0.971627,0.076273,-0.03116,-0.019757,0.001021,-0.003426,0.00219,-0.392255,-0.126943,-0.911055,0.40308184340790676
1760732797.037298,0.087348,-0.192485,0.107037,0.971526,0.076249,-0.03008,-0.016957,-0.001225,-0.004255,0.002072,-0.392708,-0.128516,-0.910639,0.4035744486248176
1760732797.066795,0.088148,-0.19266,0.106989,0.971425,0.073398,-0.026614,-0.012552,-0.001679,-0.006733,0.002166,-0.39317,-0.130034,-0.910224,0.40407688270375475
1760732797.072516,0.088878,-0.192781,0.106921,0.971341,0.065494,-0.021136,-0.017368,-0.001687,-0.006722,0.002724,-0.393518,-0.131437,-0.909872,0.40445540754424814
1760732797.130511,0.089593,-0.192869,0.106776,0.971274,0.065861,-0.019627,-0.023961,-0.002502,-0.008701,0.003692,-0.393791,-0.132851,-0.909549,0.4047521793563646
1760732797.13086,0.090308,-0.192957,0.106632,0.971206,0.066229,-0.018117,-0.030554,-0.003317,-0.010679,0.004658,-0.394062,-0.134265,-0.909224,0.40504699618348844
1760732797.131143,0.091039,-0.193044,0.106443,0.971142,0.068419,-0.0185,-0.036012,-0.002854,-0.011882,0.004443,-0.394326,-0.135728,-0.908892,0.405334359449196
1760732797.166208,0.091846,-0.19312,0.106168,0.97108,0.07459,-0.01817,-0.040733,-0.001897,-0.010106,0.003318,-0.394572,-0.137373,-0.908538,0.4056020764592308
1760732797.172931,0.092742,-0.193171,0.10587,0.971018,0.079441,-0.01929,-0.045552,-0.001139,-0.009928,0.004295,-0.394782,-0.139206,-0.908168,0.4058305118481881
1760732797.212573,0.093669,-0.193265,0.105566,0.970943,0.081312,-0.016331,-0.045447,-0.000682,-0.007667,0.002199,-0.395076,-0.14109,-0.907749,0.40615064844087506
1760732797.213265,0.094627,-0.193311,0.10526,0.970874,0.07722,-0.017732,-0.042659,-0.000316,-0.005557,0.00341,-0.395282,-0.143046,-0.907353,0.4063749440817201
1760732797.24338,0.095536,-0.193351,0.104971,0.970809,0.078837,-0.01767,-0.03614,0.000825,-0.005485,0.001595,-0.395471,-0.144902,-0.906976,0.4065807355862876
1760732797.273331,0.096432,-0.193418,0.104772,0.970728,0.078305,-0.018545,-0.031557,0.001542,-0.005053,0.004093,-0.395719,-0.14669,-0.906581,0.40685049889700436
1760732797.274516,0.097303,-0.193523,0.104622,0.970636,0.075081,-0.024711,-0.024079,0.001853,-0.005023,0.003491,-0.396042,-0.148399,-0.906162,0.40720212565380753
1760732797.309549,0.098092,-0.193674,0.104529,0.970537,0.071347,-0.023717,-0.019816,0.0007,-0.004024,0.002573,-0.396442,-0.149916,-0.905737,0.4076378980754026
1760732797.311625,0.09883,-0.193818,0.104479,0.970439,0.065424,-0.025327,-0.011786,0.002398,-0.002708,0.003199,-0.396829,-0.151318,-0.905334,0.40805959329009267
1760732797.340108,0.099469,-0.193951,0.104488,0.970346,0.054663,-0.023621,0.00064,0.001631,-0.003268,0.003192,-0.397185,-0.152507,-0.904978,0.4084475906865291
1760732797.395965,0.099939,-0.194134,0.104609,0.970248,0.045244,-0.023295,0.006946,0.001354,-0.003914,0.003191,-0.397625,-0.153315,-0.904649,0.4089267650745929
1760732797.396307,0.100409,-0.194317,0.104729,0.97015,0.035824,-0.022969,0.013252,0.001077,-0.004561,0.003189,-0.398064,-0.154122,-0.904318,0.4094055583518981
1760732797.39791,0.100713,-0.194531,0.104921,0.970055,0.028194,-0.023329,0.018113,0.000762,-0.005188,0.003743,-0.398545,-0.154573,-0.904029,0.40992999841549405
1760732797.426354,0.100989,-0.194724,0.105157,0.969962,0.027213,-0.025922,0.021494,0.0005,-0.002861,0.004835,-0.398989,-0.154958,-0.903767,0.41041423864044013
1760732797.431048,0.101251,-0.194982,0.105386,0.969858,0.030026,-0.027398,0.022626,0.000172,-0.004124,0.003361,-0.39955,-0.155302,-0.903461,0.41102575753601434
1760732797.460218,0.101604,-0.195249,0.105636,0.96974,0.044468,-0.028729,0.019289,-0.003179,-0.009224,0.00283,-0.400148,-0.155808,-0.903109,0.41167824116411345
1760732797.511396,0.102018,-0.195404,0.10584,0.969643,0.039768,-0.017606,0.016191,-0.002147,-0.006895,0.000319,-0.40054,-0.15648,-0.902819,0.4121060164637847
1760732797.51173,0.102433,-0.19556,0.106044,0.969545,0.035067,-0.006484,0.013093,-0.001114,-0.004566,-0.002193,-0.400933,-0.157151,-0.902528,0.41253494994976303
1760732797.512411,0.10271,-0.19559,0.106228,0.96949,0.022469,0.006619,0.012492,0.000139,-0.005114,-0.000694,-0.401067,-0.157599,-0.90239,0.4126813575861894
1760732797.543356,0.102884,-0.195491,0.106386,0.969474,0.008575,0.008001,0.008323,-0.000286,-0.006208,0.006462,-0.400938,-0.157891,-0.902396,0.41254065062648626
1760732797.572613,0.102951,-0.195476,0.106455,0.969462,-0.001212,-0.003779,0.007068,0.000587,-0.005509,0.008963,-0.400932,-0.157995,-0.902381,0.4125338890683026
1760732797.574607,0.102892,-0.195588,0.106485,0.969443,-0.013648,-0.008254,0.004161,0.001305,-0.003757,0.004167,-0.401135,-0.157842,-0.902318,0.41275531413279754
1760732797.609609,0.102744,-0.195662,0.106484,0.969444,-0.02372,-0.006358,0.004642,0.001426,-0.00346,0.003354,-0.401248,-0.15754,-0.90232,0.4128788890329846
1760732797.610752,0.1025,-0.195782,0.106454,0.969449,-0.032593,-0.006074,0.005957,-0.000208,-0.001034,0.002261,-0.401424,-0.157053,-0.902327,0.41307089071876424
1760732797.64721,0.102181,-0.195927,0.106482,0.96945,-0.036835,-0.006328,0.011614,0.00046,-0.000944,0.00107,-0.401644,-0.156393,-0.902343,0.4133113966292458
1760732797.649591,0.10184,-0.195999,0.106552,0.969464,-0.034977,-0.00601,0.018779,-0.001409,-0.000881,0.002327,-0.401731,-0.155692,-0.902426,0.4134061966403653
1760732797.678962,0.101494,-0.196073,0.106674,0.969471,-0.030868,-0.004783,0.020467,-0.000768,-0.001184,0.001516,-0.401828,-0.15496,-0.902508,0.41351243986507996
1760732797.717361,0.101164,-0.196169,0.106834,0.969469,-0.029826,-0.002266,0.023037,-0.00057,-0.000653,0.001961,-0.401976,-0.154236,-0.902567,0.4136737158052776
1760732797.719309,0.100874,-0.196271,0.107041,0.969456,-0.025124,-0.007072,0.027941,-0.000473,-0.000596,0.006764,-0.402148,-0.153567,-0.902604,0.41386174812548526
1760732797.748465,0.100637,-0.196454,0.107267,0.969418,-0.02045,-0.018983,0.025138,-0.003971,0.000588,0.004552,-0.402483,-0.152972,-0.902556,0.4142275552219754
1760732797.751201,0.100383,-0.196699,0.10745,0.969375,-0.020412,-0.01196,0.025343,-0.002706,0.002646,-0.00272,-0.402923,-0.152346,-0.902466,0.41470808014912425
1760732797.812341,0.100237,-0.196728,0.10764,0.969363,-0.011042,-0.005794,0.020729,-0.003098,-3.5e-05,-0.000361,-0.402981,-0.151981,-0.902501,0.41477170883113285
1760732797.812773,0.100091,-0.196758,0.107829,0.969351,-0.001672,0.000372,0.016116,-0.00349,-0.002716,0.001999,-0.40304,-0.151615,-0.902536,0.41483626063098245
1760732797.814215,0.100056,-0.196876,0.107978,0.969314,0.000576,-0.008927,0.011295,-0.002947,-0.003317,0.003646,-0.403276,-0.151454,-0.902458,0.41509399167136246
1760732797.842656,0.100091,-0.197031,0.108071,0.969268,0.004461,-0.016459,0.009046,-0.00303,-0.002111,0.007388,-0.403586,-0.151442,-0.902321,0.4154329538187953
1760732797.87492,0.100154,-0.197201,0.108139,0.96922,0.010477,-0.016876,0.009524,-0.002914,-0.000726,0.004293,-0.403923,-0.151493,-0.902162,0.4158011659830792
1760732797.875248,0.100279,-0.197382,0.108229,0.96916,0.011074,-0.013094,0.008158,-0.001931,-0.000849,0.002812,-0.404296,-0.151647,-0.901969,0.41620895579718803
1760732797.904573,0.100403,-0.197485,0.108356,0.969112,0.004625,-0.004115,0.010154,-0.003842,-0.002062,0.001746,-0.404529,-0.151805,-0.901838,0.41646369568196817
1760732797.911585,0.100451,-0.197559,0.108479,0.969078,0.001882,0.001523,0.008722,-0.003284,-0.005019,0.001863,-0.404694,-0.151829,-0.90176,0.4166440959482019
1760732797.941846,0.100425,-0.197524,0.108561,0.969079,-0.005089,0.008278,0.006005,-0.002696,-0.006226,0.002603,-0.404637,-0.151753,-0.901798,0.41658191240598635
1760732797.97222,0.100346,-0.197501,0.108562,0.969092,-0.013362,0.005336,-0.00136,-0.002186,-0.006536,0.005202,-0.40458,-0.151607,-0.901848,0.41651963425123906
1760732797.972526,0.100217,-0.197507,0.108478,0.969113,-0.015455,-0.001044,-0.008273,-0.002913,-0.006312,0.005413,-0.404555,-0.151393,-0.901895,0.4164923622722892
1760732798.00003,0.100091,-0.197597,0.108348,0.969122,-0.016324,-0.005483,-0.012748,0.000606,-0.004317,0.00407,-0.404681,-0.151181,-0.901875,0.4166297590949692
1760732798.030829,0.099988,-0.197663,0.10818,0.969138,-0.020759,-0.007159,-0.011493,2.9e-05,-0.002441,0.002436,-0.40476,-0.151039,-0.901863,0.4167162866244527
1760732798.032837,0.099871,-0.197718,0.108025,0.969156,-0.019961,-0.001463,-0.007747,-0.000662,-0.001995,0.000899,-0.404817,-0.150864,-0.901867,0.4167785050374285
1760732798.061511,0.099737,-0.197734,0.10792,0.969179,-0.018495,0.005175,-0.003683,0.000637,0.000151,0.002041,-0.404806,-0.150646,-0.901908,0.4167666258742193
1760732798.113807,0.099558,-0.197743,0.107909,0.969196,-0.018433,0.004934,0.0012,0.000571,1e-06,0.002435,-0.404789,-0.150307,-0.901972,0.41674810936109835
1760732798.114108,0.09938,-0.197751,0.107897,0.969214,-0.018371,0.004694,0.006082,0.000505,-0.000149,0.002829,-0.404772,-0.149968,-0.902036,0.41672954018201885
1760732798.11545,0.099214,-0.197797,0.107969,0.969214,-0.014692,-0.001701,0.005074,0.002196,-0.001375,0.001344,-0.40484,-0.149608,-0.902066,0.4168036114145122
1760732798.144087,0.099093,-0.19782,0.108001,0.969218,-0.009404,-0.004071,0.005783,0.001299,-0.001798,0.001635,-0.404866,-0.149357,-0.902095,0.41683241500665774
1760732798.149882,0.099008,-0.197916,0.108056,0.969201,-0.005752,-0.00665,0.005205,0.000485,-0.000964,0.002136,-0.405038,-0.149145,-0.902053,0.4170204746530305
1760732798.179073,0.098932,-0.197976,0.108098,0.969192,-0.006764,-0.005173,0.006077,-0.000133,-4.6e-05,0.001449,-0.405142,-0.148967,-0.902036,0.41713410940167234
1760732798.209018,0.098857,-0.198032,0.108138,0.969183,-0.009934,-0.002692,0.006836,0.000853,-0.001596,0.002864,-0.405239,-0.148792,-0.902021,0.41724033383965936
1760732798.21006,0.098745,-0.198071,0.108214,0.969179,-0.010076,-0.00119,0.008139,0.002067,-0.001482,0.002549,-0.405303,-0.148535,-0.902035,0.41731018142184767
1760732798.24096,0.098634,-0.198062,0.108278,0.969184,-0.009887,0.000204,0.0095,-0.000466,-0.001884,0.000874,-0.405278,-0.148297,-0.902085,0.4172829909204768
1760732798.27241,0.098517,-0.198094,0.108356,0.969181,-0.009286,0.001465,0.00842,-0.001311,-0.003042,0.001922,-0.405328,-0.148033,-0.902106,0.4173376431145571
1760732798.273779,0.098448,-0.198072,0.108418,0.969186,-0.004392,0.002608,0.003964,-0.001397,-0.00316,0.002029,-0.405284,-0.14788,-0.902151,0.4172894571961489
1760732798.304675,0.098403,-0.198053,0.108459,0.96919,-0.002457,0.000929,0.002567,0.000639,-0.002541,0.002322,-0.405247,-0.14778,-0.902184,0.41724898740098076
1760732798.311579,0.098375,-0.198073,0.108448,0.96919,-0.005197,0.001745,-0.000599,0.002785,-0.002471,0.002016,-0.405277,-0.147727,-0.902179,0.41728188451850406
1760732798.341611,0.098336,-0.198042,0.108435,0.969201,-0.011606,0.001232,0.00072,0.002557,-0.000999,0.001848,-0.405212,-0.147665,-0.902219,0.4172105232684812
1760732798.371015,0.098187,-0.198056,0.108411,0.969216,-0.016778,0.005353,0.002476,0.001498,-0.001837,0.00045,-0.405207,-0.147386,-0.902267,0.4172050000770083
1760732798.3713,0.098028,-0.198073,0.108387,0.969232,-0.019433,-0.000175,0.003871,-0.001044,-0.002426,0.002521,-0.405207,-0.147086,-0.902315,0.4172053816187955
1760732798.441154,0.097897,-0.19803,0.108397,0.969253,-0.013959,0.002507,0.004625,-0.001667,-0.002971,0.002756,-0.405105,-0.146843,-0.902401,0.4170935642952879
1760732798.442497,0.097767,-0.197987,0.108406,0.969274,-0.008485,0.005189,0.00538,-0.002289,-0.003516,0.002991,-0.405003,-0.1466,-0.902486,0.4169821183598954
1760732798.442893,0.097636,-0.197943,0.108415,0.969294,-0.003011,0.007871,0.006135,-0.002912,-0.004061,0.003226,-0.404901,-0.146357,-0.902571,0.41687064391278017
1760732798.45677,0.097528,-0.197896,0.108507,0.969305,-0.010132,0.015971,0.009789,0.000344,-0.000513,-0.003504,-0.404809,-0.146122,-0.902651,0.41676976553979095
1760732798.49514,0.097348,-0.197606,0.108582,0.969374,-0.018269,0.033913,0.009348,0.001398,-0.002509,-0.001874,-0.404249,-0.145821,-0.90295,0.41615766322482095
1760732798.499899,0.097139,-0.197318,0.108641,0.969447,-0.019326,0.032768,0.00679,0.003826,-0.00682,0.004639,-0.403686,-0.145469,-0.903259,0.41554205189668336
1760732798.53029,0.096934,-0.197148,0.108629,0.969503,-0.02087,0.006201,-0.002677,0.002792,-0.005398,0.010044,-0.403331,-0.145124,-0.903473,0.4151540867657477
1760732798.530582,0.096725,-0.197181,0.108525,0.969529,-0.028939,-0.003914,-0.006787,0.005455,-0.002819,0.004892,-0.40334,-0.144756,-0.903528,0.4151639290447568
1760732798.559948,0.096454,-0.197219,0.108386,0.969564,-0.028666,0.000497,-0.001996,0.00293,-0.001047,0.000772,-0.403342,-0.144284,-0.903603,0.4151659557461727
1760732798.590706,0.096268,-0.197215,0.108323,0.96959,-0.017979,-4.5e-05,0.002627,0.000514,0.00186,0.001963,-0.403291,-0.143955,-0.903678,0.41511031493998846
1760732798.592717,0.096124,-0.197256,0.108327,0.969596,-0.015019,-0.000842,0.011173,-0.000307,0.002276,0.000621,-0.403342,-0.143666,-0.903701,0.4151661402833093
1760732798.621268,0.095989,-0.197253,0.108455,0.969595,-0.012361,-0.000363,0.021262,-0.00036,0.002303,0.000534,-0.403331,-0.143354,-0.903755,0.41515430004783305
1760732798.651633,0.095826,-0.197301,0.108676,0.969577,-0.010441,0.001813,0.027313,8.6e-05,0.000785,0.000674,-0.403425,-0.142938,-0.903779,0.4152570024705811
1760732798.652491,0.095648,-0.197297,0.108905,0.96957,-0.008637,-0.00136,0.022823,0.000365,-0.000764,0.002113,-0.403419,-0.142502,-0.903851,0.4152502563916352
1760732798.720054,0.095524,-0.197373,0.10905,0.96955,-0.009102,-0.004103,0.014575,0.000291,-0.0022,0.002892,-0.40356,-0.142184,-0.903838,0.41540441163598174
1760732798.720458,0.0954,-0.19745,0.109195,0.96953,-0.009567,-0.006847,0.006328,0.000217,-0.003636,0.003672,-0.403701,-0.141865,-0.903825,0.41555858653078986
1760732798.721762,0.095298,-0.197529,0.109225,0.969521,-0.003766,-0.007551,0.005488,-0.001775,-0.005127,0.006801,-0.403836,-0.141637,-0.903801,0.41570593008123036
1760732798.750359,0.095283,-0.197613,0.109209,0.969507,-0.003328,-0.011783,-0.003648,-0.002694,-0.002846,0.004716,-0.403986,-0.141593,-0.903741,0.41586984346119293
1760732798.752108,0.095247,-0.19772,0.109174,0.969493,-0.010115,9e-06,0.000949,-0.000704,-0.000625,-0.00319,-0.404173,-0.141512,-0.90367,0.41607430576424703
1760732798.783979,0.095166,-0.197673,0.109197,0.969508,-0.007,0.004976,0.001462,-0.001377,-0.003064,0.001817,-0.404074,-0.141358,-0.903738,0.4159662231607596
1760732798.791628,0.095148,-0.197614,0.1092,0.969521,-0.00595,0.002089,0.00178,-0.000877,-0.00125,0.002688,-0.403962,-0.141338,-0.903791,0.41584386385785116
1760732798.829605,0.095096,-0.197674,0.10922,0.969512,-0.00737,-0.001743,0.003099,0.000172,-0.003622,0.003676,-0.404067,-0.141214,-0.903763,0.4159588267808082
1760732798.831603,0.095025,-0.197714,0.109208,0.969512,-0.008487,-0.005745,0.001829,0.000945,-0.00185,0.003059,-0.404127,-0.141071,-0.903759,0.41602422326981925
1760732798.860039,0.094987,-0.197819,0.109174,0.969498,-0.008747,-0.00722,0.000464,-0.001219,-0.002463,0.002735,-0.404311,-0.140986,-0.90369,0.41622537633361023
1760732798.890738,0.09493,-0.197918,0.109158,0.969485,-0.006135,-0.005321,0.000724,-0.001291,-0.002483,0.002724,-0.404482,-0.140858,-0.903633,0.41641252129011685
1760732798.892779,0.094884,-0.197919,0.109108,0.969495,-0.005505,0.001631,-0.000887,-0.000979,-0.00188,0.002062,-0.404469,-0.140791,-0.90365,0.41639801098201756
1760732798.943063,0.094788,-0.197886,0.10908,0.969514,-0.009373,0.004464,-0.003024,-0.000579,-0.002363,0.001792,-0.404386,-0.140626,-0.903712,0.41630759232730136
1760732798.943386,0.094691,-0.197853,0.109052,0.969534,-0.013241,0.007297,-0.00516,-0.000179,-0.002845,0.001522,-0.404303,-0.14046,-0.903775,0.4162168229537303
1760732798.971384,0.094559,-0.197831,0.108991,0.969558,-0.017991,0.004651,-0.00716,0.000258,-0.001576,0.001517,-0.404229,-0.140238,-0.903843,0.41613574636944084
1760732798.97314,0.094404,-0.197816,0.108861,0.969591,-0.020746,0.002623,-0.007512,0.000959,-0.00178,0.003007,-0.404154,-0.139997,-0.903914,0.4160537090179518
1760732799.013238,0.094247,-0.197801,0.108729,0.969624,-0.015855,-0.001927,-0.009285,0.000616,0.00048,0.003555,-0.404079,-0.139755,-0.903985,0.41597170602322076
1760732799.0143,0.094126,-0.197854,0.108576,0.969642,-0.01014,-0.002452,-0.00705,-8.5e-05,0.000753,0.002068,-0.404134,-0.139574,-0.903988,0.4160319850991516
1760732799.053977,0.094076,-0.197886,0.108488,0.96965,-0.005049,-0.004135,-0.003401,0.000224,0.001371,0.001374,-0.404172,-0.139505,-0.903982,0.4160733941073709
1760732799.054262,0.094029,-0.197901,0.10849,0.969651,0.000403,0.002691,0.002672,0.000701,-0.000222,0.001518,-0.404192,-0.13941,-0.903988,0.4160951452203243
1760732799.086104,0.09398,-0.197932,0.108547,0.969643,-0.004155,-0.00294,0.006474,0.001405,-0.000473,0.003028,-0.40425,-0.139284,-0.903981,0.41615875146370884
1760732799.086975,0.09389,-0.197929,0.10859,0.969648,-0.011888,-0.000412,0.007976,-0.000638,-0.001239,0.001369,-0.404234,-0.139095,-0.904018,0.41614096090693176
1760732799.115432,0.093747,-0.19799,0.108653,0.969642,-0.012376,-0.003153,0.005257,0.001084,-0.001096,0.003715,-0.404331,-0.138778,-0.904023,0.41624715004843865
1760732799.147927,0.093581,-0.198059,0.108646,0.969645,-0.013787,-0.002683,0.002214,0.000477,-0.001615,0.000154,-0.404429,-0.138443,-0.90403,0.4163545127052928
1760732799.176661,0.093476,-0.198085,0.108591,0.969656,-0.012947,-0.002956,-0.003254,7.6e-05,-0.001117,0.000418,-0.404449,-0.138258,-0.90405,0.4163761268640993
1760732799.207245,0.093389,-0.1981,0.108503,0.969671,-0.009335,-0.002696,-0.005514,-0.000449,-0.001491,0.001234,-0.40445,-0.138124,-0.90407,0.41637723441218105
1760732799.209253,0.093345,-0.198108,0.108387,0.969687,-0.006194,-0.003011,-0.009226,-0.000194,-0.001485,0.002062,-0.40444,-0.138087,-0.90408,0.41636635046203985
1760732799.237609,0.093331,-0.198142,0.108256,0.969696,-0.003709,-0.003474,-0.010918,-0.000422,-0.001363,0.001709,-0.404482,-0.138105,-0.904058,0.4164124585894312
1760732799.273866,0.093333,-0.198172,0.108135,0.969703,-0.003816,-0.00326,-0.009167,-0.000209,-0.000676,0.000848,-0.404521,-0.138153,-0.904034,0.41645478966125093
1760732799.27501,0.093333,-0.198195,0.10803,0.96971,-0.001794,-0.002379,-0.006606,-0.000478,-0.00058,0.00214,-0.404549,-0.138191,-0.904015,0.4164856716671788
1760732799.310372,0.093366,-0.198221,0.107948,0.969711,0.000827,-0.003952,-0.006401,-0.000207,-0.001034,0.002514,-0.404591,-0.13828,-0.903983,0.4165314357189216
1760732799.311327,0.093399,-0.198277,0.107851,0.969707,-0.000283,-0.006136,-0.007306,3.3e-05,-0.001294,0.00201,-0.404687,-0.13837,-0.903926,0.41663651592569545
1760732799.343989,0.093435,-0.198331,0.107765,0.969702,0.000169,-0.003863,-0.007059,0.000673,-0.001228,0.002185,-0.404782,-0.138461,-0.90387,0.41674021614409107
1760732799.346783,0.093459,-0.198396,0.107675,0.969696,-0.001653,-0.006488,-0.008484,0.001474,-0.002834,0.002428,-0.404895,-0.138528,-0.903809,0.4168638439441862
1760732799.386264,0.093454,-0.198467,0.107559,0.969695,-0.005183,-0.009124,-0.008813,0.000369,-0.003127,0.003003,-0.405008,-0.13855,-0.903755,0.4169874291590962
1760732799.387977,0.093432,-0.198565,0.107438,0.96969,-0.005218,-0.008769,-0.009508,0.000396,-0.003461,0.002672,-0.405169,-0.138533,-0.903685,0.4171637000792461
1760732799.416706,0.093407,-0.198634,0.107324,0.969691,-0.003608,-0.004693,-0.005519,-0.000163,-0.003435,0.003124,-0.405277,-0.138515,-0.903639,0.4172819658724181
1760732799.447479,0.093432,-0.198648,0.107275,0.969691,-0.000389,-0.001275,-0.002544,-0.001466,-0.005306,0.002569,-0.405301,-0.138579,-0.903619,0.41730798752600606
1760732799.449169,0.093457,-0.198643,0.10726,0.969692,-0.000487,0.005422,-0.000163,-1.6e-05,-0.004316,2.2e-05,-0.405293,-0.138636,-0.903614,0.4172991744223857
1760732799.477973,0.093406,-0.198504,0.107287,0.969722,-0.008509,0.018804,0.004998,0.000402,-0.002617,-0.000259,-0.40503,-0.138562,-0.903743,0.41701161150453164
1760732799.508563,0.093275,-0.198273,0.107348,0.969775,-0.014754,0.024634,0.007203,0.000608,-0.003654,0.002205,-0.404585,-0.138344,-0.903975,0.41652523195118707
1760732799.510579,0.093105,-0.198086,0.107397,0.969824,-0.018638,0.017312,0.005791,0.002213,-0.004294,0.006874,-0.404216,-0.138044,-0.904187,0.41612133417664093
1760732799.539073,0.092881,-0.198016,0.107421,0.969858,-0.025436,0.005658,0.00547,0.003074,-0.003881,0.006973,-0.404049,-0.13762,-0.904326,0.41593886651417805
1760732799.544929,0.092593,-0.198013,0.1074,0.969888,-0.031569,0.000921,0.004834,0.003374,-0.002514,0.003708,-0.403991,-0.137077,-0.904434,0.4158756115495664
1760732799.574047,0.09229,-0.198023,0.107411,0.969913,-0.031966,0.002245,0.009062,0.002108,-0.001377,0.001879,-0.403957,-0.136486,-0.904539,0.4158382679519939
1760732799.613776,0.091967,-0.198034,0.107448,0.969938,-0.033318,0.003273,0.012362,0.000412,0.000288,4.8e-05,-0.403925,-0.135848,-0.904649,0.4158034174637161
1760732799.615002,0.091647,-0.198042,0.107534,0.969957,-0.0324,0.003994,0.017804,-0.000273,0.000297,-5.7e-05,-0.403895,-0.135196,-0.90476,0.4157706478420174
1760732799.645939,0.091321,-0.198027,0.107672,0.969976,-0.028667,0.00475,0.020924,-0.000466,-0.000499,0.000677,-0.403827,-0.134513,-0.904892,0.4156963741870452
1760732799.647038,0.091012,-0.198009,0.107815,0.969992,-0.027451,0.001549,0.018901,-0.00042,-0.001684,0.001817,-0.403759,-0.133865,-0.905019,0.4156218169241335
1760732799.677212,0.090718,-0.198039,0.107941,0.97,-0.027949,-0.001894,0.014226,-0.00028,-0.001543,0.003075,-0.40378,-0.13324,-0.905102,0.4156447143522673
1760732799.732438,0.09044,-0.198102,0.108,0.970006,-0.023286,-0.0036,0.012554,-0.000731,-0.001582,0.004121,-0.403856,-0.132665,-0.905152,0.41572801025279577
1760732799.732805,0.090162,-0.198165,0.10806,0.970012,-0.018624,-0.005307,0.010882,-0.001181,-0.001622,0.005167,-0.403932,-0.13209,-0.905202,0.41581115965547255
1760732799.734077,0.089971,-0.198281,0.108091,0.970003,-0.015667,-0.00788,0.008819,-0.001102,-0.000978,0.002042,-0.404117,-0.13168,-0.90518,0.41601306651892794
1760732799.762731,0.089805,-0.198361,0.108111,0.97,-0.016398,-4.9e-05,0.006317,-0.000895,-0.000344,0.000186,-0.404238,-0.131333,-0.905176,0.416145506854908
1760732799.766643,0.08962,-0.1984,0.108128,0.970007,-0.018616,0.001289,0.004951,-0.000368,0.000195,0.000445,-0.404279,-0.130959,-0.905212,0.4161902830546852
1760732799.796679,0.089412,-0.198432,0.108136,0.970019,-0.022959,-0.001539,0.003966,-0.000473,-0.000573,0.003856,-0.404302,-0.130546,-0.905261,0.4162155825406113
1760732799.831063,0.089198,-0.198509,0.108119,0.970025,-0.024156,-0.006994,0.003103,0.000991,-0.000681,0.003509,-0.404405,-0.130122,-0.905276,0.4163282148592156
1760732799.832805,0.088979,-0.198626,0.108072,0.970026,-0.021794,-0.008285,0.000876,0.000312,0.000108,0.003457,-0.404577,-0.129692,-0.905261,0.4165162281476488
1760732799.861273,0.088771,-0.198749,0.108018,0.970026,-0.021508,-0.007857,0.000368,0.000328,0.001136,0.002718,-0.404761,-0.129283,-0.905237,0.41671753967426917
1760732799.863341,0.088585,-0.198835,0.107961,0.970032,-0.019832,-0.005873,0.001009,-0.000686,0.001584,0.001843,-0.404881,-0.128928,-0.905234,0.4168487604396946
1760732799.917918,0.088393,-0.198878,0.107934,0.970043,-0.020114,-0.002979,0.001937,-0.000765,0.001143,0.001154,-0.404923,-0.128558,-0.905268,0.4168946280027427
1760732799.91804,0.088201,-0.198921,0.107908,0.970055,-0.020395,-8.4e-05,0.002866,-0.000844,0.000702,0.000464,-0.404964,-0.128188,-0.905302,0.4169395202240764
1760732799.947618,0.08799,-0.198947,0.107866,0.970074,-0.023442,0.000728,-6.7e-05,-0.00068,4e-05,0.001298,-0.404968,-0.127793,-0.905356,0.4169439165378494
1760732799.947924,0.087756,-0.198977,0.107809,0.970095,-0.022509,0.000323,-0.004006,0.000283,0.000586,0.001416,-0.404975,-0.12736,-0.905414,0.4169515252507862
1760732799.97904,0.087532,-0.199036,0.107705,0.970115,-0.0211,-0.000191,-0.005702,0.000254,0.001005,0.001389,-0.405032,-0.126958,-0.905445,0.41701385123215745
1760732800.00952,0.08734,-0.199084,0.107595,0.970134,-0.019364,-0.00156,-0.008507,0.001128,0.002065,0.001099,-0.405072,-0.126622,-0.905474,0.41705766334007255
1760732800.009835,0.087174,-0.199131,0.107472,0.970153,-0.015272,-0.000982,-0.007156,0.001457,0.003751,0.000519,-0.405114,-0.126343,-0.905495,0.4171032732633816
1760732800.037769,0.087051,-0.199134,0.107381,0.970174,-0.01167,0.001824,-0.004903,0.001036,0.003186,0.00097,-0.405085,-0.126142,-0.905535,0.41707195373633177
1760732800.06838,0.086936,-0.199112,0.107314,0.970196,-0.011299,0.002804,-0.003287,0.001153,0.002428,0.001627,-0.405014,-0.125955,-0.905593,0.4169942126713413
1760732800.069496,0.086821,-0.199104,0.107268,0.970213,-0.010373,0.003009,-0.00091,0.00066,0.001868,0.001487,-0.404972,-0.125755,-0.90564,0.4169481071178564
1760732800.098945,0.086684,-0.199093,0.107253,0.970229,-0.008799,0.000391,0.001259,0.000917,0.001443,0.001505,-0.404926,-0.125501,-0.905696,0.41689771775722434
1760732800.104995,0.086584,-0.199091,0.107258,0.970238,-0.006396,0.00017,0.000981,0.000743,0.000176,0.001148,-0.404905,-0.125305,-0.905732,0.41687496174880057
1760732800.132946,0.086515,-0.199072,0.107253,0.970249,-0.003726,0.000333,-0.001171,0.000406,0.000451,0.000899,-0.404856,-0.12518,-0.905771,0.4168214482474028
1760732800.164784,0.086469,-0.199076,0.107242,0.970253,-0.003343,0.001476,-0.001607,0.000198,0.000985,0.00188,-0.404854,-0.125095,-0.905784,0.4168191154339054
1760732800.165597,0.086451,-0.199051,0.107227,0.970261,-0.001547,0.000683,-0.000744,0.00047,0.000328,0.001686,-0.404802,-0.125073,-0.90581,0.41676235874353007
1760732800.212428,0.086429,-0.199052,0.107212,0.970265,-0.001821,-9.7e-05,-0.001246,0.000597,2.4e-05,0.001596,-0.404799,-0.125037,-0.905816,0.4167592025401643
1760732800.214222,0.086403,-0.199084,0.107176,0.970265,-0.001086,-0.001529,-0.002045,-1.2e-05,-0.000287,0.001838,-0.40485,-0.124993,-0.9058,0.4168146883072029
1760732800.246479,0.086351,-0.199121,0.107153,0.970264,-0.004917,-0.0008,-0.001616,-5.7e-05,0.000276,0.00195,-0.404905,-0.124894,-0.905789,0.41687486766792003
1760732800.246758,0.08628,-0.199127,0.107136,0.970271,-0.005923,-0.00072,0.000224,3.5e-05,0.000499,0.001265,-0.404902,-0.124762,-0.905809,0.41687139893690467
1760732800.279912,0.086211,-0.199124,0.107112,0.970281,-0.005687,0.00066,-0.000402,-0.000159,-0.000107,0.000949,-0.404881,-0.124641,-0.905834,0.4168488511033443
1760732800.284587,0.086151,-0.199149,0.107083,0.970284,-0.00337,0.00056,-0.00183,-0.000248,-0.000385,0.000804,-0.404914,-0.124532,-0.905835,0.4168846373914841
1760732800.313052,0.086113,-0.199147,0.107051,0.970291,-0.002307,0.000513,-0.002485,0.000415,-0.001144,0.002015,-0.404899,-0.124472,-0.90585,0.41686821299752397
