timestamp,quat_x,quat_y,quat_z,quat_w,rot_x,rot_y,rot_z,acc_x,acc_y,acc_z,grav_x,grav_y,grav_z,pitch_rad
1760734868.690721,0.084746,0.641394,0.0,0.762517,-0.004625,-0.003508,0.001519,-1.260138,0.219573,-0.790857,0.978147,-0.12924,-0.162865,-1.3613550105892764
1760734868.691077,-0.07491,0.021362,-0.371372,0.925211,-0.00708,0.000339,-0.001955,-0.26558,-0.063873,0.0338,-0.016112,0.154482,-0.987864,0.01611270067046915
1760734868.721292,-0.091752,-0.056047,-0.402699,0.908996,-0.00979,-0.000141,-0.004328,-0.106399,-0.030721,0.022694,-0.17579,0.121665,-0.976881,0.17670811958625565
1760734868.738329,-0.1031,-0.109174,-0.422634,0.893774,-0.006343,-0.001695,-0.002819,0.000157,0.00095,0.000941,-0.282302,0.092015,-0.954903,0.2861927321121734
1760734868.766854,-0.102772,-0.109113,-0.422703,0.893787,-0.004196,-0.001231,-0.002247,0.000136,0.000819,0.000812,-0.281931,0.091467,-0.955065,0.2858060924206236
1760734868.800349,-0.102749,-0.109095,-0.422721,0.893783,-0.001339,-0.001743,-0.001683,0.000206,0.000745,0.000253,-0.281882,0.091437,-0.955082,0.28575511530385517
1760734868.800677,-0.102726,-0.109077,-0.422739,0.893779,0.001518,-0.002256,-0.00112,0.000276,0.000671,-0.000307,-0.281834,0.091406,-0.955099,0.2857051241768014
1760734868.845341,-0.103088,-0.109032,-0.422721,0.893752,0.004575,-0.001735,-0.002212,0.001029,0.001626,0.002379,-0.28205,0.09209,-0.95497,0.2859301236081771
1760734868.845637,-0.103107,-0.109048,-0.42272,0.893748,0.006103,-0.002893,-0.002543,0.000334,0.001209,0.002916,-0.282094,0.09211,-0.954955,0.2859760068724868
1760734868.84738,-0.103105,-0.10911,-0.422684,0.893757,0.011145,-0.007998,0.003377,-0.000306,-0.000573,0.00074,-0.282197,0.092063,-0.954929,0.28608339690688617
1760734868.875801,-0.103039,-0.10915,-0.422664,0.89377,0.009606,-0.005534,0.001176,-9.5e-05,-0.000177,0.000229,-0.282211,0.091919,-0.954939,0.286097915483469
1760734868.90898,-0.103057,-0.109174,-0.422563,0.893812,0.003253,-0.008513,0.005829,2e-06,0.000944,0.001841,-0.282258,0.091961,-0.954921,0.2861469255153668
1760734868.90925,-0.10309,-0.109218,-0.422501,0.893833,0.001121,-0.005064,0.009723,0.000205,0.001334,0.001413,-0.282356,0.092001,-0.954888,0.286249129754912
1760734868.938257,-0.103079,-0.109289,-0.422402,0.893872,0.003514,-0.006598,0.01493,-0.000542,-0.000699,0.001813,-0.282462,0.091952,-0.954861,0.28635973163471024
1760734868.969825,-0.103074,-0.109351,-0.422062,0.894026,-0.000584,0.001616,0.028647,-0.000231,-0.001666,-0.001911,-0.282532,0.091995,-0.954836,0.2864327456440743
1760734868.970154,-0.103121,-0.109301,-0.42188,0.894112,-0.004899,0.013216,0.025454,0.001281,0.001894,-0.003809,-0.282465,0.09218,-0.954838,0.2863628952350322
1760734869.000603,-0.103181,-0.109105,-0.421726,0.894202,-0.013179,0.020323,0.025321,0.000587,0.001178,-0.00114,-0.282151,0.092505,-0.9549,0.2860354140294271
1760734869.032016,-0.103349,-0.108728,-0.421502,0.894334,-0.027078,0.023059,0.013781,0.001059,-0.001978,0.003533,-0.281602,0.093199,-0.954994,0.2854633719337917
1760734869.032325,-0.103398,-0.108595,-0.42148,0.894355,-0.02383,0.009607,0.003053,0.001601,-0.003195,0.006651,-0.281405,0.093408,-0.955032,0.2852579713025048
1760734869.072195,-0.103571,-0.108443,-0.421524,0.894332,-0.01343,-0.003788,-0.006587,0.002794,0.002433,0.003843,-0.281284,0.093831,-0.955026,0.2851319283515404
1760734869.072537,-0.103679,-0.108467,-0.421556,0.894302,-0.008532,-0.003488,-0.002123,0.001967,0.004653,0.00081,-0.281418,0.09399,-0.954971,0.2852715375421844
1760734869.101489,-0.103689,-0.108485,-0.42155,0.894301,-0.004032,-0.003026,0.00556,0.001259,0.005603,0.001436,-0.281457,0.093995,-0.954959,0.28531218432182104
1760734869.138915,-0.103613,-0.10859,-0.421385,0.894375,0.004552,-0.004252,0.019066,-0.000744,0.00805,0.001778,-0.281563,0.093822,-0.954945,0.2854225859340059
1760734869.139249,-0.103617,-0.108599,-0.421249,0.894438,0.006953,-0.004277,0.024709,-0.001092,0.007381,0.002511,-0.281568,0.093863,-0.954939,0.28542793592605203
1760734869.178318,-0.103725,-0.108535,-0.420829,0.894631,0.003436,-0.005781,0.025832,8.8e-05,0.00096,0.001365,-0.281499,0.094241,-0.954923,0.28535577883363167
1760734869.178588,-0.103814,-0.108523,-0.420696,0.894684,0.002021,-0.006085,0.020362,-0.000382,-0.00045,0.001363,-0.281537,0.09445,-0.954891,0.28539542187200223
1760734869.211449,-0.10409,-0.108512,-0.420488,0.894752,-0.002449,-0.005846,0.002921,-8.5e-05,-0.001586,0.00221,-0.281719,0.095014,-0.954781,0.28558520107585944
1760734869.211796,-0.104233,-0.108497,-0.420476,0.894742,-0.001352,-0.004341,-0.000573,-0.001146,-0.001701,0.004295,-0.281809,0.095282,-0.954728,0.28567892619990926
1760734869.240546,-0.104255,-0.108602,-0.42049,0.89472,0.00297,-0.008112,-0.004346,-0.001424,-0.002532,0.003767,-0.282013,0.095227,-0.954673,0.28589161991113593
1760734869.271971,-0.104201,-0.108841,-0.420547,0.894671,0.008529,-0.004526,-0.002881,-0.00154,0.0026,-0.003372,-0.282396,0.094905,-0.954592,0.2862908032494105
1760734869.272259,-0.104143,-0.108863,-0.420539,0.894679,0.005697,0.002415,0.002106,-0.001422,0.002057,-0.000924,-0.282386,0.094786,-0.954607,0.2862803176111329
1760734869.308696,-0.104061,-0.108887,-0.420499,0.894704,-0.000891,0.002626,0.003538,-0.0017,-0.000162,0.000838,-0.282359,0.094634,-0.95463,0.2862521910064364
1760734869.309003,-0.104054,-0.108903,-0.420487,0.894708,-0.004601,-0.000928,0.002225,-0.000633,-0.000519,0.00194,-0.28238,0.094612,-0.954626,0.286274073134678
1760734869.338895,-0.1041,-0.108899,-0.420483,0.894706,-0.004558,-0.001222,0.000445,-0.000843,-0.001358,0.002004,-0.282411,0.094697,-0.954608,0.28630650123329954
1760734869.35034,-0.104213,-0.108918,-0.420507,0.894679,-0.004377,-0.002634,-0.003865,0.00018,-0.000941,0.002168,-0.282537,0.094873,-0.954553,0.28643791760809323
1760734869.381855,-0.104257,-0.108927,-0.420519,0.894667,-0.003042,-0.00156,-0.002606,-4.4e-05,-0.00036,0.001705,-0.28259,0.094939,-0.954531,0.28649309857727906
1760734869.449476,-0.104395,-0.108972,-0.420534,0.894638,-0.007005,-0.001812,0.000836,-1.1e-05,0.000729,0.001955,-0.282785,0.095139,-0.954453,0.2866964843426597
1760734869.449735,-0.104428,-0.108937,-0.420507,0.894651,-0.006994,-0.00096,0.002444,0.00032,0.000619,0.001599,-0.282746,0.095236,-0.954455,0.28665579130646035
1760734869.45027,-0.104461,-0.108901,-0.420481,0.894664,-0.006983,-0.000108,0.004052,0.000652,0.000509,0.001243,-0.282708,0.095334,-0.954457,0.2866160266534898
1760734869.450366,-0.104494,-0.108865,-0.420454,0.894678,-0.006972,0.000744,0.00566,0.000983,0.000399,0.000887,-0.282669,0.095432,-0.954459,0.28657530003296106
1760734869.480132,-0.104561,-0.108831,-0.420446,0.894678,-0.006465,0.000651,0.002496,0.00101,0.00039,0.000858,-0.282662,0.095581,-0.954446,0.28656804842118644
1760734869.512806,-0.104668,-0.108743,-0.420421,0.894687,-0.002057,-0.000768,-0.001676,0.001199,0.000204,0.000756,-0.282592,0.095855,-0.954439,0.28649514343158816
1760734869.513145,-0.104707,-0.108736,-0.420442,0.894674,-0.002057,-0.000768,-0.001676,0.002039,0.001707,0.002525,-0.282613,0.095924,-0.954426,0.2865169935757579
1760734869.548636,-0.104709,-0.108729,-0.420487,0.894653,0.000322,-0.001561,-0.001272,0.001799,0.001362,0.002517,-0.282607,0.095918,-0.954428,0.2865108453414622
1760734869.548898,-0.104709,-0.108729,-0.420487,0.894653,0.001505,-0.001956,-0.00107,0.000998,0.001158,0.002856,-0.282607,0.095918,-0.954428,0.2865108453414622
1760734869.577955,-0.104724,-0.108765,-0.4205,0.894641,0.00142,-0.002865,-0.001939,0.0019,0.002238,0.003416,-0.282683,0.095909,-0.954406,0.28659018781705503
1760734869.608244,-0.104751,-0.10879,-0.4205,0.894635,-0.004224,-0.006472,0.001319,0.002113,0.00242,0.000986,-0.282749,0.095935,-0.954384,0.2866589487862889
1760734869.608524,-0.104793,-0.108801,-0.420484,0.894636,-0.007842,-0.003336,0.004322,0.001252,0.003192,-0.000578,-0.282802,0.096006,-0.954361,0.2867142480803355
1760734869.637947,-0.104869,-0.108772,-0.420452,0.894646,-0.007844,-0.002322,0.005322,0.000667,0.002469,0.00111,-0.282809,0.096175,-0.954342,0.2867215205733394
1760734869.670285,-0.105014,-0.108729,-0.420382,0.894667,-0.006986,-0.00105,0.002225,-0.000162,0.00118,-8.4e-05,-0.282844,0.09649,-0.9543,0.28675796260407604
1760734869.670514,-0.105068,-0.108658,-0.420362,0.894679,-0.005694,0.001434,-0.000497,0.000766,-0.0001,0.000123,-0.282761,0.096654,-0.954308,0.2866714302785411
1760734869.706226,-0.105143,-0.108576,-0.420371,0.894676,0.001042,0.000623,-0.000809,0.000913,0.001635,0.001925,-0.282678,0.096853,-0.954313,0.28658473508617677
1760734869.73913,-0.105138,-0.108596,-0.420394,0.894663,0.000964,0.000281,-0.00258,0.00121,0.002183,0.002032,-0.282713,0.09682,-0.954306,0.2866212179709574
1760734869.739791,-0.105134,-0.108616,-0.420417,0.89465,0.000886,-6e-05,-0.004352,0.001508,0.002731,0.002139,-0.282747,0.096788,-0.954299,0.2866567128253811
1760734869.780861,-0.105099,-0.108643,-0.420499,0.894612,0.001055,-0.000805,-0.005837,0.000808,0.002642,0.000435,-0.282774,0.096677,-0.954302,0.2866849322702034
1760734869.781385,-0.105094,-0.10864,-0.420519,0.894604,0.00174,-0.002484,-0.007043,0.000599,0.00271,0.001795,-0.282768,0.096664,-0.954305,0.28667870363457576
1760734869.812392,-0.105075,-0.108729,-0.420599,0.894558,0.001962,-0.004733,-0.006187,0.001315,0.003648,-0.000568,-0.282916,0.096528,-0.954275,0.28683297631164123
1760734869.812701,-0.105081,-0.108713,-0.42061,0.894554,0.003266,-0.004246,-0.005124,0.000639,0.002947,0.002025,-0.282896,0.09655,-0.954279,0.2868120410394715
1760734869.846585,-0.105058,-0.10881,-0.420684,0.89451,0.006536,-0.003127,-0.003522,0.001393,0.002639,0.001239,-0.283056,0.096402,-0.954246,0.2869790048492385
1760734869.875556,-0.105005,-0.108834,-0.42071,0.894501,0.009709,-0.00439,-0.006226,0.001573,0.001302,0.000857,-0.283059,0.096279,-0.954258,0.2869819998719293
1760734869.875895,-0.104953,-0.108859,-0.420736,0.894492,0.012883,-0.005653,-0.008929,0.001752,-3.5e-05,0.000476,-0.283061,0.096157,-0.95427,0.2869840029043548
1760734869.909581,-0.104824,-0.109081,-0.420839,0.894432,0.016212,-0.007469,-0.00833,0.001907,0.001545,0.002314,-0.283359,0.095706,-0.954226,0.2872949770920506
1760734869.909996,-0.104766,-0.109145,-0.420882,0.89441,0.017919,-0.0062,-0.008131,0.001329,0.001738,0.002216,-0.28343,0.095534,-0.954223,0.2873687724166755
1760734869.940084,-0.104668,-0.109219,-0.420907,0.894401,0.019345,-0.009182,-0.006916,0.000869,0.002772,0.002941,-0.283482,0.095287,-0.954232,0.2874230669175159
1760734869.972609,-0.104486,-0.109447,-0.420916,0.89439,0.013081,-0.00873,-0.001158,0.001174,0.003666,0.000295,-0.283736,0.094766,-0.954208,0.28768805315236173
1760734869.972905,-0.104442,-0.109516,-0.42091,0.89439,0.010556,-0.007889,0.000146,0.000773,0.002897,0.001138,-0.283822,0.09463,-0.954196,0.2877777178422787
1760734870.008142,-0.104382,-0.109639,-0.420845,0.894412,0.008957,-0.005421,0.002109,0.000189,0.001146,0.001139,-0.283982,0.094439,-0.954167,0.2879446735986726
1760734870.008458,-0.10435,-0.109697,-0.420825,0.894418,0.009818,-0.007531,0.000593,-0.00049,-0.000454,0.001991,-0.284056,0.094338,-0.954155,0.28802184179783763
1760734870.038793,-0.104331,-0.109792,-0.420817,0.894412,0.009659,-0.004815,-0.00051,-0.000112,0.000261,0.001173,-0.284207,0.094225,-0.954121,0.28817938931543574
1760734870.06947,-0.104202,-0.109895,-0.420787,0.894429,0.017956,-0.001619,-0.002993,-0.001114,-0.002513,0.001616,-0.284281,0.093918,-0.95413,0.28825635325045335
1760734870.069791,-0.104091,-0.109943,-0.420743,0.894457,0.021225,-0.002715,0.001498,-0.000125,-0.000282,0.000182,-0.28427,0.093694,-0.954155,0.28824496469515914
1760734870.107106,-0.103907,-0.109964,-0.420687,0.894502,0.0054,0.012697,0.002939,0.001753,0.004308,-0.001848,-0.28415,0.093369,-0.954223,0.2881196900933086
1760734870.107412,-0.103862,-0.109902,-0.420675,0.89452,-0.006422,0.019573,0.003599,0.000885,0.00264,-1.9e-05,-0.284003,0.093348,-0.954269,0.28796632175449244
1760734870.137326,-0.103843,-0.109747,-0.420645,0.894556,-0.009911,0.017897,0.004086,0.001203,0.002516,0.001885,-0.283711,0.093457,-0.954345,0.28766184838437225
1760734870.16586,-0.103847,-0.10952,-0.420674,0.894569,-0.002803,0.006287,-0.004,0.00271,-0.001639,0.0054,-0.283319,0.093652,-0.954442,0.287253169765058
1760734870.196558,-0.10381,-0.109516,-0.420711,0.894557,0.004341,0.002924,-0.004805,0.002447,-0.00067,0.0039,-0.283285,0.093579,-0.954459,0.28721778835434403
1760734870.196868,-0.103774,-0.109512,-0.420747,0.894544,0.011485,-0.000439,-0.00561,0.002184,0.0003,0.0024,-0.283252,0.093506,-0.954476,0.28718336434172376
1760734870.230845,-0.103585,-0.109608,-0.420782,0.894538,0.018213,-0.000608,0.001725,0.000263,0.005003,0.003627,-0.28327,0.093079,-0.954513,0.28720196201278597
1760734870.231239,-0.103466,-0.109679,-0.420746,0.894561,0.021885,-0.002756,0.006801,0.000707,0.004854,0.004584,-0.283294,0.092819,-0.954531,0.287227042229732
1760734870.261036,-0.103341,-0.10977,-0.420673,0.894598,0.022815,-0.007438,0.010155,-0.000108,0.002999,0.00261,-0.283346,0.092542,-0.954542,0.2872813939197718
1760734870.294406,-0.103104,-0.11003,-0.420446,0.8947,0.017971,-0.006259,0.008425,0.000292,-0.000348,-0.001337,-0.283586,0.091971,-0.954526,0.2875316354070049
1760734870.294747,-0.103059,-0.11007,-0.42038,0.894731,0.013393,-0.005613,0.00684,0.000582,-0.001329,-0.001243,-0.283613,0.091877,-0.954527,0.28755980003920634
1760734870.323108,-0.10299,-0.110118,-0.420334,0.894755,0.004598,-0.00626,-0.001779,0.00125,-0.006201,0.005004,-0.283637,0.091728,-0.954534,0.2875848839612777
1760734870.353065,-0.102994,-0.110254,-0.42036,0.894726,0.006095,-0.011648,-0.005526,0.001402,-0.004375,0.002378,-0.283884,0.09161,-0.954472,0.2878424447453932
1760734870.353456,-0.102998,-0.110391,-0.420385,0.894696,0.007591,-0.017035,-0.009273,0.001554,-0.002549,-0.000249,-0.28413,0.091491,-0.954411,0.2880987872718767
1760734870.385119,-0.103005,-0.110526,-0.420392,0.894676,-0.003691,-0.003141,0.003273,0.000328,0.00016,-0.001614,-0.284375,0.091383,-0.954348,0.2883544349325898
1760734870.418002,-0.103033,-0.110539,-0.420361,0.894685,-0.005454,-0.004841,0.005485,-5.4e-05,-0.00039,-0.000446,-0.284417,0.091431,-0.954331,0.2883982117822924
1760734870.418273,-0.103061,-0.110552,-0.420331,0.894695,-0.007217,-0.006541,0.007697,-0.000437,-0.00094,0.000722,-0.284459,0.09148,-0.954314,0.28844196075477346
1760734870.447965,-0.103205,-0.11063,-0.420251,0.894706,-0.00615,-0.005236,0.006312,0.001568,-0.002196,0.000559,-0.284706,0.091692,-0.95422,0.2886996121469469
1760734870.448329,-0.103275,-0.110615,-0.420206,0.894721,-0.008588,-0.004422,0.005897,0.001962,-0.002814,0.001116,-0.284732,0.091842,-0.954197,0.28872696611093124
1760734870.477443,-0.103332,-0.110613,-0.420175,0.894729,-0.0084,-0.004482,0.004104,0.001628,-0.003196,0.002469,-0.284772,0.091956,-0.954175,0.2887684338138804
1760734870.51788,-0.103489,-0.110647,-0.42015,0.894719,-0.0055,-0.009264,0.001887,0.001558,-0.002982,0.002222,-0.284958,0.09221,-0.954095,0.2889624603957701
1760734870.518387,-0.103512,-0.110666,-0.420149,0.894714,-0.004825,-0.007969,0.000466,0.000962,-0.003541,0.001429,-0.28501,0.092234,-0.954077,0.28901675191439324
1760734870.548925,-0.103592,-0.110803,-0.420148,0.894688,-0.002495,-0.008981,-0.000244,0.000113,0.00034,0.0,-0.285316,0.092258,-0.953983,0.2893360686352599
1760734870.549266,-0.103621,-0.110827,-0.420146,0.894683,-0.006307,-0.006734,0.001876,0.000407,0.00122,2e-06,-0.285383,0.092289,-0.95396,0.28940596390574497
1760734870.590126,-0.103831,-0.11084,-0.420105,0.894676,-0.01933,-0.006518,0.007104,0.001209,0.002692,0.002126,-0.285571,0.092662,-0.953867,0.28960229124859527
1760734870.590413,-0.103956,-0.110841,-0.420084,0.894671,-0.024169,-0.012622,0.009136,0.003002,0.005092,0.003517,-0.285673,0.092888,-0.953815,0.28970857576513864
1760734870.624397,-0.104452,-0.110815,-0.41997,0.89467,-0.031172,-0.015325,0.013634,0.001354,0.005019,0.001887,-0.286019,0.093822,-0.95362,0.29006960472263693
1760734870.655335,-0.104728,-0.110798,-0.419906,0.89467,-0.035975,-0.015136,0.013687,0.001565,0.005396,0.001391,-0.286207,0.094345,-0.953512,0.2902658037955364
1760734870.65565,-0.105005,-0.110781,-0.419842,0.89467,-0.040778,-0.014947,0.01374,0.001775,0.005773,0.000895,-0.286396,0.094868,-0.953403,0.2904631616492034
1760734870.698292,-0.105697,-0.110694,-0.419754,0.894641,-0.041588,-0.015971,0.007712,0.001306,0.007558,0.002621,-0.286797,0.096193,-0.95315,0.2908816225633344
1760734870.698602,-0.105916,-0.110662,-0.419745,0.894623,-0.040928,-0.01759,0.006549,0.000407,0.009258,0.002398,-0.286916,0.096611,-0.953072,0.29100581632761174
1760734870.736139,-0.106574,-0.110641,-0.419754,0.894543,-0.038404,-0.019606,-0.007716,0.001119,0.00929,-0.000608,-0.287416,0.097786,-0.952801,0.2915279381326508
1760734870.736354,-0.106807,-0.11068,-0.419806,0.894486,-0.030339,-0.024006,-0.006258,0.00113,0.010138,0.000992,-0.287679,0.098146,-0.952685,0.2918024228883355
1760734870.793552,-0.107256,-0.110858,-0.419863,0.894384,-0.007343,-0.019041,0.00132,0.001304,0.007395,0.001664,-0.288364,0.098767,-0.952413,0.2925179326931217
1760734870.793947,-0.107295,-0.11099,-0.419851,0.894368,0.005722,-0.019153,0.000272,0.000848,0.005424,0.002712,-0.288628,0.098724,-0.952338,0.29279350893664535
1760734870.794476,-0.107334,-0.111123,-0.419839,0.894353,0.018787,-0.019265,-0.000776,0.000391,0.003452,0.00376,-0.288891,0.098681,-0.952263,0.2930681271580833
1760734870.825567,-0.107061,-0.111676,-0.419791,0.894339,0.053181,-0.029684,-0.009581,-0.003196,-0.008874,0.002801,-0.28964,0.097737,-0.952132,0.2938508157219161
1760734870.856535,-0.106847,-0.111985,-0.419768,0.894337,0.052848,-0.026522,-0.003729,-0.001975,-0.006448,0.002283,-0.290006,0.097099,-0.952086,0.29423319092502875
1760734870.856863,-0.106632,-0.112293,-0.419744,0.894335,0.052516,-0.023359,0.002123,-0.000755,-0.004022,0.001765,-0.290372,0.096461,-0.95204,0.2946154455368587
1760734870.8913,-0.106257,-0.112984,-0.419517,0.894399,0.033107,-0.034359,0.015082,-0.002286,-0.003129,-0.000167,-0.291259,0.095275,-0.951888,0.2955426492483502
1760734870.891658,-0.106206,-0.113215,-0.419343,0.894457,0.017802,-0.029271,0.028613,-0.001848,-0.00187,-0.004197,-0.291605,0.095043,-0.951805,0.2959044247371376
1760734870.922145,-0.106338,-0.11339,-0.418752,0.894696,-0.006203,-0.006117,0.043443,-0.001491,-0.002435,-0.002346,-0.291957,0.095316,-0.95167,0.29627237594483
1760734870.958915,-0.106405,-0.113391,-0.418517,0.894798,-0.006289,-0.005759,0.042057,-0.002038,-0.002245,-0.00104,-0.291989,0.095509,-0.951641,0.29630578505557104
1760734870.95924,-0.106472,-0.113393,-0.418282,0.8949,-0.006376,-0.005402,0.040671,-0.002585,-0.002055,0.000267,-0.29202,0.095703,-0.951612,0.29633819692108815
1760734870.989341,-0.106657,-0.11338,-0.417708,0.895148,-0.007129,-0.004545,0.042684,0.001339,-0.000629,0.003154,-0.292086,0.096228,-0.951539,0.2964071467927738
1760734870.989739,-0.106734,-0.113325,-0.417455,0.895264,-0.003716,0.00557,0.033865,0.000712,-0.003484,0.001236,-0.292024,0.096494,-0.951531,0.29634234724908487
1760734871.021676,-0.106753,-0.113248,-0.417138,0.895418,0.001846,-0.000559,0.006032,-0.001721,-0.003797,0.002661,-0.291871,0.096697,-0.951557,0.29618247544475246
1760734871.052612,-0.106725,-0.113339,-0.417131,0.895414,0.010252,-0.011031,-0.002011,-0.001984,-0.00339,0.002321,-0.292007,0.096573,-0.951528,0.2963246313510872
1760734871.052975,-0.106698,-0.113429,-0.417123,0.895409,0.018658,-0.021504,-0.010053,-0.002247,-0.002983,0.001981,-0.292143,0.096449,-0.951499,0.2964667827879273
1760734871.083416,-0.106261,-0.113935,-0.417272,0.895328,0.048901,-0.012756,-0.022372,-0.00233,-0.001209,-1e-06,-0.292698,0.095193,-0.951455,0.2970471270506326
1760734871.113888,-0.105947,-0.114195,-0.417338,0.895301,0.050239,-0.011612,-0.015775,-0.002127,0.002985,-0.001199,-0.29291,0.094392,-0.951469,0.2972690078681312
1760734871.114312,-0.105632,-0.114455,-0.417405,0.895274,0.051577,-0.010469,-0.009179,-0.001925,0.007178,-0.002399,-0.29312,0.093591,-0.951484,0.2974884895941179
1760734871.144482,-0.105044,-0.114599,-0.417346,0.895352,0.015292,0.021665,0.011353,0.000817,0.00832,-0.000696,-0.292893,0.092448,-0.951665,0.2972512528002465
1760734871.184391,-0.104995,-0.114451,-0.417298,0.895399,0.001377,0.028643,0.013646,0.001108,0.00751,0.000263,-0.292587,0.092503,-0.951754,0.29693116906544564
1760734871.184679,-0.104945,-0.114303,-0.41725,0.895446,-0.012537,0.03562,0.015938,0.0014,0.0067,0.001222,-0.292281,0.092559,-0.951843,0.2966110565589226
1760734871.213766,-0.105052,-0.113735,-0.417211,0.895524,-0.027396,0.029017,0.00153,0.001276,0.003264,0.010102,-0.291363,0.09325,-0.952057,0.29565127359932214
1760734871.214117,-0.105154,-0.113473,-0.417285,0.895511,-0.022187,0.02333,-0.006898,0.000679,0.003962,0.006646,-0.290991,0.093631,-0.952133,0.29526253337927744
1760734871.244325,-0.105249,-0.112955,-0.417545,0.895444,-0.011688,0.029034,-0.018286,0.001827,0.004852,0.001091,-0.290182,0.094162,-0.952328,0.29441691020854815
1760734871.274287,-0.105212,-0.112779,-0.417671,0.895412,-0.008947,0.026732,-0.01435,0.001938,0.00589,0.001498,-0.289855,0.094207,-0.952423,0.2940752620289343
1760734871.274674,-0.105175,-0.112603,-0.417797,0.89538,-0.006206,0.02443,-0.010414,0.002049,0.006927,0.001905,-0.289529,0.094253,-0.952517,0.2937348302070308
1760734871.306393,-0.105165,-0.112194,-0.417962,0.895355,-0.012839,0.022455,-0.007586,0.002996,0.007124,-0.001369,-0.288817,0.094534,-0.952706,0.29299084920892493
1760734871.313324,-0.10518,-0.111838,-0.418125,0.895322,-0.009117,0.021792,-0.008867,0.002216,0.002901,0.002471,-0.288218,0.094816,-0.952859,0.2923653500899072
1760734871.343504,-0.105152,-0.111678,-0.418216,0.895302,-0.001248,0.017683,-0.012377,0.001784,0.00384,0.001496,-0.287924,0.094875,-0.952942,0.2920583373194258
1760734871.373632,-0.105087,-0.111581,-0.418318,0.895275,0.003455,0.019328,-0.013487,0.00255,0.005741,-0.001184,-0.287711,0.094811,-0.953013,0.2918358400259565
1760734871.373984,-0.105022,-0.111484,-0.41842,0.895247,0.008159,0.020972,-0.014597,0.003317,0.007641,-0.003864,-0.287499,0.094747,-0.953083,0.2916145852388371
1760734871.408059,-0.10461,-0.111224,-0.418602,0.895242,0.023992,0.024044,-0.01366,0.002359,0.008113,0.002056,-0.286725,0.094185,-0.953372,0.29080651477159086
1760734871.408364,-0.104409,-0.111142,-0.418659,0.895249,0.028743,0.022462,-0.016112,0.002104,0.00735,0.002055,-0.286423,0.093884,-0.953492,0.29049142475025597
1760734871.446357,-0.103853,-0.111146,-0.41881,0.895242,0.033482,0.014388,-0.009191,0.00419,0.005812,0.001817,-0.285995,0.09285,-0.953722,0.29004465170134397
1760734871.473633,-0.103645,-0.111151,-0.41884,0.895252,0.031871,0.0127,-0.008311,0.003763,0.004101,0.002412,-0.285838,0.092468,-0.953806,0.2898808623816813
1760734871.47394,-0.103437,-0.111157,-0.418869,0.895262,0.030259,0.011013,-0.007431,0.003336,0.002391,0.003006,-0.285682,0.092086,-0.95389,0.28971798638108814
1760734871.515099,-0.102972,-0.111216,-0.418917,0.895286,0.035574,0.005009,-0.011804,0.003564,-0.001402,0.000821,-0.285414,0.091198,-0.954056,0.28943820793169667
1760734871.515458,-0.102797,-0.111263,-0.418942,0.895288,0.037353,0.005882,-0.014386,0.003401,-0.001714,0.001163,-0.285358,0.09084,-0.954106,0.28938003477938623
1760734871.545467,-0.102179,-0.111487,-0.419106,0.895254,0.046717,0.005793,-0.022046,0.002778,-0.004809,-0.001197,-0.285266,0.089502,-0.95426,0.2892840310046278
1760734871.55333,-0.101571,-0.111689,-0.419361,0.895179,0.048423,0.004507,-0.031559,0.004077,-0.00506,-0.000106,-0.285153,0.088173,-0.954418,0.289165987820188
1760734871.581692,-0.101182,-0.111829,-0.419567,0.895109,0.04533,0.003736,-0.035438,0.005106,-0.003699,0.001754,-0.285104,0.087299,-0.954513,0.2891148592740455
1760734871.613792,-0.100883,-0.111976,-0.419783,0.895023,0.042324,0.002309,-0.037514,0.005569,-0.003005,0.002052,-0.285141,0.086574,-0.954568,0.28915345556708527
1760734871.614133,-0.100584,-0.112124,-0.419998,0.894937,0.039318,0.000881,-0.039589,0.006032,-0.00231,0.00235,-0.285178,0.08585,-0.954622,0.28919215309225366
1760734871.659189,-0.099903,-0.112449,-0.420653,0.894665,0.007516,-0.000445,-0.023747,0.003343,0.003981,-0.000385,-0.285257,0.084156,-0.954749,0.28927464157810134
1760734871.688383,-0.099852,-0.112412,-0.420769,0.894621,0.000274,0.003987,-0.010211,0.002856,0.003753,-0.000823,-0.285161,0.08406,-0.954786,0.2891745195242981
1760734871.689492,-0.099838,-0.112328,-0.42082,0.894609,-0.002331,0.00579,-0.002297,0.002774,0.002817,-0.000212,-0.285006,0.084092,-0.95483,0.28901265605458837
1760734871.722892,-0.099835,-0.112235,-0.420831,0.894616,-0.001816,0.004487,0.000238,0.002501,0.001679,7e-05,-0.284842,0.084164,-0.954873,0.28884144895848757
1760734871.754035,-0.099832,-0.112151,-0.420814,0.894635,-0.000471,0.004297,0.002314,0.002313,0.000781,-0.000167,-0.28469,0.084237,-0.954911,0.28868313698049364
1760734871.755254,-0.099813,-0.11208,-0.420816,0.894645,0.000254,0.003394,0.001069,0.002719,0.000201,-0.000192,-0.284549,0.084264,-0.954951,0.2885359525297184
1760734871.789742,-0.09977,-0.112038,-0.42083,0.894648,0.001163,0.003573,-0.001712,0.002968,0.000305,0.000164,-0.284441,0.084219,-0.954987,0.28842333811521664
1760734871.791758,-0.099732,-0.111986,-0.420847,0.894651,0.001356,0.003729,-0.001521,0.004194,0.000768,0.001234,-0.28432,0.084192,-0.955025,0.2882972436827411
1760734871.821908,-0.099709,-0.111959,-0.420876,0.894643,0.000623,0.001713,-0.000698,0.003459,0.002594,0.002582,-0.284258,0.084165,-0.955047,0.28823224562990124
1760734871.852659,-0.099698,-0.111947,-0.42089,0.894639,-0.000764,-0.001232,0.001891,0.004141,0.004277,0.00218,-0.284229,0.084152,-0.955056,0.28820221786598443
1760734871.853992,-0.099726,-0.11191,-0.420861,0.894655,-0.005076,-0.002937,0.00405,0.003722,0.004505,0.00191,-0.284183,0.084244,-0.955062,0.288154119901251
1760734871.883924,-0.099807,-0.111869,-0.420799,0.89468,-0.008623,-0.003988,0.00709,0.00353,0.00461,0.001786,-0.284172,0.084442,-0.955048,0.2881425866669946
1760734871.91355,-0.099936,-0.111847,-0.420721,0.894705,-0.013061,-0.005904,0.008882,0.003091,0.003983,0.002469,-0.28423,0.084713,-0.955006,0.2882032907338192
1760734871.915377,-0.100132,-0.111816,-0.420643,0.894724,-0.015214,-0.00753,0.008958,0.002155,0.00315,0.002696,-0.284328,0.085112,-0.954942,0.2883053238916384
1760734871.944823,-0.100348,-0.111792,-0.420575,0.894734,-0.017441,-0.009441,0.007337,0.002255,0.003784,0.001687,-0.284455,0.085536,-0.954866,0.2884378761287827
1760734871.977829,-0.100581,-0.111798,-0.420545,0.894721,-0.018749,-0.008625,0.004943,0.002041,0.004954,0.001143,-0.284653,0.085951,-0.954769,0.2886446199009443
1760734871.979045,-0.100819,-0.111777,-0.42051,0.894714,-0.018699,-0.009264,0.004766,0.002266,0.004981,0.001352,-0.284808,0.086402,-0.954683,0.2888060477238644
1760734872.010933,-0.101038,-0.111765,-0.420496,0.894697,-0.017845,-0.007445,0.003944,0.001817,0.005573,0.00248,-0.284965,0.086803,-0.9546,0.2889697695428049
1760734872.013669,-0.101248,-0.111758,-0.420492,0.894676,-0.016457,-0.006952,0.00374,0.001612,0.005843,0.002993,-0.285122,0.087182,-0.954518,0.2891337287237923
1760734872.041983,-0.101441,-0.111722,-0.420481,0.894664,-0.015075,-0.008574,0.002323,0.001812,0.006268,0.002105,-0.285215,0.087558,-0.954456,0.28923070001312906
1760734872.072748,-0.101639,-0.111704,-0.420478,0.894645,-0.01374,-0.007945,0.000188,0.002017,0.006423,0.000955,-0.285344,0.087925,-0.954383,0.2893654926998463
1760734872.074155,-0.101812,-0.111728,-0.420493,0.894616,-0.011358,-0.008257,0.001062,0.002057,0.006909,0.001559,-0.28553,0.088204,-0.954302,0.28955945966460295
1760734872.104253,-0.101971,-0.111747,-0.420461,0.89461,-0.009257,-0.007143,0.004627,0.001207,0.005818,0.000994,-0.28569,0.088479,-0.954229,0.2897263156078529
1760734872.13335,-0.102084,-0.111783,-0.420381,0.89463,-0.00248,-0.006991,0.011767,0.000405,0.004263,0.001114,-0.285838,0.088672,-0.954167,0.2898806877649327
1760734872.137175,-0.102133,-0.111807,-0.420227,0.894694,0.001473,-0.006424,0.017407,0.000819,0.005312,4.3e-05,-0.285904,0.088787,-0.954136,0.2899497133518633
1760734872.167516,-0.102165,-0.111813,-0.420029,0.894782,0.001625,0.002406,0.019265,0.001531,0.006014,-0.003071,-0.285922,0.088901,-0.95412,0.2899684949206486
1760734872.171273,-0.102158,-0.111732,-0.419842,0.894881,0.000237,0.012484,0.020343,0.001588,0.005206,-0.001748,-0.285754,0.089018,-0.95416,0.28979301549729974
1760734872.201905,-0.102137,-0.111539,-0.419678,0.894984,-0.002831,0.018625,0.018048,0.002532,0.002926,-0.000144,-0.285381,0.0892,-0.954254,0.28940398821068714
1760734872.233791,-0.102119,-0.111367,-0.419581,0.895054,-0.002679,0.011203,0.008468,0.003145,0.00103,0.004519,-0.285053,0.089349,-0.954338,0.2890617998589975
1760734872.234102,-0.102135,-0.111294,-0.419568,0.895067,-0.00134,0.002625,-8e-06,0.003924,0.002036,0.003873,-0.284936,0.089444,-0.954364,0.28893974927190347
1760734872.261909,-0.102136,-0.111258,-0.419584,0.895064,0.000525,-1.1e-05,-0.002102,0.003224,0.003645,0.001814,-0.284876,0.089473,-0.954379,0.28887720989311544
1760734872.293848,-0.102126,-0.111253,-0.419603,0.895056,0.001907,-0.001374,0.000169,0.002224,0.004187,0.001188,-0.284861,0.089452,-0.954386,0.2888614043337996
1760734872.295342,-0.102102,-0.11125,-0.419559,0.89508,0.004344,-0.000974,0.006078,0.00197,0.005577,0.002049,-0.284832,0.089428,-0.954397,0.28883112393755006
1760734872.325307,-0.102068,-0.111278,-0.419446,0.895134,0.006277,-0.002709,0.013605,0.001486,0.004698,0.00167,-0.28484,0.089379,-0.954399,0.28883952708209715
1760734872.332178,-0.102051,-0.111297,-0.419276,0.895213,0.007008,-0.004247,0.016182,0.000965,0.003193,0.00112,-0.284844,0.089386,-0.954397,0.2888437426614252
1760734872.362145,-0.102043,-0.111355,-0.419106,0.895286,0.004908,-0.006555,0.014688,0.00049,0.001795,0.000876,-0.284923,0.089377,-0.954374,0.2889262319479478
1760734872.392488,-0.102057,-0.111389,-0.418964,0.895347,0.002102,-0.005315,0.008935,0.000216,0.000791,0.000386,-0.28498,0.089416,-0.954354,0.28898550659484246
1760734872.394632,-0.102087,-0.111424,-0.418901,0.895369,0.000416,-0.005425,0.000877,0.000159,0.000734,0.000552,-0.285061,0.08946,-0.954325,0.2890702062051667
1760734872.424925,-0.102133,-0.111489,-0.418905,0.895354,0.003237,-0.005032,-0.002149,-3.7e-05,0.001171,0.002536,-0.285212,0.089483,-0.954278,0.2892276685030556
1760734872.455056,-0.102112,-0.111564,-0.418933,0.895333,0.006383,-0.007941,-0.00696,0.000198,3.3e-05,0.002347,-0.28533,0.089374,-0.954253,0.2893507672176642
1760734872.45534,-0.102076,-0.111675,-0.418984,0.8953,0.006222,-0.005436,-0.006356,0.000844,0.002628,-0.001736,-0.285502,0.089198,-0.954218,0.2895302385883411
1760734872.490132,-0.102049,-0.111735,-0.419018,0.895279,0.00347,0.000646,-0.001243,0.000892,0.003843,-0.001994,-0.285589,0.089088,-0.954203,0.28962080257526923
1760734872.492173,-0.102024,-0.111729,-0.419022,0.895281,0.001471,0.003577,-0.000715,0.0004,0.002493,0.000665,-0.285559,0.089047,-0.954215,0.2895897279890415
1760734872.521067,-0.102006,-0.111682,-0.419022,0.895289,-0.001421,0.002249,-0.000663,0.00039,0.000604,0.001531,-0.28546,0.089055,-0.954244,0.2894863925732599
1760734872.551252,-0.102021,-0.111622,-0.41903,0.895291,-0.003845,0.001235,-0.001586,0.001331,0.000696,0.001613,-0.285369,0.089131,-0.954264,0.28939147777002894
1760734872.55341,-0.10207,-0.111575,-0.419063,0.895276,-0.007098,0.000705,-0.003113,0.001924,0.001087,0.001264,-0.285328,0.089247,-0.954266,0.2893485339164451
1760734872.581861,-0.102144,-0.111523,-0.419093,0.89526,-0.00942,0.001599,-0.003181,0.002311,0.002038,0.001885,-0.285299,0.089414,-0.954259,0.28931828688188077
1760734872.613274,-0.102236,-0.111454,-0.419133,0.895239,-0.010795,0.001284,-0.002439,0.001497,0.002368,0.000819,-0.285257,0.089623,-0.954252,0.28927445165065657
1760734872.617108,-0.102329,-0.111392,-0.419167,0.89522,-0.014072,0.001213,-0.000151,0.00085,0.005087,0.000183,-0.285227,0.089831,-0.954241,0.28924326759054225
1760734872.647261,-0.102464,-0.111285,-0.419171,0.895216,-0.01731,0.003441,0.002038,0.001696,0.004648,0.000558,-0.285149,0.09016,-0.954233,0.2891619683616522
1760734872.650809,-0.102617,-0.11116,-0.419163,0.895218,-0.018711,0.004405,0.002985,0.001813,0.003713,0.000719,-0.285052,0.090541,-0.954226,0.2890607417637607
1760734872.679507,-0.102766,-0.111038,-0.419161,0.895217,-0.017492,0.002556,0.002193,0.001799,0.002917,0.0004,-0.284956,0.09091,-0.95422,0.28896047146644543
1760734872.708205,-0.102913,-0.110916,-0.419163,0.895215,-0.015187,0.002828,0.000477,0.002574,0.003971,0.001908,-0.284862,0.091274,-0.954213,0.2888624973521377
1760734872.70935,-0.103042,-0.110821,-0.419168,0.895209,-0.012107,0.002247,9.4e-05,0.002451,0.004992,0.002858,-0.284799,0.091583,-0.954202,0.28879683119615307
1760734872.7423,-0.103145,-0.110762,-0.419176,0.895201,-0.009983,0.001728,0.001661,0.002724,0.004078,0.002186,-0.28478,0.091814,-0.954186,0.28877686060963864
1760734872.77091,-0.103232,-0.110732,-0.419177,0.895194,-0.007112,2.1e-05,0.001912,0.002907,0.004077,0.002287,-0.284798,0.091993,-0.954163,0.2887957478366231
1760734872.773006,-0.103329,-0.11069,-0.419171,0.895191,-0.006246,-0.001422,0.002798,0.002583,0.004212,0.001462,-0.284802,0.092203,-0.954142,0.2887997891536021
1760734872.80729,-0.1034,-0.110635,-0.419154,0.895197,-0.006921,-0.001692,0.003,0.003032,0.00449,0.001588,-0.284762,0.092381,-0.954136,0.28875826573035906
1760734872.808088,-0.103485,-0.110597,-0.419131,0.895203,-0.00634,0.000404,0.002309,0.002821,0.004745,0.000772,-0.28476,0.092571,-0.954119,0.288755947421618
1760734872.849381,-0.103563,-0.110576,-0.419117,0.895203,-0.004124,-0.00019,0.001587,0.003004,0.003928,0.000511,-0.284786,0.092732,-0.954095,0.28878324203228006
1760734872.850678,-0.103615,-0.110541,-0.419109,0.895205,-0.003856,0.00062,0.000319,0.003487,0.003443,0.001271,-0.284766,0.092855,-0.954089,0.28876238006145366
1760734872.881503,-0.103654,-0.110502,-0.419104,0.895208,-0.002143,-0.001242,0.000134,0.002521,0.003626,0.0022,-0.284728,0.092961,-0.95409,0.2887227443809862
1760734872.911057,-0.103714,-0.11048,-0.419098,0.895206,-0.00402,-0.00284,-0.000305,0.002571,0.003131,0.002293,-0.284738,0.093086,-0.954075,0.28873312746645907
1760734872.912983,-0.103782,-0.110467,-0.419092,0.895203,-0.00506,-0.003441,0.001079,0.002778,0.003279,0.00194,-0.284769,0.09322,-0.954053,0.2887653710742453
1760734872.94271,-0.103853,-0.110457,-0.419086,0.895199,-0.00537,-0.002901,0.002454,0.00268,0.002984,0.002182,-0.284809,0.093357,-0.954027,0.2888072870681618
1760734872.949641,-0.10395,-0.110426,-0.419055,0.895206,-0.006799,-0.002241,0.004431,0.002076,0.003889,0.000532,-0.28483,0.093564,-0.954001,0.28882903900212215
1760734872.979992,-0.104046,-0.110397,-0.419026,0.895212,-0.008219,-0.001688,0.003511,0.001976,0.003377,0.000711,-0.284854,0.093767,-0.953974,0.28885404864672787
1760734873.008284,-0.104172,-0.110377,-0.419006,0.895209,-0.010626,-0.002538,0.004519,0.002529,0.003383,0.001272,-0.284918,0.094014,-0.95393,0.28892097889904944
1760734873.01027,-0.10428,-0.110352,-0.418982,0.895211,-0.009521,-0.003605,0.005305,0.002353,0.003523,0.000628,-0.28496,0.094234,-0.953896,0.2889647234473079
1760734873.03947,-0.104392,-0.110315,-0.418943,0.89522,-0.009366,-0.002258,0.003875,0.001682,0.00336,-0.000129,-0.284982,0.094477,-0.953865,0.28898778587637913
1760734873.072573,-0.104483,-0.110296,-0.418923,0.895221,-0.007864,-0.001325,0.002663,0.001932,0.003113,-0.000357,-0.285018,0.094659,-0.953837,0.28902511646019324
1760734873.074219,-0.10457,-0.110269,-0.418922,0.895215,-0.006481,0.000511,0.000571,0.002513,0.003273,0.000828,-0.285042,0.094837,-0.953812,0.2890501966479466
1760734873.106458,-0.10463,-0.110218,-0.418929,0.895211,-0.00497,0.000122,-0.000919,0.002756,0.00334,0.001324,-0.285001,0.094985,-0.953809,0.28900757123909265
1760734873.109253,-0.10468,-0.110201,-0.418964,0.895191,-0.004603,-0.001648,-0.003134,0.003147,0.003269,0.003212,-0.285016,0.095078,-0.953796,0.2890230080934118
1760734873.139706,-0.104747,-0.110216,-0.419033,0.895149,-0.003648,-0.004352,-0.005471,0.002731,0.003437,0.000635,-0.285104,0.095159,-0.953761,0.2891149934485954
1760734873.169307,-0.1048,-0.110226,-0.419094,0.895113,-0.002293,-0.004951,-0.003871,0.002223,0.004894,0.000667,-0.285172,0.095225,-0.953734,0.289185962192178
1760734873.169314,-0.104847,-0.110252,-0.419118,0.895093,-0.00133,-0.002781,-0.000809,0.001879,0.004693,-0.000119,-0.285258,0.095279,-0.953703,0.2892756573644918
1760734873.201209,-0.104853,-0.110247,-0.419083,0.895109,0.002061,-0.001178,0.005804,0.001245,0.00477,0.00275,-0.285251,0.095305,-0.953703,0.2892682108211606
1760734873.229647,-0.104836,-0.110261,-0.41898,0.895158,0.003558,-0.000552,0.015127,0.001161,0.004317,0.00194,-0.285251,0.095296,-0.953704,0.28926818225034273
1760734873.231631,-0.104852,-0.110235,-0.41882,0.895234,-0.001172,0.003198,0.021277,0.001305,0.003645,-0.000398,-0.2852,0.095396,-0.953709,0.28921504435512824
1760734873.257228,-0.104889,-0.110074,-0.418609,0.895348,-0.008891,0.016944,0.02397,0.00216,0.003958,-0.001271,-0.284925,0.095668,-0.953764,0.2889281261731706
1760734873.296433,-0.104979,-0.10982,-0.418441,0.895448,-0.015328,0.02199,0.021318,0.002571,0.001494,0.000154,-0.284531,0.096101,-0.953838,0.2885171385744098
1760734873.326495,-0.105117,-0.10953,-0.418322,0.895522,-0.021858,0.015932,0.012615,0.003696,-0.00199,0.004722,-0.284119,0.096632,-0.953907,0.28808744819618937
1760734873.329226,-0.105292,-0.109348,-0.418285,0.895541,-0.023411,0.002761,0.003139,0.004001,-0.002509,0.005704,-0.283935,0.097109,-0.953913,0.2878956426991169
1760734873.329574,-0.105507,-0.109232,-0.41828,0.895533,-0.023462,-0.002843,0.002657,0.004057,-0.000974,0.002703,-0.283904,0.097591,-0.953873,0.28786332244909596
1760734873.358959,-0.105751,-0.109148,-0.418242,0.895532,-0.022336,-0.000366,0.012329,0.00328,-0.00094,0.00138,-0.283951,0.098106,-0.953807,0.28791210782319127
1760734873.388119,-0.105942,-0.109055,-0.418079,0.895597,-0.014065,-0.001108,0.025029,0.001746,-0.003541,0.002855,-0.283922,0.098575,-0.953767,0.2878819412094268
1760734873.391339,-0.106084,-0.108971,-0.417799,0.895721,-0.010733,-0.002267,0.036056,0.002085,-0.010538,0.004316,-0.283858,0.098988,-0.953743,0.2878152727271652
1760734873.422942,-0.106208,-0.108908,-0.417437,0.895883,-0.005982,-0.003009,0.041914,0.002873,-0.01966,0.006985,-0.283808,0.099375,-0.953718,0.28776302511186586
1760734873.426776,-0.106287,-0.108906,-0.417046,0.896055,0.003539,-0.007571,0.042348,0.004127,-0.030609,0.010239,-0.283825,0.099639,-0.953685,0.28778086586658846
1760734873.458291,-0.106216,-0.109005,-0.416645,0.896238,0.033101,-0.017987,0.035238,0.00496,-0.042531,0.013232,-0.283897,0.099558,-0.953672,0.2878559627086971
1760734873.488665,-0.105822,-0.10946,-0.416272,0.896403,0.087978,-0.038246,0.026403,0.004993,-0.050297,0.014128,-0.284343,0.098588,-0.95364,0.2883211035018131
1760734873.488942,-0.104875,-0.110425,-0.415853,0.89659,0.168651,-0.060738,0.024173,0.004809,-0.062497,0.016166,-0.285238,0.096218,-0.953615,0.2892547068237668
1760734873.516885,-0.103281,-0.111949,-0.415393,0.8968,0.249124,-0.092744,0.011711,0.002726,-0.075885,0.015854,-0.286596,0.092239,-0.953601,0.2906718701710219
1760734873.548073,-0.101192,-0.114115,-0.41494,0.896974,0.302213,-0.120368,0.003063,0.001158,-0.081902,0.011468,-0.288694,0.086831,-0.953476,0.29286242619074265
1760734873.549791,-0.098806,-0.116658,-0.414468,0.897131,0.332407,-0.143148,-0.001828,-0.003386,-0.084322,0.007012,-0.291219,0.080581,-0.953257,0.29550071243558523
1760734873.57846,-0.096252,-0.119407,-0.413951,0.897286,0.353821,-0.142299,-0.002026,-0.00571,-0.091222,-0.007141,-0.293971,0.073875,-0.952955,0.2983788179365924
1760734873.613929,-0.093441,-0.122178,-0.413429,0.897451,0.37889,-0.136961,-0.008223,-0.007901,-0.091388,-0.007674,-0.29656,0.066693,-0.952683,0.30108848196865406
1760734873.615245,-0.090332,-0.124991,-0.412994,0.897582,0.398639,-0.120543,-0.025062,-0.008675,-0.089737,-0.008796,-0.298993,0.05892,-0.952435,0.30363707930667566
1760734873.644541,-0.086997,-0.127712,-0.412694,0.897666,0.404862,-0.101152,-0.041102,-0.006372,-0.083823,-0.003209,-0.301092,0.050776,-0.952242,0.30583767880813256
1760734873.646534,-0.083566,-0.130311,-0.412551,0.897684,0.394686,-0.086558,-0.055683,-0.005471,-0.073126,0.000706,-0.302907,0.042511,-0.952071,0.3077416393634153
1760734873.676681,-0.080329,-0.132646,-0.412562,0.897633,0.345,-0.070797,-0.062233,-0.000396,-0.05815,0.00667,-0.304416,0.034762,-0.951905,0.30932517088122125
1760734873.70585,-0.077642,-0.134609,-0.412667,0.897529,0.265408,-0.061295,-0.054746,0.001177,-0.045904,0.012876,-0.305712,0.028273,-0.951704,0.3106861905967384
1760734873.709754,-0.075655,-0.136109,-0.412768,0.897426,0.190262,-0.048286,-0.036931,0.003977,-0.040895,0.013963,-0.306752,0.023427,-0.951501,0.31177866539065097
1760734873.740283,-0.074203,-0.137221,-0.412827,0.897351,0.1418,-0.036894,-0.026295,0.004861,-0.035308,0.011633,-0.307537,0.019874,-0.951329,0.3126033626573608
1760734873.747208,-0.073022,-0.138079,-0.412872,0.897295,0.123147,-0.022834,-0.028439,0.003615,-0.03213,0.010842,-0.308093,0.017026,-0.951204,0.31318783592838695
1760734873.776532,-0.071943,-0.138797,-0.413004,0.897211,0.103745,-0.017689,-0.033663,0.003405,-0.020362,0.010898,-0.308485,0.014448,-0.951119,0.3136000913833847
1760734873.808263,-0.071114,-0.139287,-0.413194,0.897114,0.060883,-0.007474,-0.029592,0.002258,-0.006487,0.012855,-0.308681,0.012489,-0.951084,0.3138058850354621
1760734873.808666,-0.070789,-0.139421,-0.413372,0.897036,-0.014659,0.010779,-0.013817,0.004504,0.005147,0.013722,-0.308656,0.011735,-0.951101,0.31377982246840297
1760734873.83985,-0.071192,-0.139056,-0.413533,0.896987,-0.10994,0.022921,0.006784,0.003955,0.013716,0.015351,-0.308344,0.012709,-0.95119,0.31345172541862737
1760734873.853125,-0.07244,-0.13807,-0.413599,0.897009,-0.200223,0.052512,0.031085,0.005074,0.014378,0.014183,-0.307623,0.015747,-0.951378,0.31269388498105055
1760734873.882824,-0.074328,-0.136485,-0.413587,0.897102,-0.269165,0.077974,0.049196,0.004374,0.01769,0.015123,-0.306365,0.020462,-0.951694,0.3113721040132896
1760734873.885227,-0.076726,-0.134471,-0.413505,0.897242,-0.31778,0.087983,0.064865,0.004347,0.021574,0.0154,-0.30476,0.026475,-0.952061,0.30968647492223617
1760734873.914716,-0.079433,-0.132262,-0.413387,0.89739,-0.342868,0.09127,0.069121,0.004923,0.023331,0.012576,-0.303054,0.033214,-0.952394,0.30789585740946374
1760734873.945183,-0.082275,-0.129961,-0.413278,0.89752,-0.355334,0.091676,0.070378,0.005855,0.030051,0.00785,-0.30129,0.040266,-0.952682,0.30604522827577035
1760734873.946668,-0.085222,-0.127637,-0.413147,0.897639,-0.357472,0.087347,0.076668,0.00594,0.037664,0.006171,-0.299562,0.047532,-0.952892,0.30423356247855227
1760734873.975862,-0.088128,-0.125353,-0.412957,0.897767,-0.34225,0.078538,0.076721,0.003948,0.043064,0.003364,-0.297863,0.054706,-0.95304,0.3024532006501224
1760734874.007076,-0.090912,-0.123206,-0.412748,0.897883,-0.323513,0.07446,0.075299,0.001521,0.049294,-0.002501,-0.296296,0.061552,-0.953111,0.3008120802387559
1760734874.00928,-0.093535,-0.121177,-0.412532,0.897989,-0.313517,0.068354,0.071953,0.001813,0.058031,-0.007039,-0.294803,0.068009,-0.953135,0.2992492941553349
1760734874.038516,-0.096177,-0.119206,-0.412322,0.898071,-0.310505,0.064485,0.072365,0.002799,0.06107,-0.006888,-0.293422,0.074445,-0.95308,0.2978044403994019
1760734874.075215,-0.098841,-0.117257,-0.412101,0.898139,-0.311747,0.06471,0.074675,0.003374,0.062612,-0.007253,-0.292091,0.080902,-0.952963,0.2964123385320287
1760734874.077438,-0.101494,-0.115309,-0.411856,0.898208,-0.306558,0.061101,0.073128,0.005168,0.062671,-0.006254,-0.290745,0.087345,-0.952805,0.2950055081799428
1760734874.105767,-0.104139,-0.113389,-0.411591,0.898271,-0.30194,0.065187,0.075288,0.005542,0.060528,-0.004509,-0.289433,0.093751,-0.952596,0.2936344534644875
1760734874.108595,-0.106642,-0.111475,-0.41127,0.898364,-0.277261,0.064528,0.074506,0.005305,0.057121,-0.002906,-0.288008,0.099914,-0.952401,0.2921461838008254
1760734874.13689,-0.108917,-0.109706,-0.410936,0.898462,-0.252617,0.064612,0.076548,0.004938,0.060924,-0.002164,-0.28665,0.105552,-0.952203,0.29072826004390173
1760734874.169258,-0.110968,-0.10805,-0.410537,0.898594,-0.227481,0.058441,0.079187,0.005098,0.061347,-0.001789,-0.285299,0.110714,-0.952023,0.2893182452306662
1760734874.170215,-0.112883,-0.10648,-0.410072,0.898755,-0.215465,0.057083,0.082276,0.004899,0.05795,-0.003263,-0.283979,0.11558,-0.951839,0.2879413780646082
1760734874.205641,-0.114703,-0.104999,-0.409612,0.898908,-0.205854,0.054874,0.080797,0.004764,0.057152,-0.002534,-0.282737,0.120196,-0.951637,0.2866463014307686
1760734874.205993,-0.11646,-0.103535,-0.409157,0.89906,-0.198006,0.054457,0.079121,0.005684,0.054245,-0.001544,-0.281469,0.124684,-0.951435,0.285324739398619
1760734874.236545,-0.118128,-0.102112,-0.40871,0.899208,-0.186725,0.052438,0.071961,0.005131,0.050258,-0.001607,-0.2802,0.128976,-0.951238,0.2840023640462127
1760734874.267963,-0.1197,-0.100785,-0.408298,0.899337,-0.176939,0.047079,0.065982,0.004253,0.050374,-0.002255,-0.279025,0.133,-0.951029,0.2827786185120277
1760734874.268252,-0.121269,-0.099506,-0.40791,0.899445,-0.17933,0.047098,0.0645,0.003341,0.0474,-0.001112,-0.277935,0.136971,-0.950784,0.28164386555241705
1760734874.296827,-0.122813,-0.098273,-0.407559,0.89953,-0.172477,0.046361,0.063411,0.004194,0.044979,0.001324,-0.276907,0.140845,-0.950519,0.2805735724572369
1760734874.328083,-0.124308,-0.097067,-0.407201,0.899618,-0.169197,0.044918,0.064065,0.00498,0.042087,0.00328,-0.275883,0.144608,-0.950251,0.279508252369823
1760734874.329997,-0.125791,-0.095879,-0.406816,0.899713,-0.168397,0.0436,0.065168,0.005261,0.037798,0.005489,-0.274875,0.148342,-0.949968,0.2784595754800691
1760734874.362643,-0.127245,-0.094724,-0.406449,0.899797,-0.163198,0.034111,0.057914,0.004764,0.03227,0.005963,-0.273902,0.151988,-0.949672,0.27744791857748846
1760734874.363913,-0.128691,-0.093657,-0.406177,0.899826,-0.161924,0.035471,0.045151,0.005413,0.031358,-0.000447,-0.273093,0.155516,-0.949334,0.2766067810111149
1760734874.395352,-0.130054,-0.092627,-0.406032,0.899802,-0.153693,0.038017,0.030015,0.005442,0.032947,-0.005588,-0.272305,0.158826,-0.949012,0.2757878193327869
1760734874.424684,-0.131327,-0.091609,-0.405988,0.899741,-0.146594,0.040367,0.018815,0.007621,0.034655,-0.0063,-0.271482,0.161936,-0.948722,0.2749326444060301
1760734874.426438,-0.132507,-0.090655,-0.406025,0.899649,-0.140802,0.038301,0.013589,0.0076,0.036939,-0.006323,-0.270718,0.164803,-0.948447,0.27413880773847366
1760734874.455804,-0.133646,-0.089697,-0.406053,0.899563,-0.136579,0.033125,0.01402,0.008286,0.037071,-0.003959,-0.269912,0.167603,-0.948186,0.27330164613747754
1760734874.485859,-0.13478,-0.088854,-0.406069,0.89947,-0.130323,0.025952,0.015166,0.008317,0.035798,-0.004409,-0.269304,0.170299,-0.947878,0.2726703846681782
1760734874.48727,-0.135891,-0.088036,-0.406058,0.899389,-0.129497,0.023834,0.017125,0.008389,0.034854,-0.005881,-0.268716,0.172943,-0.947567,0.2720596434437234
1760734874.536629,-0.136985,-0.087277,-0.406038,0.899306,-0.123107,0.021299,0.015333,0.0082,0.03073,-0.005491,-0.26822,0.175508,-0.947236,0.2715447023258412
1760734874.536934,-0.138079,-0.086518,-0.406016,0.899222,-0.116717,0.018765,0.013541,0.00801,0.026608,-0.005107,-0.267723,0.178072,-0.946897,0.2710290990996812
1760734874.545932,-0.139069,-0.085814,-0.406002,0.899143,-0.102336,0.016631,0.010322,0.007001,0.02404,-0.005509,-0.267243,0.180403,-0.946592,0.2705307662301401
1760734874.57608,-0.139893,-0.085282,-0.40603,0.899053,-0.080251,0.012096,0.004758,0.006911,0.020686,-0.004141,-0.266948,0.182288,-0.946314,0.27022466456033245
1760734874.585912,-0.140494,-0.084862,-0.406048,0.898991,-0.048582,0.006292,0.004827,0.006462,0.018688,-0.002775,-0.266674,0.183689,-0.94612,0.2699404426910215
1760734874.616016,-0.140851,-0.084642,-0.406055,0.898953,-0.026556,-0.000298,0.00402,0.006584,0.018821,-0.002288,-0.266565,0.184499,-0.945993,0.2698273750435702
1760734874.646144,-0.141067,-0.08453,-0.406012,0.898949,-0.015974,0.00302,0.006584,0.007662,0.017584,-0.002796,-0.266526,0.184984,-0.945909,0.2697869818062363
1760734874.646494,-0.141225,-0.084406,-0.405951,0.898963,-0.014094,0.003876,0.009936,0.006863,0.015181,0.000108,-0.266416,0.185382,-0.945862,0.2696728733986858
1760734874.674557,-0.141368,-0.084282,-0.405858,0.898994,-0.013081,0.002175,0.013087,0.006398,0.012033,0.001675,-0.266289,0.185765,-0.945823,0.26954101412863557
1760734874.705347,-0.141527,-0.084151,-0.405715,0.899046,-0.012376,-0.000433,0.016167,0.006086,0.010029,0.001342,-0.266151,0.186196,-0.945778,0.26939761058543726
1760734874.706468,-0.141685,-0.084079,-0.405568,0.899094,-0.010296,-0.001967,0.021198,0.005382,0.009522,0.001124,-0.266116,0.186577,-0.945712,0.2693615000862952
1760734874.742807,-0.141851,-0.084032,-0.405395,0.89915,-0.009318,-0.004475,0.01764,0.003972,0.007839,0.000944,-0.266127,0.186958,-0.945634,0.2693728223450124
1760734874.745148,-0.141997,-0.083955,-0.405226,0.899211,-0.012401,-0.003262,0.016675,0.004284,0.007455,0.000539,-0.266068,0.187329,-0.945577,0.26931166227659314
1760734874.774741,-0.142158,-0.083887,-0.405082,0.899257,-0.017057,-0.001644,0.01573,0.004568,0.006312,0.001387,-0.266043,0.187711,-0.945508,0.2692857996146157
1760734874.784642,-0.142352,-0.0838,-0.404919,0.899307,-0.017608,-0.00049,0.018277,0.004307,0.004608,0.001235,-0.266007,0.188171,-0.945427,0.2692483730189775
1760734874.814559,-0.142528,-0.083683,-0.404751,0.899366,-0.020841,0.000931,0.014983,0.003544,0.003765,0.000634,-0.2659,0.188628,-0.945366,0.2691373831794397
1760734874.853472,-0.142756,-0.083518,-0.404625,0.899402,-0.026446,0.000996,0.015014,0.002535,0.003718,0.001222,-0.265758,0.189204,-0.945291,0.26899003699283275
1760734874.853762,-0.143057,-0.08332,-0.404524,0.899418,-0.034402,0.003037,0.013996,0.003278,0.000451,0.000826,-0.26562,0.189926,-0.945185,0.26884689068922724
1760734874.883049,-0.143376,-0.083108,-0.404457,0.899417,-0.034929,0.002052,0.005727,0.002999,2e-06,0.00104,-0.265477,0.190683,-0.945073,0.2686985014320204
1760734874.884254,-0.143675,-0.082959,-0.404458,0.899383,-0.028635,-0.001402,-0.000561,0.00341,0.001131,0.000662,-0.265446,0.191331,-0.94495,0.2686665386742516
1760734874.914557,-0.143912,-0.082897,-0.404499,0.899332,-0.01745,-0.005588,-0.004856,0.002913,0.003659,0.00033,-0.265527,0.191785,-0.944835,0.2687506061776283
1760734874.945602,-0.144079,-0.082931,-0.404548,0.89928,-0.009379,-0.008438,-0.00184,0.002935,0.006869,-0.000336,-0.26573,0.192035,-0.944728,0.2689609478471579
1760734874.950859,-0.144185,-0.082961,-0.404523,0.899272,-0.005712,-0.007781,0.004834,0.0034,0.006822,-0.001365,-0.26586,0.192203,-0.944657,0.26909586566255767
1760734874.981264,-0.144263,-0.083005,-0.404461,0.899283,-8.8e-05,-0.006115,0.008599,0.00381,0.006233,-0.00024,-0.265987,0.192323,-0.944597,0.2692275633100794
1760734874.983367,-0.144274,-0.083023,-0.40435,0.899329,0.00252,-0.002886,0.010767,0.002979,0.005871,0.001398,-0.266004,0.192359,-0.944585,0.2692451679691731
1760734875.012037,-0.144262,-0.083032,-0.404224,0.899387,0.005251,-0.004388,0.011901,0.003316,0.005547,0.002045,-0.265984,0.192368,-0.944588,0.2692246288272913
1760734875.051464,-0.144244,-0.083086,-0.404121,0.899431,0.009169,-0.005887,0.009035,0.002673,0.00569,0.00307,-0.266044,0.192322,-0.944581,0.26928673326364944
1760734875.056138,-0.144203,-0.083182,-0.404026,0.899472,0.00936,-0.006988,0.005131,0.002128,0.005851,0.00147,-0.266163,0.192199,-0.944572,0.2694103176746276
1760734875.084468,-0.144169,-0.08326,-0.403959,0.8995,0.007396,-0.005692,0.002513,0.001232,0.005159,0.003697,-0.266261,0.192093,-0.944566,0.2695119715869797
1760734875.086277,-0.144144,-0.083316,-0.403913,0.899519,0.004801,-0.005602,0.004203,0.001887,0.007072,0.00305,-0.266333,0.192015,-0.944562,0.26958655419839145
1760734875.118035,-0.144163,-0.083333,-0.403831,0.899552,0.000711,-0.001543,0.006889,0.002451,0.00463,0.003045,-0.266359,0.19206,-0.944545,0.2696136641834119
1760734875.122382,-0.144191,-0.083331,-0.403763,0.899578,-0.00049,-0.001247,0.004995,0.001615,0.004669,0.002373,-0.266364,0.19213,-0.94453,0.26961868290806307
1760734875.150603,-0.144244,-0.083345,-0.403726,0.899585,-0.00599,-0.000431,0.002612,0.003139,0.004574,0.003857,-0.266422,0.192222,-0.944495,0.26967883712929264
1760734875.163607,-0.144347,-0.08329,-0.403732,0.899571,-0.012756,-0.000472,-0.002705,0.002454,0.004444,0.002737,-0.266405,0.192448,-0.944453,0.2696614012528835
1760734875.19604,-0.14449,-0.083233,-0.403778,0.899532,-0.01465,-0.000578,-0.006271,0.001612,0.004609,0.002271,-0.266425,0.192731,-0.94439,0.26968205926715094
1760734875.224888,-0.144645,-0.083176,-0.403836,0.899487,-0.018683,0.002511,-0.006192,0.00252,0.007245,0.000268,-0.266457,0.193033,-0.944319,0.2697153347982856
1760734875.227576,-0.144788,-0.083082,-0.403885,0.89945,-0.017167,0.004546,-0.00388,0.002888,0.008558,9.4e-05,-0.266413,0.193348,-0.944267,0.26966967675086406
1760734875.269856,-0.144912,-0.08294,-0.403919,0.899428,-0.017312,0.009377,0.000374,0.003304,0.009871,3.9e-05,-0.266262,0.193674,-0.944243,0.26951296140966896
1760734875.270119,-0.145044,-0.08277,-0.403932,0.899417,-0.01689,0.013739,0.004526,0.00384,0.009654,0.000594,-0.266066,0.194044,-0.944223,0.26930944034300713
1760734875.300124,-0.145171,-0.082559,-0.403899,0.899431,-0.018166,0.014593,0.004691,0.003972,0.0081,0.002276,-0.265781,0.19445,-0.944219,0.26901398879855026
1760734875.302168,-0.145296,-0.082384,-0.403879,0.899435,-0.013204,0.009076,0.003935,0.002758,0.008029,0.002593,-0.265562,0.194823,-0.944204,0.26878675533314933
1760734875.330724,-0.145407,-0.082252,-0.403838,0.899448,-0.012978,0.004782,0.006506,0.002965,0.008814,0.000818,-0.265405,0.19514,-0.944183,0.2686238291615601
1760734875.36158,-0.145529,-0.082122,-0.403777,0.899467,-0.014167,0.003858,0.007096,0.003005,0.008562,0.003656,-0.265254,0.195478,-0.944155,0.26846734986506604
1760734875.363941,-0.145674,-0.081966,-0.403707,0.89949,-0.020005,0.006393,0.011125,0.003334,0.006372,0.002765,-0.265074,0.195885,-0.944121,0.2682807188867279
1760734875.395097,-0.145819,-0.081768,-0.403593,0.899535,-0.017267,0.008677,0.013968,0.002687,0.003928,0.003428,-0.264809,0.196337,-0.944102,0.2680057621540343
1760734875.424756,-0.145964,-0.081558,-0.403466,0.899588,-0.020821,0.008839,0.014199,0.001222,0.003594,0.003417,-0.264519,0.196803,-0.944086,0.26770510899527344
1760734875.428421,-0.146191,-0.081348,-0.403369,0.899613,-0.027941,0.012916,0.015084,0.001271,0.002825,-0.000839,-0.264301,0.197404,-0.944022,0.2674789549817307
1760734875.458525,-0.146433,-0.081015,-0.403292,0.899638,-0.036111,0.019205,0.009329,0.001776,0.002423,-0.001093,-0.26388,0.198128,-0.943988,0.26704248482296117
1760734875.488674,-0.146727,-0.080668,-0.403313,0.899613,-0.043118,0.02264,0.002908,0.002883,0.004005,0.000837,-0.263493,0.198925,-0.943928,0.2666414111545997
1760734875.489001,-0.147058,-0.080288,-0.403361,0.899571,-0.044242,0.017266,-0.000523,0.003579,0.005377,0.005335,-0.263085,0.199807,-0.943856,0.2662183640726974
1760734875.520801,-0.147402,-0.079969,-0.403407,0.899522,-0.045138,0.009721,-0.001356,0.003073,0.005526,0.006116,-0.262794,0.200662,-0.943755,0.2659169252336788
1760734875.522881,-0.147774,-0.079761,-0.403466,0.899453,-0.042852,0.006584,-0.001173,0.003664,0.006345,0.003495,-0.262726,0.201471,-0.943602,0.26584633648752237
1760734875.553937,-0.14814,-0.079548,-0.403516,0.899389,-0.042162,0.005639,-0.001117,0.003655,0.007675,0.001642,-0.262642,0.202273,-0.943454,0.26575922647761324
1760734875.583274,-0.148518,-0.079322,-0.403549,0.899333,-0.041476,0.008254,0.001772,0.003464,0.009159,2.2e-05,-0.262542,0.203113,-0.943301,0.26565568041057736
1760734875.586795,-0.148891,-0.07906,-0.403534,0.8993,-0.041349,0.00599,0.005724,0.002726,0.008295,0.000972,-0.262362,0.203988,-0.943162,0.26546920758724085
1760734875.615654,-0.149225,-0.078847,-0.403483,0.899286,-0.035707,0.004471,0.00682,0.003069,0.007337,0.000884,-0.262231,0.204766,-0.94303,0.2653334121363728
1760734875.646438,-0.149503,-0.078633,-0.403438,0.89928,-0.027644,0.005992,0.008028,0.00466,0.009123,0.00049,-0.262056,0.205443,-0.942932,0.265151916024635
1760734875.649134,-0.149718,-0.078446,-0.403329,0.899309,-0.021599,0.003156,0.015038,0.003571,0.008112,0.002187,-0.261865,0.206006,-0.942862,0.2649540629418946
1760734875.678123,-0.149938,-0.078309,-0.403188,0.899347,-0.022864,0.002306,0.017624,0.004854,0.008309,0.002908,-0.261761,0.206546,-0.942773,0.26484623646496064
1760734875.683717,-0.150165,-0.078122,-0.403022,0.8994,-0.023266,0.008251,0.022034,0.003949,0.005702,0.001073,-0.261566,0.207148,-0.942695,0.2646442070436942
1760734875.712753,-0.150386,-0.077866,-0.402847,0.899464,-0.026359,0.01305,0.020725,0.002807,0.004717,0.00091,-0.26124,0.207799,-0.942642,0.26430649452078653
1760734875.741976,-0.150629,-0.077611,-0.402695,0.899513,-0.028961,0.009837,0.021308,0.003678,0.006614,0.00243,-0.26094,0.208479,-0.942575,0.2639957008217837
1760734875.74582,-0.150886,-0.077362,-0.402523,0.899569,-0.029657,0.00474,0.021694,0.004093,0.008145,0.003843,-0.260655,0.209184,-0.942497,0.26370065164264544
1760734875.776297,-0.151193,-0.077131,-0.402329,0.899624,-0.030618,0.002482,0.024721,0.003316,0.00733,0.002678,-0.260435,0.20997,-0.942383,0.2634727895768865
1760734875.78309,-0.151477,-0.076943,-0.402145,0.899674,-0.028201,0.004059,0.022894,0.002821,0.007709,0.000772,-0.26028,0.210675,-0.942269,0.263312119076746
1760734875.818296,-0.151716,-0.076759,-0.401954,0.899735,-0.024429,0.004525,0.021843,0.002992,0.008755,0.000228,-0.26009,0.211301,-0.942181,0.2631154152721223
1760734875.819328,-0.151934,-0.07657,-0.401788,0.899789,-0.022102,0.008415,0.021548,0.003546,0.008883,0.001162,-0.259883,0.211887,-0.942107,0.2629009201829636
1760734875.853484,-0.15213,-0.076341,-0.401615,0.899852,-0.021526,0.011643,0.017327,0.003964,0.007264,0.001048,-0.259586,0.212469,-0.942057,0.2625935687055202
1760734875.883112,-0.152304,-0.076091,-0.401497,0.899897,-0.023034,0.008929,0.010021,0.003041,0.006629,0.002374,-0.259248,0.213015,-0.942027,0.2622435299547292
1760734875.887982,-0.15249,-0.075904,-0.401479,0.899889,-0.024035,0.007319,0.000864,0.003756,0.007175,0.00286,-0.259053,0.213501,-0.941971,0.26204153672298436
1760734875.92168,-0.152672,-0.075729,-0.401517,0.899856,-0.024013,0.006773,-0.00365,0.003844,0.008935,0.002395,-0.258892,0.213952,-0.941913,0.26187483319975946
1760734875.921997,-0.152869,-0.075597,-0.401584,0.899803,-0.022689,0.006179,-0.004695,0.004528,0.00921,0.002377,-0.258824,0.214387,-0.941832,0.26180462936531973
1760734875.950589,-0.153047,-0.075433,-0.401675,0.899746,-0.022318,0.006013,-0.004988,0.004801,0.009785,0.002864,-0.25869,0.214807,-0.941773,0.2616659338853544
1760734875.981614,-0.153219,-0.075281,-0.401731,0.899705,-0.019406,0.00608,-0.003633,0.005456,0.009226,0.002619,-0.258566,0.215218,-0.941714,0.2615373689881945
1760734875.983526,-0.153398,-0.075188,-0.401778,0.899661,-0.016747,0.00232,-0.003796,0.005088,0.007673,0.003043,-0.258551,0.215595,-0.941631,0.26152206283931523
1760734876.014058,-0.15354,-0.075101,-0.40181,0.89963,-0.015293,0.001035,0.000339,0.004986,0.007243,0.00316,-0.258514,0.215907,-0.94157,0.261483677416581
1760734876.043131,-0.153695,-0.075008,-0.401796,0.899618,-0.013564,0.000238,0.001704,0.003394,0.007118,0.00346,-0.258465,0.216258,-0.941503,0.26143292780834143
1760734876.04512,-0.153838,-0.074926,-0.401783,0.899606,-0.015752,0.000908,0.001624,0.003193,0.007535,0.003047,-0.258427,0.216579,-0.94144,0.26139350130378763
1760734876.077932,-0.154008,-0.074823,-0.40174,0.899604,-0.01682,0.000185,0.002595,0.003653,0.007476,0.004042,-0.258366,0.216974,-0.941366,0.2613303031813452
1760734876.082287,-0.154179,-0.07471,-0.401717,0.899595,-0.01978,0.00088,0.002404,0.004445,0.007237,0.004426,-0.25829,0.217372,-0.941295,0.2612516416242467
1760734876.111223,-0.154373,-0.074617,-0.401728,0.899564,-0.01941,-0.000386,0.001582,0.003671,0.006438,0.004414,-0.258278,0.217785,-0.941203,0.26123917588142925
1760734876.141613,-0.154582,-0.074534,-0.401718,0.89954,-0.019143,0.000283,0.002361,0.003419,0.007306,0.002301,-0.25829,0.218221,-0.941098,0.2612517770384173
1760734876.14278,-0.154771,-0.074461,-0.401748,0.8995,-0.020974,0.00217,-0.000887,0.002918,0.008218,0.001121,-0.258314,0.218604,-0.941003,0.26127649940349734
1760734876.172888,-0.154994,-0.074351,-0.40177,0.899461,-0.02177,0.002773,0.000251,0.002938,0.008412,-0.000196,-0.258295,0.219079,-0.940898,0.26125676722912045
1760734876.206576,-0.155202,-0.074207,-0.401762,0.89944,-0.021111,0.001569,0.001784,0.003379,0.007781,7.1e-05,-0.258198,0.219562,-0.940812,0.26115636987517427
1760734876.206829,-0.155397,-0.074072,-0.401734,0.899431,-0.020769,0.002267,0.003196,0.003734,0.008073,-0.000361,-0.258101,0.220023,-0.94073,0.2610561963421802
1760734876.236373,-0.155614,-0.073962,-0.401727,0.899405,-0.021384,0.004837,0.00334,0.003672,0.008199,0.000533,-0.258072,0.220495,-0.940628,0.26102603824189663
1760734876.24337,-0.155812,-0.073835,-0.401698,0.899394,-0.022192,0.003571,0.003375,0.0037,0.007138,0.002898,-0.257993,0.220953,-0.940542,0.26094431818926417
1760734876.273445,-0.156013,-0.073688,-0.401678,0.89938,-0.021695,0.000847,0.003613,0.004371,0.005563,0.001607,-0.25788,0.221432,-0.94046,0.2608274450832606
1760734876.30375,-0.1562,-0.07362,-0.401662,0.89936,-0.016701,-0.000399,0.001332,0.004474,0.005717,0.002792,-0.257901,0.221819,-0.940363,0.26084918968584675
1760734876.304051,-0.156351,-0.073545,-0.40165,0.899346,-0.013883,-0.000149,0.00199,0.004302,0.006908,0.001969,-0.257882,0.222148,-0.940291,0.2608294099516729
1760734876.335179,-0.156493,-0.073468,-0.401638,0.899333,-0.010123,-0.001096,0.000592,0.004542,0.006574,0.003396,-0.257852,0.222463,-0.940225,0.2607982976166691
1760734876.369018,-0.156618,-0.073477,-0.40163,0.899314,-0.00845,-0.003749,0.000464,0.003123,0.008614,0.002906,-0.257962,0.222677,-0.940144,0.2609121906529614
1760734876.370255,-0.15673,-0.07345,-0.401621,0.8993,-0.010732,-0.001348,0.004046,0.004528,0.009089,0.001485,-0.257999,0.222896,-0.940082,0.26095047401946614
1760734876.410381,-0.156846,-0.073419,-0.401584,0.8993,-0.005517,-0.002672,0.003842,0.003073,0.007628,0.00407,-0.258025,0.223135,-0.940018,0.2609774263590066
1760734876.41232,-0.156916,-0.073445,-0.401544,0.899303,-0.004348,-0.001869,0.006861,0.003551,0.006981,0.003815,-0.258115,0.223247,-0.939967,0.2610705059947603
1760734876.440819,-0.156988,-0.073421,-0.401456,0.899331,-0.005342,-0.003432,0.011712,0.002083,0.004612,0.004143,-0.258107,0.223419,-0.939928,0.2610623081147464
1760734876.442842,-0.157095,-0.073413,-0.401356,0.899358,-0.005617,-0.005999,0.008811,0.001071,0.005885,0.002452,-0.258151,0.22364,-0.939864,0.2611076900757298
1760734876.473947,-0.157208,-0.073334,-0.401265,0.899386,-0.012503,0.007713,0.011605,0.002714,0.007221,-0.002474,-0.258076,0.223929,-0.939815,0.261030256432246
1760734876.503149,-0.157313,-0.073106,-0.401187,0.899421,-0.018433,0.014709,0.007235,0.003006,0.006484,-0.000481,-0.25773,0.224322,-0.939816,0.26067219852995527
1760734876.505183,-0.157408,-0.072888,-0.401173,0.899428,-0.016251,0.011908,0.003772,0.002485,0.00815,0.002471,-0.257411,0.224674,-0.93982,0.2603418948220119
1760734876.534709,-0.157495,-0.072743,-0.401192,0.899416,-0.012423,0.004613,-0.001538,0.003962,0.008017,0.006645,-0.257223,0.22494,-0.939807,0.2601475552414609
1760734876.542032,-0.157606,-0.072661,-0.401204,0.899398,-0.011607,-0.002644,-0.003631,0.005664,0.008644,0.005705,-0.257166,0.225197,-0.939762,0.2600883335224043
1760734876.572126,-0.157739,-0.072635,-0.401229,0.899365,-0.014193,-0.003464,-0.004609,0.004756,0.008684,0.003685,-0.25723,0.225443,-0.939685,0.26015468641941286
1760734876.600913,-0.157927,-0.072618,-0.401283,0.89931,-0.015512,0.001005,-0.000919,0.004,0.008874,0.002044,-0.257359,0.22577,-0.939571,0.26028822161088844
1760734876.609709,-0.158078,-0.072555,-0.401287,0.899286,-0.013528,0.00019,0.001475,0.003529,0.009574,-2.7e-05,-0.257365,0.226083,-0.939494,0.26029445336280677
1760734876.64013,-0.15821,-0.072446,-0.401234,0.899296,-0.012215,0.003054,0.003089,0.00317,0.009266,3e-06,-0.257259,0.226419,-0.939443,0.2601845381651187
1760734876.642198,-0.158323,-0.07239,-0.401216,0.899288,-0.006886,0.003173,0.001053,0.00342,0.010196,1.1e-05,-0.257243,0.226667,-0.939387,0.26016812483927915
1760734876.671235,-0.158406,-0.072301,-0.40122,0.899279,-0.005609,0.005421,0.004764,0.003231,0.009938,0.000536,-0.257149,0.226884,-0.93936,0.260070940123464
1760734876.700604,-0.15844,-0.072215,-0.401173,0.899301,-0.001794,0.000299,0.002148,0.001608,0.006484,0.003274,-0.25701,0.227028,-0.939364,0.25992691832130316
1760734876.701793,-0.158473,-0.072219,-0.401192,0.899286,-0.001289,-0.005238,-0.004763,0.002641,0.005213,0.004148,-0.257048,0.227078,-0.939341,0.25996636844853654
1760734876.732853,-0.158515,-0.072227,-0.401238,0.899257,-0.004618,0.002499,-0.006254,0.003083,0.006541,0.001601,-0.257106,0.227131,-0.939313,0.2600262137534352
1760734876.750983,-0.158565,-0.072141,-0.401318,0.89922,-0.008531,0.005319,-0.004969,0.002477,0.007081,0.000898,-0.257012,0.227266,-0.939305,0.25992921275652225
1760734876.781798,-0.158633,-0.072023,-0.40139,0.899185,-0.012754,0.005944,-0.004104,0.002973,0.007553,0.002442,-0.256871,0.227464,-0.939296,0.25978322516547486
1760734876.78213,-0.15874,-0.071926,-0.401458,0.899144,-0.009954,0.003702,-0.002128,0.003544,0.006942,0.003441,-0.256798,0.22771,-0.939257,0.2597075304585259
1760734876.813468,-0.158797,-0.071857,-0.401484,0.899128,-0.005981,0.003214,-0.002258,0.003715,0.008489,0.001957,-0.256725,0.227858,-0.939241,0.2596320140719403
1760734876.844855,-0.158826,-0.071806,-0.401518,0.899111,7e-06,0.00254,-0.004743,0.004377,0.008061,0.001215,-0.256666,0.227941,-0.939237,0.2595709649711344
1760734876.844968,-0.158816,-0.071807,-0.401542,0.899102,0.00101,0.002496,-0.003168,0.003098,0.008442,0.000808,-0.256666,0.227916,-0.939243,0.25957098164112774
1760734876.872177,-0.158779,-0.071778,-0.401549,0.899108,0.002837,0.003086,-0.001511,0.003157,0.009549,0.000719,-0.256587,0.227875,-0.939274,0.25948937712459613
1760734876.87794,-0.158721,-0.071754,-0.401568,0.899112,0.002163,0.005851,0.000745,0.003006,0.009845,0.001767,-0.256504,0.227787,-0.939318,0.25940350663655243
1760734876.90714,-0.15869,-0.071706,-0.401557,0.899126,0.001688,0.006559,0.003374,0.003511,0.00859,0.001047,-0.256392,0.227776,-0.939351,0.25928769245456984
1760734876.937864,-0.158698,-0.071606,-0.401551,0.899135,-0.003411,0.006093,0.003207,0.005822,0.006437,0.00352,-0.256219,0.227875,-0.939375,0.2591085126551865
1760734876.939895,-0.158707,-0.071512,-0.401532,0.89915,-0.003935,0.002367,0.002339,0.004969,0.006997,0.004344,-0.256053,0.227973,-0.939396,0.25893690447033263
1760734876.971542,-0.158734,-0.071462,-0.401525,0.899152,-0.001765,0.001961,-0.000823,0.005583,0.006279,0.00303,-0.255982,0.228063,-0.939394,0.2588633333081492
1760734877.004308,-0.158764,-0.071421,-0.401521,0.899152,-0.000368,0.000409,-0.000172,0.005246,0.00686,0.002089,-0.255932,0.228152,-0.939386,0.25881161335617936
1760734877.004566,-0.158771,-0.071413,-0.401521,0.899151,-0.002976,0.001053,-0.000529,0.004508,0.010088,0.002189,-0.255921,0.22817,-0.939384,0.25880038981516995
1760734877.033212,-0.158822,-0.07135,-0.401515,0.89915,-0.00385,0.001295,0.001562,0.004857,0.0077,0.002995,-0.255848,0.228313,-0.939369,0.25872491057919944
1760734877.040921,-0.158893,-0.071337,-0.40151,0.89914,-0.007636,0.000231,0.001495,0.003731,0.008187,0.002372,-0.255879,0.228448,-0.939328,0.2587569118926378
1760734877.097639,-0.158962,-0.071315,-0.401479,0.899144,-0.006343,0.00018,0.00237,0.004295,0.008659,0.001765,-0.255885,0.228597,-0.93929,0.2587631472703482
1760734877.097961,-0.159032,-0.071293,-0.401448,0.899147,-0.005049,0.000128,0.003245,0.00486,0.00913,0.001159,-0.255891,0.228745,-0.939253,0.2587691883170762
1760734877.099678,-0.159105,-0.071232,-0.401405,0.899158,-0.005305,-0.000876,0.004511,0.005279,0.008539,0.002797,-0.255829,0.228934,-0.939223,0.2587052625471648
1760734877.12823,-0.15918,-0.07122,-0.401393,0.899151,-0.005021,-0.001186,0.002579,0.005013,0.00737,0.003123,-0.255863,0.229078,-0.939179,0.2587403402833983
1760734877.15895,-0.159255,-0.071218,-0.401386,0.899141,-0.005147,-0.002355,0.001098,0.003491,0.007628,0.002938,-0.255915,0.229214,-0.939132,0.2587940438927441
1760734877.160322,-0.159331,-0.071217,-0.401381,0.89913,-0.002997,-0.000968,0.00106,0.003359,0.007624,0.001805,-0.255971,0.229347,-0.939084,0.2588520396189384
1760734877.192566,-0.159362,-0.071204,-0.401363,0.899134,-0.000948,-0.00241,-0.001996,0.002688,0.008425,0.002008,-0.255969,0.229418,-0.939067,0.2588500210197151
1760734877.220933,-0.159395,-0.071227,-0.40139,0.899114,-0.000182,-0.000463,-0.000384,0.004296,0.008589,0.001748,-0.256042,0.22945,-0.93904,0.2589253585898851
1760734877.223718,-0.159385,-0.071244,-0.401412,0.899105,0.001261,-0.001698,-0.000926,0.005346,0.008374,0.001824,-0.25607,0.229411,-0.939042,0.25895429778082396
1760734877.252925,-0.159366,-0.07126,-0.401433,0.899097,0.001352,-0.003051,-0.002137,0.005377,0.008388,0.002945,-0.256089,0.229358,-0.939049,0.2589741435242631
1760734877.258769,-0.159381,-0.071307,-0.401453,0.899082,-0.000116,-0.002812,-0.002619,0.005475,0.00895,0.003711,-0.256189,0.22934,-0.939026,0.2590776244239212
1760734877.29109,-0.159428,-0.071328,-0.40147,0.899064,-0.001104,-0.004899,-0.002712,0.00365,0.008486,0.003601,-0.256268,0.229399,-0.93899,0.2591593606526601
1760734877.308532,-0.159489,-0.071326,-0.401501,0.89904,-0.004457,-0.005416,-0.004351,0.003836,0.009413,0.00247,-0.256321,0.229499,-0.938951,0.2592142163308638
1760734877.338909,-0.15959,-0.071352,-0.401534,0.899006,-0.005856,-0.002872,-0.004905,0.004789,0.009279,0.001274,-0.256452,0.229644,-0.93888,0.2593496904564934
1760734877.339248,-0.159661,-0.07135,-0.401567,0.898978,-0.007237,0.00035,-0.003027,0.004885,0.009874,0.002729,-0.256514,0.22976,-0.938835,0.2594137569275862
1760734877.366939,-0.159745,-0.071332,-0.401584,0.898957,-0.005392,-0.003345,-0.003297,0.003436,0.008084,0.002863,-0.25655,0.229916,-0.938787,0.2594509961927868
1760734877.398144,-0.159823,-0.071385,-0.401617,0.898924,-0.002959,-0.0083,-0.003959,0.004458,0.008531,0.001897,-0.256715,0.229999,-0.938721,0.2596218536161341
1760734877.399538,-0.159899,-0.071395,-0.401618,0.898909,-0.00215,-0.006916,-0.001829,0.004247,0.009941,0.001597,-0.256792,0.230123,-0.93867,0.2597014117714262
1760734877.417874,-0.15995,-0.071509,-0.401603,0.898898,0.003338,-0.008461,0.004074,0.004397,0.011327,0.00267,-0.257032,0.230121,-0.938605,0.2599496973988947
1760734877.447979,-0.159968,-0.071559,-0.401521,0.898927,0.003007,-0.004697,0.010491,0.00334,0.008322,0.002854,-0.257114,0.230134,-0.938579,0.26003463733903975
1760734877.479389,-0.15997,-0.071559,-0.401379,0.898991,-0.000426,-0.002919,0.013349,0.002037,0.006968,0.002756,-0.257079,0.230178,-0.938578,0.25999836939398224
1760734877.479576,-0.159994,-0.071519,-0.401223,0.899059,-0.001432,0.002354,0.015851,0.002428,0.007137,-8.9e-05,-0.256986,0.230299,-0.938574,0.2599020829098271
1760734877.50805,-0.160049,-0.071415,-0.40111,0.899108,-0.00766,0.013754,0.011335,0.002764,0.007682,-0.00114,-0.256815,0.230513,-0.938568,0.25972521216720307
1760734877.538972,-0.160072,-0.071187,-0.401019,0.899162,-0.010236,0.016189,0.010312,0.003503,0.00815,0.000516,-0.256401,0.230766,-0.938619,0.25929687351465885
1760734877.541086,-0.160135,-0.071009,-0.40098,0.899183,-0.010091,0.010336,0.004704,0.004359,0.007371,0.005035,-0.256122,0.231036,-0.938629,0.25900817354517314
1760734877.571465,-0.160216,-0.070902,-0.40095,0.89919,-0.006714,-0.002707,0.001383,0.004915,0.007101,0.008195,-0.255987,0.231273,-0.938607,0.2588686325389353
1760734877.578394,-0.160321,-0.070911,-0.400972,0.899161,-0.007723,-0.006759,-0.003996,0.004942,0.007084,0.004013,-0.256089,0.231441,-0.938538,0.2589740908892844
1760734877.612097,-0.160375,-0.07092,-0.401022,0.899128,-0.006228,-0.001861,-0.003717,0.004225,0.009158,0.001358,-0.256159,0.231514,-0.938501,0.2590464795330132
1760734877.642503,-0.160457,-0.07096,-0.401076,0.899086,-0.002911,-0.0021,-0.003149,0.003723,0.012067,0.003097,-0.25631,0.231608,-0.938436,0.2592028386144227
1760734877.642807,-0.160506,-0.070941,-0.401048,0.899092,-0.004438,-0.000233,0.002426,0.003997,0.012415,0.001075,-0.256305,0.231717,-0.938411,0.25919753082554575
1760734877.67081,-0.160566,-0.070898,-0.40099,0.89911,-0.006478,-0.001807,0.01021,0.003494,0.011421,0.001907,-0.256261,0.231875,-0.938384,0.25915200772888225
1760734877.675545,-0.160647,-0.070839,-0.40091,0.899136,-0.004346,-0.001633,0.008226,0.004223,0.008532,0.002297,-0.256197,0.232087,-0.938349,0.25908581368129413
1760734877.704989,-0.160695,-0.070803,-0.400861,0.899152,-0.000823,0.001035,0.004721,0.003707,0.007676,0.005246,-0.256158,0.232214,-0.938328,0.2590455237389826
1760734877.745155,-0.160702,-0.070823,-0.400805,0.899174,0.007551,-0.006122,0.005767,0.003257,0.006432,0.005694,-0.256185,0.232227,-0.938318,0.2590733094314593
1760734877.74726,-0.160705,-0.070935,-0.400734,0.899196,0.006869,-0.009027,0.003336,0.004924,0.005667,0.004866,-0.256368,0.232159,-0.938284,0.2592628423286993
1760734877.779362,-0.160688,-0.07099,-0.400693,0.899213,0.002764,-0.000673,0.00192,0.004051,0.005312,0.000406,-0.256442,0.232095,-0.93828,0.25933930502161434
1760734877.779812,-0.160656,-0.070971,-0.400655,0.899237,0.000596,0.00108,0.001446,0.002651,0.007548,0.001233,-0.256375,0.232067,-0.938305,0.2592700460751175
1760734877.808516,-0.160679,-0.070936,-0.400647,0.89924,-0.002852,0.002381,0.000844,0.002642,0.009054,0.002523,-0.256328,0.232137,-0.938301,0.25922130307887176
1760734877.839103,-0.160718,-0.070904,-0.400609,0.899252,-0.002888,-8.7e-05,0.003361,0.002168,0.007555,0.002121,-0.256292,0.232243,-0.938285,0.25918396021971185
1760734877.841794,-0.160742,-0.070886,-0.400586,0.89926,-0.000765,0.000105,0.002816,0.003165,0.007614,0.001612,-0.256272,0.232306,-0.938274,0.25916348485315244
1760734877.870713,-0.160745,-0.070884,-0.400582,0.899261,0.002387,0.000441,-0.002864,0.002337,0.007944,0.002581,-0.256269,0.232314,-0.938273,0.25916034106815733
1760734877.875382,-0.160718,-0.070916,-0.400585,0.899262,0.0046,0.001151,-0.002205,0.002501,0.008525,0.002128,-0.256307,0.23224,-0.938281,0.2591996390843503
1760734877.904361,-0.160668,-0.070882,-0.40062,0.899258,0.002298,0.003379,-0.003831,0.003314,0.008341,0.002201,-0.256215,0.23217,-0.938323,0.2591045726249459
1760734877.935376,-0.160624,-0.070904,-0.400662,0.899245,0.00433,0.005422,-0.003778,0.002731,0.009178,0.002667,-0.256232,0.232065,-0.938345,0.25912199357784105
1760734877.937186,-0.160552,-0.070821,-0.400686,0.899254,0.003478,0.003537,-0.001406,0.004107,0.010702,0.002275,-0.256034,0.231999,-0.938415,0.25891725124864506
1760734877.969084,-0.160504,-0.070752,-0.400741,0.899244,0.003264,0.005864,-0.006108,0.004289,0.010903,0.002223,-0.255887,0.231958,-0.938465,0.2587652424847289
1760734878.001466,-0.160478,-0.07067,-0.40078,0.899237,0.002871,0.006285,-0.004341,0.003896,0.012337,0.002082,-0.255731,0.231969,-0.938505,0.2586038243531301
1760734878.007499,-0.160456,-0.070648,-0.400854,0.89921,0.003186,0.00622,-0.006497,0.004645,0.012254,0.0022,-0.255693,0.231929,-0.938525,0.2585645769445986
1760734878.035464,-0.160378,-0.070639,-0.400902,0.899203,0.005297,0.002967,-0.00384,0.004421,0.014262,0.002678,-0.255629,0.231787,-0.938578,0.2584982559932325
1760734878.037571,-0.160341,-0.070645,-0.400961,0.899183,0.0081,0.002996,-0.006823,0.004393,0.014512,0.002737,-0.255627,0.2317,-0.9386,0.2584961936013535
1760734878.092755,-0.160238,-0.070668,-0.400999,0.899183,0.010249,0.000976,-0.005305,0.005097,0.013951,0.003206,-0.255597,0.231491,-0.93866,0.2584650977072719
1760734878.093057,-0.160135,-0.07069,-0.401037,0.899182,0.012397,-0.001045,-0.003786,0.005801,0.01339,0.003675,-0.255567,0.231283,-0.938719,0.25843417635545035
1760734878.094735,-0.160058,-0.070754,-0.401082,0.899171,0.011477,-0.006035,-0.006022,0.005832,0.014631,0.001185,-0.255633,0.231083,-0.938751,0.25850226621354233
1760734878.123371,-0.160025,-0.070918,-0.401162,0.899128,0.007525,-0.009197,-0.010461,0.005595,0.019377,-0.004947,-0.25592,0.230866,-0.938726,0.2587991895300177
1760734878.153948,-0.159976,-0.07102,-0.40128,0.899076,0.006492,-0.004187,-0.018776,0.003368,0.022597,-0.009225,-0.256094,0.230663,-0.938728,0.2589792998666492
1760734878.155166,-0.159936,-0.071156,-0.401454,0.898995,0.009021,-0.008385,-0.022802,0.003855,0.031136,-0.014357,-0.256352,0.230432,-0.938715,0.2592460387226098
1760734878.19166,-0.159812,-0.071311,-0.401658,0.898914,0.021588,-0.00646,-0.025222,0.001919,0.037288,-0.014868,-0.256583,0.230029,-0.93875,0.2594852136228791
1760734878.194245,-0.159565,-0.071604,-0.401876,0.898837,0.04307,-0.01685,-0.033113,0.00303,0.044021,-0.016272,-0.256971,0.229294,-0.938824,0.2598865950130105
1760734878.225277,-0.159116,-0.072043,-0.402148,0.89876,0.069714,-0.020864,-0.040092,0.005138,0.051251,-0.020824,-0.257474,0.22807,-0.938984,0.2604071888064636
1760734878.257568,-0.158417,-0.072685,-0.402463,0.898691,0.099508,-0.02375,-0.050361,0.004431,0.060157,-0.021852,-0.258155,0.226229,-0.939242,0.26111210134975665
1760734878.259003,-0.157481,-0.073433,-0.402817,0.898636,0.128749,-0.032769,-0.057029,0.005843,0.066468,-0.020113,-0.258851,0.223875,-0.939615,0.2618324427487264
1760734878.290905,-0.156362,-0.074472,-0.403195,0.898576,0.151827,-0.04301,-0.061712,0.004988,0.072032,-0.020966,-0.259927,0.220952,-0.94001,0.26294651866500796
1760734878.319344,-0.155117,-0.075511,-0.403581,0.898532,0.158248,-0.040157,-0.056688,0.006703,0.079865,-0.01735,-0.260904,0.217805,-0.940473,0.263958602109035
1760734878.321289,-0.153842,-0.076622,-0.403885,0.89852,0.156815,-0.048417,-0.049761,0.007591,0.084993,-0.012675,-0.261962,0.214567,-0.940924,0.26505449561233135
1760734878.335948,-0.152769,-0.077795,-0.404064,0.898522,0.125752,-0.060026,-0.033017,0.007204,0.094873,-0.007696,-0.263257,0.211664,-0.94122,0.26639661018774924
1760734878.376407,-0.152187,-0.078714,-0.404052,0.898546,0.052874,-0.05501,0.001983,0.010383,0.099349,-0.002465,-0.26444,0.209884,-0.941287,0.26762306510825334
1760734878.377765,-0.152382,-0.079173,-0.403693,0.898634,-0.021773,-0.058446,0.050992,0.01024,0.083311,0.018508,-0.265327,0.209948,-0.941023,0.2685429431811014
1760734878.417763,-0.153061,-0.079666,-0.403119,0.898733,-0.041065,-0.098382,0.051612,0.011122,0.071607,0.022957,-0.266601,0.210892,-0.940451,0.26986471622690605
1760734878.419747,-0.154113,-0.080331,-0.402545,0.898751,-0.069529,-0.119582,0.050998,0.008883,0.071353,0.021674,-0.26847,0.212345,-0.939592,0.2718044156252603
1760734878.448872,-0.15561,-0.080918,-0.401958,0.898703,-0.13099,-0.125728,0.052354,0.008583,0.074042,0.016286,-0.270541,0.214643,-0.938476,0.2739547673297312
1760734878.453755,-0.15776,-0.081095,-0.401299,0.898607,-0.206325,-0.104206,0.080414,0.011663,0.063191,0.026497,-0.272363,0.218441,-0.937071,0.27584800629559236
1760734878.483537,-0.160407,-0.081081,-0.40053,0.898483,-0.239111,-0.139123,0.088182,0.010929,0.047886,0.033052,-0.274195,0.223295,-0.935391,0.2777525378732482
1760734878.523895,-0.163378,-0.081156,-0.39972,0.898301,-0.267953,-0.122425,0.088965,0.020279,0.047592,0.002721,-0.276416,0.228645,-0.933443,0.2800627723916725
1760734878.525918,-0.166406,-0.080639,-0.398835,0.898185,-0.290087,-0.064836,0.112841,0.013693,0.054709,0.000818,-0.277595,0.234603,-0.931613,0.2812897646820832
1760734878.554566,-0.169424,-0.079574,-0.397823,0.898165,-0.306732,-0.013714,0.157926,0.008218,0.056227,0.014731,-0.277744,0.241029,-0.929927,0.28144477688557423
1760734878.558358,-0.172304,-0.078128,-0.396496,0.898331,-0.285375,-0.005263,0.17366,0.007061,0.037017,0.027652,-0.277005,0.247617,-0.928415,0.28067567858459164
1760734878.587974,-0.174959,-0.076872,-0.395115,0.898534,-0.249478,-0.029592,0.163152,0.003306,0.025325,0.035697,-0.276403,0.253667,-0.92696,0.2800492120795183
1760734878.618829,-0.177408,-0.075998,-0.393844,0.898687,-0.228218,-0.044316,0.141183,0.005801,0.022898,0.028317,-0.27634,0.259005,-0.925502,0.27998352504341373
1760734878.620966,-0.179605,-0.075294,-0.392728,0.898798,-0.187338,-0.057094,0.113674,0.004656,0.006193,0.031687,-0.276419,0.263717,-0.924146,0.2800659265713032
1760734878.653812,-0.181422,-0.074999,-0.391892,0.898822,-0.145953,-0.057195,0.081097,0.008796,0.002991,0.020245,-0.277017,0.267349,-0.922923,0.28068810833781127
1760734878.655809,-0.182792,-0.074887,-0.39127,0.898825,-0.090479,-0.052951,0.052782,0.002274,-0.001766,0.016058,-0.277664,0.269994,-0.921958,0.281361548106124
1760734878.685472,-0.183622,-0.075045,-0.390864,0.898819,-0.037326,-0.055545,0.029856,0.001529,0.008301,0.009314,-0.278446,0.271422,-0.921302,0.2821758198626185
1760734878.714369,-0.184035,-0.0754,-0.390519,0.898855,-0.003427,-0.046747,0.02744,0.001801,0.014295,0.006048,-0.279285,0.271951,-0.920892,0.28304946622452654
1760734878.716332,-0.184175,-0.075729,-0.390156,0.898957,0.008668,-0.031763,0.042633,0.00492,0.019112,0.002151,-0.279868,0.272039,-0.920689,0.28365667760508445
1760734878.746171,-0.184211,-0.075813,-0.389625,0.899172,0.002615,-0.008038,0.058511,0.00572,0.008169,0.005227,-0.279885,0.272197,-0.920637,0.2836744208260186
1760734878.776363,-0.184268,-0.075719,-0.389005,0.899437,-0.002881,0.001855,0.08334,0.003297,0.001491,0.007971,-0.279571,0.272564,-0.920624,0.283347317542928
1760734878.778448,-0.184393,-0.075451,-0.388206,0.899779,-0.015255,0.011928,0.092948,0.001241,-0.007203,0.0089,-0.278943,0.273245,-0.920613,0.2826931971377508
1760734878.811976,-0.184641,-0.074969,-0.387347,0.900139,-0.031076,0.023042,0.09856,0.003222,-0.010419,0.008741,-0.278005,0.274327,-0.920575,0.2817165522817831
1760734878.814905,-0.184988,-0.074437,-0.386516,0.900469,-0.046162,0.031129,0.104263,0.002814,-0.01665,0.005624,-0.277058,0.275609,-0.920477,0.2807309812101149
1760734878.872031,-0.185289,-0.073732,-0.385703,0.900813,-0.028875,0.029722,0.0935,0.002229,-0.029432,0.008146,-0.275771,0.276944,-0.920463,0.27939174778128273
1760734878.873357,-0.18559,-0.073027,-0.38489,0.901157,-0.011588,0.028316,0.082738,0.001641,-0.042211,0.010665,-0.274481,0.278277,-0.920447,0.2780498472226075
1760734878.873792,-0.185438,-0.072768,-0.384341,0.901443,0.041364,0.017866,0.049187,0.004109,-0.050571,0.010202,-0.273736,0.278389,-0.920635,0.27727516972162736
1760734878.902117,-0.184734,-0.072872,-0.384031,0.901711,0.100153,0.005597,0.010023,0.004119,-0.055775,0.007048,-0.273306,0.277183,-0.921126,0.27682825616607376
1760734878.932051,-0.183578,-0.073369,-0.383992,0.901924,0.146979,-0.002689,-0.02065,0.006153,-0.049624,0.001527,-0.273332,0.2748,-0.921832,0.2768552902575567
1760734878.933208,-0.182033,-0.074062,-0.384141,0.902117,0.178733,-0.007365,-0.041248,0.005707,-0.046413,-0.001603,-0.273477,0.27153,-0.922758,0.27700590884692894
1760734878.977708,-0.180343,-0.074938,-0.384441,0.902256,0.181705,0.005957,-0.05045,0.006144,-0.035167,-0.00626,-0.273888,0.267813,-0.923721,0.277433453047624
1760734878.980403,-0.178616,-0.075735,-0.384821,0.902371,0.170779,0.001574,-0.054907,0.009902,-0.021226,-0.001755,-0.274152,0.264068,-0.924721,0.27770778488973924
1760734879.011398,-0.177128,-0.076363,-0.385146,0.902473,0.138358,0.003637,-0.041014,0.009933,-0.015127,-0.00192,-0.274272,0.260884,-0.925589,0.2778325061860687
1760734879.014124,-0.175909,-0.076968,-0.385416,0.902544,0.122369,-0.001215,-0.033165,0.009697,-0.021276,-0.000964,-0.274531,0.258202,-0.926264,0.27810185144027305
1760734879.044762,-0.17473,-0.077569,-0.385627,0.902632,0.135577,-0.01298,-0.039877,0.008417,-0.034524,-0.001166,-0.274794,0.255608,-0.926905,0.27837543779282853
1760734879.079986,-0.173356,-0.078357,-0.385948,0.902692,0.164988,-0.01722,-0.062776,0.00968,-0.040245,-0.001387,-0.275276,0.25249,-0.927616,0.27887685107579757
1760734879.082007,-0.171719,-0.079412,-0.386392,0.902722,0.196673,-0.024797,-0.080074,0.005564,-0.031826,-0.002453,-0.276075,0.248661,-0.928413,0.2797079340205135
1760734879.111335,-0.169835,-0.080558,-0.386915,0.902753,0.216886,-0.020023,-0.07761,0.005951,-0.020357,-0.007098,-0.276871,0.244301,-0.929333,0.2805362252239097
1760734879.113437,-0.167811,-0.081751,-0.387355,0.902836,0.228326,-0.016496,-0.063611,0.00234,-0.009633,-0.007562,-0.27762,0.239677,-0.930313,0.2813158058235525
1760734879.142084,-0.165662,-0.082822,-0.387627,0.903018,0.234228,0.000427,-0.039729,0.002748,-0.012536,-0.010129,-0.27801,0.234983,-0.931393,0.281721891004692
1760734879.172724,-0.163446,-0.083756,-0.387821,0.903252,0.23976,0.008849,-0.043358,0.000777,-0.01335,-0.006221,-0.278081,0.230301,-0.932541,0.2817956870821455
1760734879.174771,-0.161164,-0.084606,-0.387998,0.903507,0.240767,0.008535,-0.037606,0.005077,-0.016977,-0.001872,-0.277946,0.225573,-0.933736,0.28165518058486116
1760734879.214573,-0.158903,-0.085611,-0.388218,0.903718,0.245417,0.002635,-0.051983,0.003349,-0.020773,0.000851,-0.278114,0.220736,-0.934841,0.2818301632992343
1760734879.244589,-0.156603,-0.086653,-0.388494,0.903902,0.248837,-0.00142,-0.055463,0.003583,-0.024139,0.002119,-0.278331,0.21578,-0.935933,0.2820560457044642
1760734879.274917,-0.154282,-0.087761,-0.388807,0.90406,0.252134,-0.006893,-0.060997,0.002418,-0.0232,0.003127,-0.278655,0.210716,-0.93699,0.2823933384599059
1760734879.275257,-0.151984,-0.088919,-0.389129,0.904197,0.249648,-0.014831,-0.062023,0.001865,-0.021642,0.002525,-0.279083,0.205645,-0.937989,0.2828389536806587
1760734879.303043,-0.149757,-0.090125,-0.389452,0.90431,0.241548,-0.016498,-0.060886,0.001415,-0.020071,-0.001361,-0.279649,0.200656,-0.9389,0.2834285614322511
1760734879.333703,-0.147625,-0.091256,-0.38974,0.904424,0.2261,-0.01499,-0.056553,0.001421,-0.017901,-0.00192,-0.280139,0.195898,-0.939759,0.2839387778934865
1760734879.335856,-0.145657,-0.092304,-0.389991,0.904528,0.207147,-0.014156,-0.049786,0.001416,-0.019391,-0.001014,-0.280593,0.191506,-0.940528,0.284411888076317
1760734879.364209,-0.143896,-0.093286,-0.390234,0.904604,0.182664,-0.017535,-0.045727,0.001266,-0.017141,-3.1e-05,-0.281079,0.187531,-0.941184,0.2849181639001831
1760734879.373534,-0.142421,-0.094191,-0.39046,0.904647,0.151426,-0.020938,-0.040197,0.001229,-0.014198,0.000722,-0.281638,0.184125,-0.941689,0.28550076259360857
1760734879.429231,-0.141435,-0.094922,-0.390636,0.904649,0.122421,-0.024627,-0.03642,0.000172,-0.012147,0.000992,-0.282241,0.181738,-0.941972,0.28612929163889417
1760734879.429522,-0.140449,-0.095652,-0.390812,0.90465,0.093416,-0.028315,-0.032642,-0.000886,-0.010095,0.001257,-0.282841,0.17935,-0.94225,0.2867546907128602
1760734879.431425,-0.139747,-0.096326,-0.390954,0.904625,0.072061,-0.03223,-0.024654,-0.000771,-0.008188,0.002505,-0.283548,0.17752,-0.942384,0.28749188267748016
1760734879.46276,-0.139245,-0.096919,-0.391034,0.904605,0.057641,-0.035824,-0.019806,-0.001296,-0.007792,0.002347,-0.284246,0.176125,-0.942435,0.2882199660159127
1760734879.490733,-0.138846,-0.097492,-0.391035,0.904604,0.057437,-0.034722,-0.008674,-0.001748,-0.00716,0.001149,-0.28497,0.174956,-0.942435,0.2889749471692443
1760734879.492444,-0.138415,-0.098033,-0.390973,0.904638,0.063058,-0.030155,-0.003947,-0.001486,-0.006637,-0.00187,-0.285603,0.173775,-0.942461,0.28963564243339474
1760734879.525244,-0.137914,-0.09853,-0.390892,0.904696,0.065482,-0.018889,-0.000699,0.00069,-0.003351,-0.00319,-0.286099,0.172511,-0.942543,0.29015317573883176
1760734879.554339,-0.137382,-0.09894,-0.39082,0.904763,0.060249,-0.010476,0.000478,0.001804,0.000846,-0.002173,-0.286418,0.171261,-0.942674,0.29048612589126116
1760734879.556444,-0.136915,-0.099202,-0.390742,0.904839,0.048883,-0.006397,0.002567,0.003208,0.001868,0.000654,-0.286521,0.170246,-0.942827,0.29059350222041663
1760734879.588909,-0.136535,-0.099443,-0.390698,0.904889,0.038079,-0.010842,-0.00334,0.004277,0.000749,0.002892,-0.286658,0.169393,-0.942939,0.29073649756476433
1760734879.591563,-0.136277,-0.099727,-0.390738,0.904879,0.027528,-0.014981,-0.010524,0.005931,0.001319,0.00267,-0.28698,0.168695,-0.942966,0.2910726727833534
1760734879.620596,-0.136078,-0.099979,-0.390825,0.904844,0.022436,-0.014776,-0.016285,0.005056,0.001784,0.003371,-0.287297,0.16811,-0.942974,0.29140359337708227
1760734879.659084,-0.135935,-0.100223,-0.390945,0.904787,0.018508,-0.017937,-0.016996,0.005774,0.003873,0.003795,-0.287648,0.167621,-0.942954,0.2917700751576564
1760734879.661136,-0.135853,-0.100474,-0.391069,0.904718,0.013342,-0.018393,-0.015017,0.005337,0.007773,0.004817,-0.288057,0.167233,-0.942898,0.29219716134986784
1760734879.691433,-0.135833,-0.100718,-0.391132,0.904666,0.006752,-0.020264,-0.00595,0.004811,0.009401,0.003477,-0.28849,0.166979,-0.94281,0.29264953673448546
1760734879.692763,-0.135881,-0.100938,-0.391112,0.904643,-0.000376,-0.021369,0.002188,0.004368,0.011379,0.003099,-0.288915,0.166892,-0.942696,0.29309322713894903
1760734879.724976,-0.136033,-0.101117,-0.391016,0.904642,-0.009613,-0.024492,0.00971,0.004546,0.013336,0.002565,-0.289332,0.167045,-0.942541,0.29352882940827507
1760734879.754937,-0.136297,-0.101296,-0.39088,0.904641,-0.01954,-0.027953,0.016228,0.004573,0.013927,0.001954,-0.289824,0.16741,-0.942325,0.29404286958556053
1760734879.755251,-0.136663,-0.101426,-0.390689,0.904653,-0.026332,-0.028209,0.021176,0.00501,0.014447,0.002798,-0.290297,0.168013,-0.942072,0.29453713247885993
1760734879.785176,-0.137074,-0.101547,-0.390463,0.904675,-0.027833,-0.029681,0.02318,0.003249,0.011583,0.002333,-0.290779,0.168714,-0.941798,0.29504087004662627
1760734879.794019,-0.137473,-0.101652,-0.390231,0.904703,-0.025121,-0.023977,0.022901,0.003208,0.012582,-0.001154,-0.291221,0.169409,-0.941536,0.2955030453883559
1760734879.823562,-0.137825,-0.101679,-0.390037,0.90473,-0.024456,-0.011931,0.019296,0.003436,0.012223,-0.002753,-0.291499,0.170071,-0.941331,0.29579354063151786
1760734879.858781,-0.138086,-0.101594,-0.389894,0.904762,-0.019205,-0.000957,0.011508,0.003657,0.010117,-0.001588,-0.291514,0.170649,-0.941222,0.29580914806949443
1760734879.860934,-0.138267,-0.101496,-0.38988,0.904751,-0.015375,0.003887,-0.000758,0.003772,0.009859,0.000393,-0.291472,0.171051,-0.941162,0.2957652512488844
1760734879.893051,-0.138386,-0.101393,-0.389979,0.904702,-0.012067,0.00345,-0.014305,0.004175,0.011138,0.002056,-0.291397,0.171313,-0.941137,0.29568701129948016
1760734879.893746,-0.138455,-0.101343,-0.390177,0.904611,-0.007796,0.003109,-0.024027,0.004367,0.011751,0.002853,-0.291397,0.171413,-0.941119,0.29568695159577213
1760734879.924544,-0.138474,-0.101349,-0.390435,0.904497,-0.001209,-9.2e-05,-0.02929,0.004638,0.013125,0.004305,-0.29147,0.171358,-0.941107,0.2957630951262855
1760734879.930422,-0.138425,-0.10145,-0.390707,0.904375,0.006788,-0.00477,-0.027969,0.004937,0.014106,0.004641,-0.291665,0.171102,-0.941093,0.295966999752623
1760734879.970148,-0.138332,-0.101601,-0.390916,0.904282,0.012982,-0.010093,-0.021684,0.005249,0.0149,0.004445,-0.291905,0.170746,-0.941083,0.29621798933678667
1760734879.972263,-0.138206,-0.101782,-0.391026,0.904234,0.017092,-0.012259,-0.011919,0.005027,0.015403,0.003554,-0.292153,0.170342,-0.941079,0.29647736610306014
1760734880.002556,-0.138092,-0.101962,-0.391044,0.904223,0.017884,-0.011375,-0.003137,0.004713,0.013414,0.003209,-0.292393,0.169988,-0.941069,0.29672817251462774
1760734880.031797,-0.138023,-0.102158,-0.390987,0.904236,0.013669,-0.013261,0.004126,0.004755,0.011257,0.002767,-0.292681,0.169726,-0.941027,0.29702927899316967
1760734880.033837,-0.137993,-0.10234,-0.390892,0.904261,0.010587,-0.01456,0.006685,0.004374,0.009216,0.002915,-0.292964,0.169555,-0.940969,0.2973254721990758
1760734880.062918,-0.138002,-0.10248,-0.390786,0.90429,0.00577,-0.015591,0.007402,0.004304,0.008214,0.002266,-0.293201,0.169491,-0.940907,0.2975732739234323
1760734880.09388,-0.138059,-0.102646,-0.390705,0.904297,0.002242,-0.01412,0.005972,0.00407,0.008194,0.000796,-0.293526,0.169485,-0.940807,0.29791315788894507
1760734880.095684,-0.13811,-0.102762,-0.390636,0.904306,-0.000674,-0.011464,0.003527,0.004221,0.008095,0.001628,-0.293758,0.169503,-0.940731,0.2981559562527884
1760734880.124969,-0.138181,-0.102857,-0.390602,0.904299,-0.001707,-0.009555,0.001652,0.003434,0.008336,0.001132,-0.293974,0.169561,-0.940653,0.29838195426831926
1760734880.155126,-0.138221,-0.102944,-0.390587,0.90429,-0.000778,-0.009124,-0.001959,0.003489,0.007922,0.00062,-0.294157,0.169566,-0.940595,0.2985733873941465
1760734880.156532,-0.138246,-0.10301,-0.390611,0.904268,0.000974,-0.008586,-0.004214,0.003665,0.009611,-6.4e-05,-0.294299,0.169549,-0.940554,0.298721861153587
1760734880.197256,-0.138248,-0.103089,-0.390655,0.904239,0.002972,-0.004072,-0.003815,0.003869,0.01114,0.000342,-0.294449,0.169474,-0.94052,0.2988789807131315
1760734880.198603,-0.138221,-0.103156,-0.39069,0.904221,0.006956,-0.002202,-0.002402,0.003476,0.012018,0.000449,-0.294556,0.169361,-0.940507,0.29899090290311287
1760734880.228098,-0.138118,-0.1032,-0.390723,0.904217,0.01313,0.000347,-0.004154,0.003436,0.011601,0.00131,-0.294562,0.169131,-0.940546,0.2989973290140298
1760734880.229262,-0.137961,-0.103255,-0.390757,0.90422,0.019228,0.002803,-0.008282,0.003478,0.011775,0.002076,-0.294549,0.1688,-0.94061,0.29898358979956824
1760734880.263951,-0.137747,-0.103342,-0.390827,0.904213,0.025128,0.003703,-0.008972,0.003386,0.011893,0.003164,-0.294556,0.168328,-0.940693,0.29899073792830977
1760734880.306036,-0.137471,-0.103449,-0.39092,0.904202,0.026822,0.002483,-0.011566,0.003997,0.011715,0.003602,-0.294558,0.167723,-0.9408,0.29899295605654286
1760734880.306363,-0.137196,-0.103557,-0.391012,0.904192,0.028517,0.001263,-0.014159,0.004608,0.011537,0.00404,-0.29456,0.167118,-0.940907,0.29899505783596336
1760734880.336137,-0.136915,-0.103677,-0.391121,0.904174,0.029345,-0.00245,-0.015197,0.005413,0.012457,0.003144,-0.294585,0.166488,-0.941011,0.29902117602292466
1760734880.33649,-0.136649,-0.103821,-0.391256,0.904139,0.028062,0.000311,-0.01691,0.00518,0.013084,0.00338,-0.294667,0.165858,-0.941096,0.2991071513845855
1760734880.354594,-0.136402,-0.103966,-0.391393,0.9041,0.024328,-0.000508,-0.01657,0.004692,0.013501,0.00267,-0.294765,0.165259,-0.941171,0.29920961460813345
1760734880.384176,-0.136174,-0.104103,-0.391519,0.904064,0.019931,-0.001568,-0.015278,0.005084,0.014274,0.003164,-0.294861,0.164704,-0.941238,0.2993101421257422
1760734880.415298,-0.135996,-0.104195,-0.391614,0.904039,0.016508,-0.004743,-0.011737,0.00509,0.014293,0.003759,-0.294909,0.164282,-0.941297,0.2993602915752179
1760734880.417276,-0.135886,-0.104309,-0.391694,0.904008,0.011386,-0.00581,-0.008401,0.006319,0.014681,0.004203,-0.295043,0.163971,-0.941309,0.2995005998258493
1760734880.445929,-0.135815,-0.104436,-0.391745,0.903982,0.0098,-0.006557,-0.005221,0.0064,0.012654,0.002924,-0.295226,0.163725,-0.941295,0.2996919693632212
1760734880.453284,-0.135749,-0.104539,-0.391773,0.903968,0.011411,-0.006888,-0.004166,0.005154,0.011756,0.00328,-0.295365,0.163515,-0.941288,0.29983742727443435
1760734880.483546,-0.135668,-0.104654,-0.391791,0.903959,0.014409,-0.01096,-0.004662,0.004387,0.012598,0.00373,-0.295513,0.163272,-0.941283,0.299992554598757
1760734880.50233,-0.135571,-0.104841,-0.391809,0.903944,0.018494,-0.010556,-0.003061,0.004088,0.012571,0.002821,-0.295776,0.162942,-0.941258,0.3002677383928939
1760734880.532756,-0.1354,-0.105019,-0.391777,0.903963,0.025364,-0.01046,0.001494,0.003112,0.009663,0.00166,-0.29596,0.162505,-0.941276,0.3004602779927637
1760734880.534774,-0.135155,-0.105213,-0.391694,0.904013,0.037393,-0.007027,0.004766,0.002221,0.008093,-7.1e-05,-0.296107,0.161941,-0.941327,0.3006141668674231
1760734880.565996,-0.134787,-0.105374,-0.391593,0.904093,0.044479,0.001958,0.004601,0.003491,0.009213,-0.003752,-0.2961,0.161193,-0.941457,0.3006070068272912
1760734880.570016,-0.134345,-0.105469,-0.391525,0.904177,0.04385,0.015289,0.005006,0.006143,0.010221,-0.003214,-0.295924,0.160356,-0.941655,0.3004228229633361
1760734880.60012,-0.133883,-0.105413,-0.391456,0.904282,0.039613,0.025046,0.002095,0.005602,0.008462,-0.000442,-0.295465,0.159607,-0.941927,0.2999421457426186
1760734880.645154,-0.13346,-0.105393,-0.391538,0.904311,0.038354,0.017588,-0.010156,0.006364,0.007122,0.00204,-0.295126,0.158848,-0.942161,0.2995874836276941
1760734880.645472,-0.133037,-0.105373,-0.391621,0.90434,0.037095,0.01013,-0.022407,0.007126,0.005782,0.004521,-0.294787,0.158089,-0.942395,0.2992326299291004
1760734880.649984,-0.132644,-0.105458,-0.391803,0.904309,0.035796,0.003809,-0.029434,0.007583,0.007149,0.002092,-0.294674,0.157264,-0.942568,0.2991144815202107
1760734880.678244,-0.132282,-0.105608,-0.392051,0.904237,0.035819,0.003168,-0.031842,0.005277,0.009404,0.002075,-0.294712,0.156421,-0.942697,0.29915406867947575
1760734880.708096,-0.131917,-0.10577,-0.392309,0.90416,0.037536,-0.00171,-0.031659,0.004965,0.012586,0.002069,-0.29477,0.155558,-0.942821,0.2992149567939129
1760734880.710059,-0.131561,-0.105946,-0.392527,0.904096,0.037969,-0.002985,-0.027807,0.004889,0.014395,0.002445,-0.294853,0.154714,-0.942934,0.29930179271234075
1760734880.748818,-0.131199,-0.106156,-0.392708,0.904045,0.03711,-0.004018,-0.020799,0.004612,0.014479,0.002612,-0.294985,0.153843,-0.943036,0.29943970952702575
1760734880.755817,-0.130851,-0.106376,-0.392839,0.904013,0.037255,-0.006271,-0.017497,0.005503,0.014178,0.002859,-0.295136,0.153004,-0.943125,0.29959781773975525
1760734880.786036,-0.130532,-0.106581,-0.392924,0.903998,0.033682,-0.006873,-0.014272,0.005941,0.016051,0.003264,-0.295276,0.152245,-0.943204,0.29974434902159364
1760734880.78869,-0.130281,-0.106808,-0.392996,0.903976,0.026332,-0.010078,-0.012017,0.005989,0.015717,0.005424,-0.295504,0.151592,-0.943238,0.2999829315912812
1760734880.81969,-0.130089,-0.107012,-0.393048,0.903957,0.023788,-0.014182,-0.006875,0.005875,0.011965,0.006933,-0.295732,0.151068,-0.94325,0.3002217770823801
1760734880.849602,-0.129948,-0.107246,-0.393059,0.903945,0.020771,-0.019429,-0.007052,0.006205,0.011395,0.004097,-0.296043,0.150624,-0.943224,0.3005471941183566
1760734880.849852,-0.12987,-0.107431,-0.393058,0.903935,0.013004,-0.011483,-0.003944,0.006169,0.012833,0.000384,-0.296314,0.150335,-0.943185,0.3008309271157028
1760734880.891341,-0.129826,-0.107582,-0.39306,0.903922,0.007651,-0.006516,-0.002154,0.004866,0.012673,0.001322,-0.296549,0.150132,-0.943143,0.30107712578492957
1760734880.892756,-0.129783,-0.107685,-0.393054,0.903919,0.009001,-0.008005,-0.00296,0.00507,0.011528,0.001909,-0.296701,0.149974,-0.943121,0.3012360934646314
1760734880.936708,-0.129737,-0.107823,-0.393056,0.903908,0.010494,-0.009777,-0.003906,0.005458,0.011333,0.001022,-0.296912,0.149779,-0.943085,0.30145722165695954
1760734880.938377,-0.12967,-0.107941,-0.393074,0.903896,0.014187,-0.008299,-0.003968,0.00487,0.010683,0.000543,-0.297074,0.149559,-0.943069,0.30162684655372834
1760734880.97136,-0.129547,-0.108066,-0.393091,0.903891,0.018162,-0.005975,-0.007651,0.005523,0.010092,0.001275,-0.297207,0.149233,-0.943079,0.3017660608286613
1760734880.972731,-0.129394,-0.108231,-0.393153,0.903866,0.020678,-0.006852,-0.010628,0.006142,0.009312,0.002066,-0.297396,0.148806,-0.943087,0.30196397919636553
1760734881.009889,-0.129215,-0.108382,-0.393224,0.903843,0.0224,-0.004981,-0.011158,0.006444,0.010193,0.001173,-0.297542,0.148342,-0.943114,0.3021169154765896
1760734881.010194,-0.129013,-0.108538,-0.39331,0.903815,0.024787,-0.003885,-0.013523,0.006113,0.010323,-0.00046,-0.29768,0.147829,-0.943151,0.3022614659004434
1760734881.038458,-0.128776,-0.108673,-0.393405,0.903792,0.024793,-0.003061,-0.01473,0.005128,0.011894,-0.00019,-0.297758,0.147267,-0.943214,0.3023432580520284
1760734881.069551,-0.128536,-0.108832,-0.393515,0.903759,0.028031,-0.00296,-0.013953,0.005735,0.012232,0.000104,-0.297878,0.146678,-0.943268,0.30246892897388455
1760734881.070975,-0.128272,-0.108979,-0.393631,0.903728,0.028143,-0.004133,-0.01534,0.005815,0.012026,0.000618,-0.297958,0.14605,-0.94334,0.30255278603104546
1760734881.089615,-0.128015,-0.109157,-0.39374,0.903696,0.03081,-0.007169,-0.015413,0.005785,0.011546,0.000453,-0.298098,0.145413,-0.943394,0.3026995025100104
1760734881.11961,-0.127755,-0.109363,-0.393836,0.903666,0.032094,-0.0077,-0.014669,0.005382,0.012295,0.001069,-0.298284,0.144755,-0.943437,0.3028941910994948
1760734881.150238,-0.127478,-0.109604,-0.393928,0.903636,0.034234,-0.010116,-0.013994,0.005728,0.012445,0.001424,-0.298519,0.144034,-0.943473,0.3031404147294117
1760734881.150539,-0.127173,-0.109844,-0.393997,0.903619,0.038286,-0.012203,-0.013171,0.005325,0.011447,0.002742,-0.298726,0.143275,-0.943523,0.3033573251355929
1760734881.17907,-0.126839,-0.110108,-0.394059,0.903607,0.044447,-0.014573,-0.013663,0.006043,0.011553,0.00262,-0.298953,0.142447,-0.943576,0.3035953340689663
1760734881.208028,-0.126476,-0.110448,-0.394142,0.90358,0.048009,-0.016729,-0.014477,0.005555,0.012697,0.002391,-0.299297,0.141498,-0.94361,0.303955762100123
1760734881.209263,-0.126094,-0.110794,-0.394203,0.903565,0.048749,-0.015724,-0.013441,0.006448,0.012403,0.001299,-0.299632,0.140517,-0.94365,0.30430695801482954
1760734881.240166,-0.125703,-0.111143,-0.394252,0.903555,0.048193,-0.01751,-0.012218,0.006131,0.012927,0.002699,-0.299964,0.139522,-0.943692,0.30465501336163514
1760734881.274006,-0.125316,-0.111496,-0.394275,0.903555,0.047586,-0.018981,-0.010918,0.005407,0.012929,0.002814,-0.300303,0.13854,-0.943729,0.30501035546900496
1760734881.276305,-0.124943,-0.111884,-0.394298,0.903549,0.048135,-0.019883,-0.008619,0.005217,0.012892,0.002082,-0.300714,0.137553,-0.943743,0.3054411249232409
1760734881.304362,-0.124562,-0.112255,-0.39431,0.90355,0.04942,-0.020619,-0.007458,0.004305,0.012733,0.002853,-0.301089,0.13657,-0.943766,0.30583440772715753
1760734881.30562,-0.124167,-0.112649,-0.394296,0.903561,0.053998,-0.019765,-0.007208,0.004102,0.013023,0.002791,-0.301488,0.135551,-0.943786,0.30625271111079216
1760734881.336454,-0.123748,-0.113077,-0.394274,0.903575,0.057176,-0.022329,-0.00596,0.003764,0.012392,0.002764,-0.301928,0.134464,-0.9438,0.30671446657561874
1760734881.365562,-0.123299,-0.113502,-0.394227,0.903604,0.060394,-0.024043,-0.003499,0.004455,0.012266,0.001663,-0.302338,0.133335,-0.943829,0.30714454406662767
1760734881.367594,-0.122833,-0.113984,-0.394183,0.903625,0.065542,-0.025189,-0.004277,0.003594,0.010916,0.001892,-0.302835,0.13213,-0.943839,0.307666026232204
1760734881.401198,-0.122312,-0.114507,-0.394134,0.903652,0.070825,-0.025023,-0.007398,0.004727,0.011108,0.001776,-0.303364,0.130792,-0.943856,0.3082209834673455
1760734881.429717,-0.12173,-0.115037,-0.394096,0.90368,0.077909,-0.025726,-0.010363,0.004368,0.011046,0.002821,-0.30386,0.129337,-0.943897,0.30874154174835894
1760734881.433371,-0.121127,-0.115575,-0.39404,0.903716,0.078157,-0.025956,-0.009603,0.003939,0.011956,0.003172,-0.304353,0.127847,-0.943941,0.3092590982871376
1760734881.463392,-0.120511,-0.116113,-0.393999,0.903747,0.077463,-0.024097,-0.007878,0.003505,0.011579,0.003319,-0.304836,0.126326,-0.94399,0.309766170397862
1760734881.467345,-0.119913,-0.11663,-0.39394,0.903786,0.073229,-0.023696,-0.006113,0.003699,0.012142,0.002589,-0.305295,0.124861,-0.944037,0.31024801740786695
1760734881.495966,-0.11936,-0.117132,-0.393892,0.903815,0.066262,-0.020948,-0.005485,0.003647,0.011576,0.001487,-0.305761,0.123483,-0.944067,0.31073755089471705
1760734881.527562,-0.118854,-0.11753,-0.393844,0.903852,0.057771,-0.017939,-0.00454,0.00317,0.012762,0.002925,-0.306079,0.122275,-0.944121,0.3110716203765052
1760734881.528882,-0.118436,-0.117903,-0.393791,0.903881,0.04751,-0.016996,-0.001076,0.003305,0.011872,0.00242,-0.306419,0.121246,-0.944143,0.3114289089255228
1760734881.5584,-0.11813,-0.118228,-0.393717,0.903911,0.04125,-0.013392,0.003992,0.002906,0.009526,0.001011,-0.306754,0.120461,-0.944135,0.31178076662767384
1760734881.568247,-0.11783,-0.118477,-0.393625,0.903957,0.037017,-0.009644,0.005737,0.002862,0.008511,-0.000373,-0.306957,0.119756,-0.944159,0.3119939679917889
1760734881.598614,-0.117569,-0.118643,-0.39352,0.904015,0.028153,-0.003157,0.007585,0.004695,0.013024,-0.002141,-0.307042,0.119192,-0.944203,0.3120831984691018
1760734881.627158,-0.117367,-0.118709,-0.393415,0.904078,0.016131,0.009151,0.011518,0.005934,0.015158,-0.001579,-0.306993,0.118813,-0.944266,0.31203192447214934
1760734881.642198,-0.117235,-0.118609,-0.393303,0.904158,0.005024,0.014573,0.013829,0.006695,0.013815,3.6e-05,-0.3067,0.118698,-0.944376,0.31172397268498353
1760734881.672668,-0.117177,-0.118462,-0.393241,0.904211,0.000265,0.01259,0.00755,0.00562,0.011146,0.004714,-0.306386,0.118737,-0.944473,0.31139409609619373
1760734881.672961,-0.117165,-0.118371,-0.393236,0.904227,8.7e-05,0.003458,-0.000122,0.006638,0.01042,0.00602,-0.306215,0.118792,-0.944522,0.31121432203087385
1760734881.700744,-0.11718,-0.118351,-0.393256,0.904219,0.000825,-0.002281,-0.004702,0.007121,0.012684,0.00396,-0.306194,0.118827,-0.944524,0.3111923855877984
1760734881.707306,-0.117149,-0.118376,-0.393303,0.904199,0.004843,-0.000707,-0.006205,0.007026,0.013711,0.00141,-0.30622,0.118737,-0.944527,0.31121966387441996
1760734881.737172,-0.117074,-0.118415,-0.393327,0.904193,0.011407,-0.00171,-0.002668,0.005938,0.013617,0.001889,-0.306237,0.118564,-0.944543,0.3112375887419459
1760734881.767443,-0.116951,-0.118516,-0.393325,0.904197,0.01671,-0.003862,0.001756,0.005008,0.013311,0.000779,-0.306323,0.118263,-0.944553,0.3113278843833812
1760734881.767738,-0.116801,-0.118614,-0.393276,0.904225,0.019821,-0.00592,0.002932,0.005908,0.013192,0.000107,-0.306377,0.117933,-0.944577,0.31138453460962773
1760734881.797558,-0.11664,-0.11871,-0.393209,0.904262,0.019998,-0.006394,0.003225,0.005537,0.012956,0.000146,-0.306417,0.11759,-0.944606,0.311426794868495
1760734881.826737,-0.116507,-0.118857,-0.393168,0.904278,0.017868,-0.007582,-0.000279,0.005547,0.011939,0.001066,-0.306574,0.117248,-0.944598,0.31159160239586
1760734881.828007,-0.116367,-0.118988,-0.393149,0.904287,0.022896,-0.012634,-0.001399,0.005064,0.009081,0.003155,-0.306697,0.116898,-0.944601,0.31172096468550503
1760734881.861369,-0.116194,-0.119212,-0.393145,0.904281,0.024769,-0.017226,-0.005928,0.005231,0.010417,0.003095,-0.306965,0.116409,-0.944575,0.3120023447021871
1760734881.86628,-0.116027,-0.119449,-0.393145,0.904271,0.023582,-0.011466,-0.003409,0.005833,0.012089,-0.001508,-0.307259,0.115918,-0.94454,0.312311211133616
1760734881.894308,-0.115846,-0.119592,-0.393144,0.904276,0.021137,-0.003259,-0.001315,0.005654,0.010719,-0.001227,-0.307377,0.11548,-0.944555,0.3124352908113049
1760734881.926853,-0.11566,-0.119698,-0.393142,0.904287,0.01956,0.000237,-0.003934,0.005823,0.010521,0.001844,-0.307425,0.115062,-0.94459,0.3124858521062376
1760734881.928023,-0.115503,-0.119797,-0.39315,0.90429,0.015914,-0.006982,-0.004175,0.006153,0.01123,0.003075,-0.307483,0.114701,-0.944615,0.3125468124926175
1760734881.956769,-0.115406,-0.119934,-0.393182,0.90427,0.009342,-0.007282,-0.006028,0.006663,0.01139,0.001105,-0.307656,0.114404,-0.944595,0.3127285303264774
1760734881.985945,-0.11535,-0.120059,-0.393223,0.904243,0.008537,-0.008886,-0.005571,0.006063,0.01172,0.001869,-0.307842,0.114188,-0.94456,0.31292418177443965
1760734881.994985,-0.115323,-0.12017,-0.393253,0.904219,0.006146,-0.007955,-0.004941,0.005077,0.011661,0.00249,-0.308022,0.11404,-0.94452,0.3131131298837388
1760734882.025143,-0.115308,-0.120274,-0.39328,0.904195,0.004944,-0.007504,-0.003042,0.005398,0.012722,0.000678,-0.308199,0.11392,-0.944476,0.3132994078629161
1760734882.026532,-0.115304,-0.12038,-0.393281,0.904181,0.001284,-0.005382,-0.002029,0.005561,0.012247,0.001704,-0.308384,0.113825,-0.944427,0.31349390043694886
1760734882.056491,-0.115309,-0.120426,-0.393258,0.904185,-0.0012,-0.005966,0.001676,0.005683,0.0116,0.000869,-0.308468,0.113804,-0.944403,0.31358192929616663
1760734882.087468,-0.115362,-0.120445,-0.393221,0.904191,-0.002759,-0.004236,0.002949,0.006483,0.011537,0.000221,-0.308537,0.113896,-0.944369,0.31365458037517746
1760734882.089553,-0.115435,-0.120454,-0.39318,0.904199,-0.005204,-0.002057,0.002244,0.006532,0.010715,-3.5e-05,-0.308602,0.114032,-0.944331,0.31372302177173755
1760734882.122572,-0.115542,-0.120461,-0.39317,0.904189,-0.008087,-0.004104,0.000113,0.00662,0.010813,0.00028,-0.308694,0.11422,-0.944278,0.31381980801806114
1760734882.124613,-0.115668,-0.120452,-0.393182,0.904168,-0.010586,-0.00445,0.000752,0.005748,0.012484,0.001462,-0.308775,0.114447,-0.944224,0.3139049774892942
1760734882.153414,-0.115796,-0.120453,-0.393193,0.904147,-0.011841,-0.006269,-0.000666,0.006163,0.013329,0.001604,-0.308874,0.11467,-0.944165,0.3140089314352839
1760734882.21673,-0.115947,-0.120449,-0.393207,0.904122,-0.010666,-0.007055,9.3e-05,0.006073,0.013733,0.001398,-0.308985,0.114938,-0.944096,0.31412566831659305
1760734882.217072,-0.116099,-0.120446,-0.39322,0.904097,-0.00949,-0.007841,0.000852,0.005983,0.014137,0.001193,-0.309095,0.115206,-0.944027,0.3142414297188326
1760734882.217389,-0.116251,-0.120443,-0.393234,0.904072,-0.008314,-0.008628,0.001612,0.005893,0.01454,0.000987,-0.309206,0.115474,-0.943958,0.3143581177083379
1760734882.225933,-0.116403,-0.120501,-0.393223,0.90405,-0.007999,-0.009779,0.001067,0.005028,0.014079,0.000811,-0.309422,0.115701,-0.94386,0.31458507867436936
1760734882.256322,-0.116541,-0.120547,-0.39319,0.90404,-0.005744,-0.010043,0.003758,0.005525,0.014519,0.000839,-0.309605,0.11592,-0.943773,0.31477756424271314
1760734882.286376,-0.116635,-0.120598,-0.393128,0.904048,-0.003069,-0.008058,0.005829,0.004615,0.013263,0.000752,-0.309757,0.116066,-0.943705,0.31493747744606027
1760734882.286718,-0.11671,-0.120649,-0.393054,0.904063,0.001014,-0.006515,0.005329,0.005298,0.013783,0.000396,-0.309897,0.116184,-0.943645,0.31508457368524834
1760734882.317216,-0.116754,-0.120724,-0.393004,0.90407,0.004368,-0.005617,0.002803,0.004666,0.013829,0.001426,-0.310056,0.116218,-0.943588,0.3152519900829101
1760734882.346664,-0.116746,-0.120796,-0.392976,0.904073,0.004238,-0.006601,-4.2e-05,0.00605,0.012855,0.001687,-0.310173,0.116154,-0.943558,0.31537488114004786
1760734882.347016,-0.116738,-0.120885,-0.39298,0.904061,0.004447,-0.007061,-0.002818,0.006154,0.013524,0.002535,-0.310326,0.116066,-0.943518,0.31553598300425717
1760734882.375931,-0.116731,-0.120981,-0.392996,0.904042,0.003133,-0.006774,-0.00238,0.006052,0.012925,0.002012,-0.310493,0.115968,-0.943475,0.3157116941999745
1760734882.417988,-0.116735,-0.121076,-0.392995,0.904029,0.002825,-0.006706,-0.002277,0.005495,0.013521,0.001771,-0.310665,0.115899,-0.943427,0.31589259861053803
1760734882.418302,-0.11674,-0.121171,-0.392994,0.904016,0.002516,-0.006639,-0.002174,0.004937,0.014117,0.001529,-0.310837,0.11583,-0.943379,0.31607350168367554
1760734882.447059,-0.11675,-0.121258,-0.392995,0.904003,0.001141,-0.00529,0.00022,0.005296,0.014152,0.001535,-0.310999,0.115776,-0.943332,0.31624402238470406
1760734882.450835,-0.11676,-0.121295,-0.392971,0.904007,0.001359,-0.005936,0.002167,0.00523,0.013778,0.001961,-0.31107,0.115772,-0.943309,0.3163187527731372
1760734882.480879,-0.116785,-0.121349,-0.39295,0.904005,-0.000582,-0.005501,0.000809,0.005062,0.012777,0.00127,-0.311182,0.11578,-0.943271,0.3164366256086448
1760734882.511082,-0.116822,-0.121393,-0.392941,0.903999,0.000379,-0.004081,0.000496,0.005703,0.012166,0.000254,-0.311287,0.115813,-0.943233,0.3165468978976895
1760734882.511366,-0.116848,-0.121398,-0.392924,0.904002,-0.000144,-0.003251,-0.001525,0.006111,0.010968,0.000824,-0.311314,0.115862,-0.943218,0.31657533164636514
1760734882.539197,-0.116886,-0.121424,-0.392917,0.903997,0.000546,-0.003238,-0.000375,0.005761,0.011144,0.001367,-0.311387,0.11591,-0.943188,0.316652151490315
1760734882.545864,-0.116887,-0.121445,-0.392927,0.903989,0.001209,-0.002453,-0.000802,0.005702,0.011642,0.001999,-0.311427,0.115891,-0.943177,0.3166942840836485
1760734882.575816,-0.116902,-0.121489,-0.392944,0.903974,0.000162,-0.002644,-0.002015,0.005812,0.011785,0.001376,-0.311517,0.115877,-0.943149,0.3167889949469189
1760734882.609818,-0.116922,-0.12154,-0.392963,0.903957,-0.000922,-0.005235,-0.003328,0.004568,0.012266,0.001808,-0.311626,0.115864,-0.943114,0.31690388676788545
1760734882.610118,-0.116964,-0.121567,-0.392979,0.90394,-0.001587,-0.006108,-0.002094,0.005164,0.01347,0.001638,-0.311708,0.11591,-0.943082,0.31698995282814985
1760734882.640058,-0.117014,-0.121606,-0.39296,0.903937,-0.000654,-0.004988,0.002009,0.004904,0.012694,0.002004,-0.311811,0.115974,-0.94304,0.31709838074845953
1760734882.644089,-0.117026,-0.121657,-0.392906,0.903952,0.004805,-0.007209,0.007094,0.00405,0.010356,0.002568,-0.311905,0.115972,-0.943009,0.31719736427188044
1760734882.675829,-0.117004,-0.121714,-0.392779,0.904002,0.007124,-0.004443,0.014154,0.004412,0.010198,0.000183,-0.311974,0.115929,-0.942991,0.31727013122862446
1760734882.706482,-0.116954,-0.121718,-0.39265,0.904065,0.00448,0.009754,0.016435,0.006839,0.013539,-0.003618,-0.311925,0.115883,-0.943013,0.31721851531993284
1760734882.707648,-0.116915,-0.121541,-0.392511,0.904154,-0.003783,0.021082,0.017622,0.006869,0.011801,-0.001877,-0.311564,0.116007,-0.943117,0.3168386090917366
1760734882.737746,-0.116916,-0.121285,-0.392415,0.90423,-0.010893,0.021025,0.010506,0.007404,0.009132,0.003394,-0.311099,0.116249,-0.943241,0.31634919619095975
1760734882.766961,-0.116974,-0.121088,-0.392408,0.904251,-0.012889,0.009677,-0.002134,0.008498,0.007859,0.007249,-0.310791,0.116516,-0.94331,0.3160250044092988
1760734882.768976,-0.117076,-0.120978,-0.392484,0.90422,-0.014195,0.002039,-0.010206,0.009585,0.011358,0.004534,-0.310683,0.116761,-0.943315,0.31591146670438025
1760734882.799297,-0.11721,-0.120937,-0.392603,0.904156,-0.011401,4.2e-05,-0.007292,0.007879,0.01519,0.001311,-0.310726,0.116992,-0.943272,0.3159567720489701
1760734882.804476,-0.117291,-0.120882,-0.39263,0.904142,-0.005389,0.001377,-0.000197,0.006617,0.017253,0.00136,-0.310693,0.117171,-0.943261,0.31592194636370285
1760734882.834857,-0.117347,-0.12086,-0.392576,0.904161,-0.000634,0.001915,0.010832,0.006163,0.017995,0.001378,-0.310689,0.117307,-0.943245,0.31591786568002256
1760734882.867692,-0.117371,-0.120804,-0.392405,0.904239,0.002323,-0.000186,0.018691,0.005573,0.016533,0.000505,-0.310586,0.117454,-0.943261,0.31580939009627246
1760734882.869683,-0.117405,-0.120777,-0.392181,0.904336,0.000733,-0.001926,0.019345,0.005534,0.015014,0.00117,-0.310534,0.117615,-0.943258,0.3157547033991106
1760734882.898172,-0.117465,-0.120758,-0.391997,0.90441,-0.003396,-0.00323,0.015458,0.005755,0.012987,0.001067,-0.310521,0.117799,-0.943239,0.3157411254771127
1760734882.904582,-0.117576,-0.120782,-0.391876,0.904445,-0.005405,-0.006322,0.004186,0.005933,0.010821,0.001569,-0.310632,0.118019,-0.943175,0.3158578842703827
1760734882.933224,-0.117672,-0.120818,-0.391868,0.904431,-0.006736,-0.005329,-1.3e-05,0.006882,0.011638,0.003613,-0.310767,0.118163,-0.943113,0.31599975839630173
1760734882.963161,-0.117721,-0.120867,-0.391878,0.904414,-0.000741,-0.007131,-0.004022,0.004727,0.00993,0.003148,-0.310893,0.118206,-0.943066,0.3161323506998367
1760734882.977168,-0.11772,-0.120961,-0.391911,0.904387,0.004881,-0.00516,-0.005029,0.005261,0.013152,-0.001093,-0.311063,0.118117,-0.943021,0.3163112479731407
1760734882.984686,-0.117671,-0.120998,-0.391926,0.904382,0.004182,0.002096,-0.000668,0.004644,0.01408,-0.002243,-0.311094,0.117995,-0.943026,0.3163438808469866
1760734883.014641,-0.117632,-0.120969,-0.391944,0.904383,0.001704,0.006333,0.001345,0.00531,0.012686,0.000761,-0.311016,0.117943,-0.943058,0.3162618812327608
1760734883.044923,-0.117617,-0.120911,-0.391923,0.904402,-0.000598,0.002603,0.000266,0.004525,0.011587,0.002597,-0.310898,0.11797,-0.943094,0.3161375813193313
1760734883.04523,-0.117647,-0.120899,-0.391926,0.904398,-0.00319,-0.001897,-0.003879,0.005582,0.010761,0.002551,-0.310899,0.118032,-0.943086,0.31613860655807435
1760734883.073466,-0.117672,-0.12091,-0.391977,0.904372,-0.003169,-0.003773,-0.003334,0.005563,0.01108,0.001988,-0.310944,0.11805,-0.943068,0.31618623433606924
1760734883.088301,-0.117702,-0.120934,-0.39202,0.904346,-0.001392,-0.003107,-0.002939,0.00623,0.011441,0.002342,-0.311015,0.118071,-0.943042,0.3162609255604082
1760734883.118458,-0.117713,-0.120942,-0.392034,0.904337,-0.000479,-0.001069,-0.001011,0.005398,0.011922,0.001366,-0.311039,0.118078,-0.943034,0.3162859336381496
1760734883.12238,-0.11771,-0.120961,-0.392028,0.904338,-0.001216,0.000939,0.000345,0.006212,0.013156,0.000686,-0.311071,0.118059,-0.943025,0.3163198582001002
1760734883.15057,-0.117756,-0.120916,-0.391994,0.904352,-0.006983,0.002509,0.002682,0.005677,0.013372,0.000797,-0.31102,0.11819,-0.943026,0.31626601497881807
1760734883.212963,-0.117866,-0.120853,-0.391963,0.90436,-0.009341,0.001486,0.002497,0.005802,0.013049,0.001153,-0.310986,0.118447,-0.943005,0.31623023095512426
1760734883.213119,-0.117975,-0.12079,-0.391931,0.904368,-0.011698,0.000464,0.002313,0.005926,0.012725,0.001509,-0.310953,0.118704,-0.942983,0.31619568416395877
1760734883.213477,-0.118118,-0.120744,-0.391924,0.904359,-0.012375,-0.000885,-0.000455,0.005893,0.012159,0.001179,-0.310978,0.118997,-0.942938,0.31622193460294257
1760734883.24197,-0.118249,-0.120662,-0.391939,0.904346,-0.010966,-0.000925,-0.00209,0.006563,0.012221,0.001621,-0.310933,0.119292,-0.942916,0.3161744531203512
1760734883.243215,-0.118336,-0.120625,-0.391966,0.904328,-0.007761,7.9e-05,-0.000421,0.00761,0.012452,0.001423,-0.310937,0.119467,-0.942892,0.3161788235271464
1760734883.274039,-0.118408,-0.120605,-0.391997,0.904308,-0.006402,0.000328,-0.001668,0.006788,0.011952,0.003063,-0.310958,0.119601,-0.942868,0.31620094558253253
1760734883.307657,-0.118461,-0.120601,-0.392044,0.904281,-0.002598,-0.00264,-0.003283,0.007156,0.013024,0.002256,-0.310998,0.119682,-0.942845,0.316242886969343
1760734883.309737,-0.118494,-0.120637,-0.392073,0.904259,-0.001905,-0.005381,-0.003826,0.006886,0.014,0.001428,-0.311091,0.119701,-0.942812,0.31634071218659426
1760734883.338541,-0.118541,-0.120658,-0.392093,0.904242,-0.001952,-0.006207,-0.002189,0.006185,0.01453,0.001047,-0.311166,0.119761,-0.94278,0.3164195147015638
1760734883.342312,-0.118593,-0.120673,-0.39211,0.904225,-0.003676,-0.002993,-0.001144,0.006411,0.013582,0.000112,-0.311234,0.119835,-0.942748,0.3164911141002018
1760734883.371034,-0.118653,-0.120691,-0.392101,0.904219,-0.002233,-0.003575,0.000531,0.005121,0.013721,0.000505,-0.311311,0.11993,-0.94271,0.3165722922882056
1760734883.404654,-0.118687,-0.120685,-0.392083,0.904223,-0.001754,-0.003768,0.001087,0.006398,0.013197,0.001867,-0.311323,0.120002,-0.942697,0.31658488107275184
1760734883.404945,-0.118728,-0.120709,-0.392076,0.904218,-0.002675,-0.002492,0.00198,0.005584,0.013437,0.002104,-0.311395,0.120057,-0.942666,0.31666071395978423
1760734883.434217,-0.118791,-0.120713,-0.39207,0.904212,-0.002258,-0.001328,-0.000488,0.005382,0.013004,0.000801,-0.311449,0.120169,-0.942634,0.3167175055235821
1760734883.463053,-0.118862,-0.120711,-0.392064,0.904205,-0.004386,-0.003147,-0.000583,0.006089,0.013588,0.001404,-0.311498,0.120299,-0.942601,0.3167691407114955
1760734883.464316,-0.118929,-0.120701,-0.392084,0.904189,-0.004793,-0.00383,-0.002461,0.006099,0.013357,0.002061,-0.311533,0.120418,-0.942574,0.31680604697039744
1760734883.498804,-0.119009,-0.120727,-0.392127,0.904156,-0.007769,-0.001123,-0.005549,0.006837,0.015014,0.001351,-0.311646,0.120525,-0.942523,0.316924957392424
1760734883.500853,-0.119092,-0.120692,-0.392187,0.904124,-0.00808,-0.002446,-0.006335,0.006234,0.015333,0.001479,-0.311655,0.12068,-0.942501,0.3169341788695688
1760734883.529768,-0.119155,-0.120667,-0.392256,0.904089,-0.005691,-0.003702,-0.006163,0.005821,0.015013,0.001984,-0.311667,0.120789,-0.942483,0.3169468291490964
1760734883.561334,-0.119235,-0.120689,-0.392314,0.90405,-0.003083,-0.002734,-0.005894,0.007078,0.014448,0.001428,-0.311773,0.120893,-0.942434,0.3170585748886456
1760734883.561433,-0.119283,-0.120717,-0.392358,0.904021,-0.001445,-0.00369,-0.004666,0.007258,0.013844,0.001716,-0.311864,0.120941,-0.942398,0.317154267224979
1760734883.592532,-0.119321,-0.120747,-0.392398,0.903995,0.001578,-0.004829,-0.00385,0.00514,0.013382,0.001487,-0.311951,0.12097,-0.942365,0.3172459847069707
1760734883.621983,-0.119298,-0.120798,-0.392428,0.903978,0.005041,-0.006026,-0.003165,0.005723,0.012818,0.001627,-0.31203,0.120876,-0.942352,0.31732879696679156
1760734883.625018,-0.119272,-0.120896,-0.392468,0.903951,0.007675,-0.006916,-0.004607,0.00669,0.013376,0.002715,-0.312188,0.120736,-0.942317,0.3174952955875755
1760734883.653192,-0.119235,-0.120974,-0.392472,0.903944,0.005858,-0.005316,-0.002675,0.007767,0.013295,0.002227,-0.3123,0.120606,-0.942297,0.31761304611780145
1760734883.683464,-0.119226,-0.121072,-0.392462,0.903936,0.002982,-0.007054,-0.001349,0.006951,0.01215,0.002435,-0.312466,0.120513,-0.942253,0.31778805953284467
