timestamp,quat_x,quat_y,quat_z,quat_w,rot_x,rot_y,rot_z,acc_x,acc_y,acc_z,grav_x,grav_y,grav_z
1760629580.581783,-0.121656,0.125487,-0.000000,0.984608,-0.005674,0.003814,-0.011393,-0.002394,0.002449,-0.001475,0.247110,0.239566,-0.938906
1760629580.582263,-0.121728,0.125441,-0.000102,0.984605,-0.008770,0.001827,-0.017289,-0.002925,-0.000617,0.001532,0.246995,0.239733,-0.938894
1760629580.612627,-0.121831,0.125462,-0.000242,0.984589,-0.011398,0.006788,-0.019841,-0.001965,-0.001612,0.001252,0.246999,0.239967,-0.938833
1760629580.657548,-0.122168,0.125570,-0.000606,0.984534,-0.029469,0.013495,-0.024128,-0.001682,-0.007840,-0.000749,0.247108,0.240710,-0.938614
1760629580.658759,-0.122464,0.124956,-0.000872,0.984575,-0.047583,0.013919,-0.026337,-0.000834,-0.004971,-0.001022,0.245844,0.241368,-0.938777
1760629580.659055,-0.122760,0.124342,-0.001138,0.984615,-0.065697,0.014343,-0.028546,0.000014,-0.002102,-0.001296,0.244580,0.242025,-0.938938
1760629580.688960,-0.122677,0.124475,-0.001197,0.984609,-0.068964,0.013351,-0.027912,-0.000005,-0.000086,0.000991,0.244824,0.241875,-0.938913
1760629580.721056,-0.122321,0.124729,-0.001278,0.984621,-0.069122,0.008121,-0.021075,-0.000305,0.002167,0.002458,0.245309,0.241198,-0.938961
1760629580.721352,-0.122370,0.124681,-0.001336,0.984621,-0.069296,0.003384,-0.023511,-0.000109,0.002697,0.004651,0.245201,0.241310,-0.938960
1760629580.782706,-0.122979,0.124702,-0.001587,0.984542,-0.073947,0.010206,-0.029509,0.001281,0.002158,0.002881,0.245159,0.242552,-0.938651
1760629580.783192,-0.123588,0.124723,-0.001837,0.984463,-0.078598,0.017028,-0.035508,0.002671,0.001618,0.001109,0.245116,0.243794,-0.938340
1760629580.783575,-0.124197,0.124744,-0.002088,0.984383,-0.083250,0.023851,-0.041507,0.004062,0.001079,-0.000665,0.245072,0.245035,-0.938028
1760629580.819052,-0.125323,0.124958,-0.002610,0.984212,-0.062572,0.013487,-0.046043,0.002695,-0.000209,-0.000553,0.245316,0.247342,-0.937359
1760629580.819362,-0.125702,0.125030,-0.002846,0.984154,-0.048547,0.007105,-0.035333,0.001838,-0.002508,0.002588,0.245382,0.248132,-0.937133
1760629580.849042,-0.126037,0.125133,-0.003013,0.984097,-0.038554,0.005501,-0.030178,-0.000445,-0.000670,-0.001883,0.245526,0.248819,-0.936913
1760629580.881243,-0.126526,0.125323,-0.003224,0.984010,-0.038381,-0.018091,-0.013164,-0.004613,0.014766,0.001589,0.245822,0.249814,-0.936571
1760629580.881554,-0.126744,0.125267,-0.003246,0.983989,-0.048010,-0.013228,-0.017744,-0.004834,0.019227,0.004793,0.245700,0.250242,-0.936488
1760629580.910488,-0.127037,0.125165,-0.003351,0.983963,-0.056252,-0.022106,-0.029169,-0.006456,0.019605,0.004962,0.245465,0.250838,-0.936390
1760629580.943272,-0.128388,0.124389,-0.003862,0.983885,-0.054220,-0.029230,-0.028835,-0.005883,0.010579,0.010695,0.243777,0.253599,-0.936088
1760629580.943265,-0.127883,0.124674,-0.003716,0.983915,-0.056327,-0.029002,-0.032972,-0.007322,0.013344,0.007663,0.244386,0.252579,-0.936205
1760629580.991528,-0.129676,0.124017,-0.004100,0.983762,-0.038093,-0.001974,-0.008590,-0.002204,0.006807,0.016549,0.242943,0.256158,-0.935608
1760629580.991653,-0.130073,0.123953,-0.004130,0.983717,-0.037365,0.000297,-0.005561,-0.000955,0.005536,0.012842,0.242794,0.256934,-0.935433
1760629581.006212,-0.130970,0.123964,-0.004184,0.983597,-0.020090,0.031145,0.004328,0.002912,0.000229,0.011433,0.242765,0.258681,-0.934960
1760629581.055447,-0.131173,0.124207,-0.004188,0.983539,-0.016973,0.038342,0.004856,0.002640,0.000846,0.013037,0.243226,0.259068,-0.934733
1760629581.055821,-0.131376,0.124450,-0.004191,0.983481,-0.013857,0.045539,0.005384,0.002367,0.001464,0.014641,0.243687,0.259454,-0.934505
1760629581.055996,-0.131578,0.124693,-0.004195,0.983423,-0.010741,0.052736,0.005912,0.002095,0.002081,0.016245,0.244148,0.259841,-0.934277
1760629581.085274,-0.132081,0.125909,-0.004409,0.983200,-0.034813,0.080606,-0.015901,0.004012,0.006852,0.004369,0.246424,0.260834,-0.933403
1760629581.103613,-0.132497,0.126575,-0.004729,0.983057,-0.039345,0.073949,-0.035097,0.004929,0.000570,0.002857,0.247607,0.261701,-0.932847
1760629581.155209,-0.133116,0.127747,-0.005335,0.982818,-0.018727,0.082603,-0.030675,0.008097,-0.011051,0.000720,0.249685,0.263021,-0.931921
1760629581.155563,-0.133207,0.128128,-0.005495,0.982756,-0.004527,0.087329,-0.022266,0.007991,-0.010770,-0.001984,0.250374,0.263228,-0.931678
1760629581.155995,-0.133298,0.128509,-0.005655,0.982693,0.009673,0.092055,-0.013857,0.007886,-0.010489,-0.004688,0.251063,0.263435,-0.931434
1760629581.185327,-0.133051,0.129868,-0.006251,0.982544,0.040029,0.076922,-0.028265,0.003642,-0.009929,-0.008344,0.253539,0.263080,-0.930864
1760629581.217942,-0.131914,0.130886,-0.007042,0.982557,0.090784,0.053118,-0.035540,0.000916,-0.016486,-0.002447,0.255348,0.261069,-0.930935
1760629581.218186,-0.131176,0.131273,-0.007340,0.982602,0.106646,0.056465,-0.025157,-0.000470,-0.011641,-0.001085,0.256052,0.259714,-0.931121
1760629581.248845,-0.130489,0.131554,-0.007617,0.982654,0.092150,0.042335,-0.025962,-0.002897,-0.000640,-0.000675,0.256556,0.258455,-0.931332
1760629581.268963,-0.129837,0.131796,-0.007999,0.982705,0.057521,0.034977,-0.034625,-0.003412,0.004366,0.006559,0.256957,0.257291,-0.931544
1760629581.338932,-0.129209,0.132355,-0.008854,0.982705,-0.015819,0.048919,-0.047803,-0.000404,0.001162,0.012161,0.257843,0.256293,-0.931574
1760629581.339030,-0.129525,0.132742,-0.009114,0.982609,-0.023101,0.053875,-0.035868,0.000401,0.000809,0.016204,0.258505,0.256965,-0.931206
1760629581.339145,-0.129842,0.133128,-0.009375,0.982512,-0.030383,0.058832,-0.023934,0.001207,0.000455,0.020247,0.259166,0.257638,-0.930836
1760629581.339279,-0.130158,0.133515,-0.009635,0.982415,-0.037665,0.063789,-0.012000,0.002014,0.000102,0.024289,0.259827,0.258310,-0.930465
1760629581.359856,-0.130650,0.134193,-0.009780,0.982256,-0.057468,0.084537,-0.002035,0.003145,0.009257,0.016072,0.261068,0.259288,-0.929846
1760629581.390055,-0.131129,0.134714,-0.009855,0.982120,-0.088981,0.079466,-0.020982,0.005581,0.015559,0.010259,0.262027,0.260225,-0.929314
1760629581.455816,-0.132793,0.135878,-0.010243,0.981732,-0.152533,0.077334,-0.051215,0.014036,0.011897,-0.009743,0.264072,0.263517,-0.927806
1760629581.455990,-0.134087,0.136224,-0.010530,0.981505,-0.129671,0.059787,-0.043738,0.012146,0.009893,-0.009346,0.264586,0.266082,-0.926927
1760629581.456263,-0.135380,0.136570,-0.010817,0.981277,-0.106810,0.042240,-0.036261,0.010259,0.007890,-0.008956,0.265097,0.268646,-0.926042
1760629581.456417,-0.136674,0.136916,-0.011104,0.981046,-0.083948,0.024692,-0.028784,0.008375,0.005889,-0.008573,0.265606,0.271207,-0.925149
1760629581.486066,-0.137145,0.136998,-0.011217,0.980967,-0.052370,0.002931,-0.028335,0.007797,0.005590,-0.007612,0.265704,0.272143,-0.924846
1760629581.517533,-0.137335,0.136742,-0.011416,0.980974,0.025151,-0.037232,-0.009770,0.000218,0.002481,0.001290,0.265145,0.272567,-0.924881
1760629581.517779,-0.137043,0.136451,-0.011444,0.981055,0.049275,-0.049535,-0.006343,-0.002021,0.009479,0.005940,0.264594,0.272017,-0.925201
1760629581.547401,-0.136714,0.136112,-0.011512,0.981147,0.050428,-0.058324,-0.015260,-0.001250,0.010185,0.005074,0.263945,0.271408,-0.925565
1760629581.578736,-0.136018,0.135269,-0.011751,0.981358,0.053695,-0.050576,-0.014231,0.002321,-0.000414,0.006698,0.262298,0.270144,-0.926403
1760629581.579130,-0.135658,0.135025,-0.011818,0.981440,0.058812,-0.037232,0.001119,0.002941,-0.005057,0.001234,0.261832,0.269471,-0.926730
1760629581.611311,-0.134912,0.134633,-0.011631,0.981599,0.051316,-0.026635,0.036762,-0.006775,-0.010777,0.021716,0.261173,0.267992,-0.927345
1760629581.657787,-0.134756,0.134749,-0.011125,0.981611,0.022164,-0.015866,0.045094,-0.002939,-0.006833,0.014630,0.261543,0.267555,-0.927367
1760629581.658123,-0.134600,0.134864,-0.010619,0.981622,-0.006988,-0.005097,0.053427,0.000897,-0.002888,0.007544,0.261913,0.267117,-0.927389
1760629581.658349,-0.134444,0.134980,-0.010113,0.981633,-0.036140,0.005671,0.061759,0.004733,0.001057,0.000458,0.262282,0.266679,-0.927411
1760629581.697734,-0.134963,0.135304,-0.009046,0.981527,-0.068075,0.019847,0.070977,0.007669,0.000997,-0.005631,0.263166,0.267388,-0.926956
1760629581.698075,-0.135314,0.135478,-0.008597,0.981459,-0.082250,0.015989,0.059366,0.007012,0.006342,-0.006208,0.263605,0.267940,-0.926672
1760629581.744275,-0.136277,0.135718,-0.007994,0.981298,-0.063687,0.012857,0.020124,0.002351,-0.005868,-0.004066,0.264181,0.269627,-0.926018
1760629581.744369,-0.136526,0.135755,-0.007893,0.981259,-0.036115,-0.005609,0.002487,0.000664,-0.013883,-0.005794,0.264266,0.270077,-0.925863
1760629581.775553,-0.136057,0.135552,-0.007682,0.981354,0.089897,-0.036628,0.033791,-0.004008,-0.025661,-0.000038,0.263958,0.269123,-0.926228
1760629581.775995,-0.135285,0.135300,-0.007468,0.981497,0.101237,-0.039931,0.042897,-0.001225,0.001037,0.000629,0.263572,0.267585,-0.926784
1760629581.814418,-0.134420,0.134751,-0.007382,0.981692,0.025322,-0.046388,-0.023298,-0.006387,0.021056,0.000473,0.262583,0.265907,-0.927547
1760629581.814750,-0.134325,0.134377,-0.007572,0.981755,-0.021114,-0.060868,-0.055468,-0.010790,0.014735,0.007048,0.261817,0.265783,-0.927799
1760629581.844375,-0.134447,0.133940,-0.007877,0.981795,-0.041366,-0.052471,-0.057196,-0.010952,-0.001507,0.018899,0.260885,0.266108,-0.927969
1760629581.882150,-0.135265,0.133227,-0.008307,0.981776,-0.055730,-0.028534,-0.019099,-0.004707,-0.009855,0.011496,0.259350,0.267813,-0.927908
1760629581.882478,-0.135656,0.133051,-0.008357,0.981746,-0.061129,-0.020245,-0.014953,-0.003138,-0.003510,0.013550,0.258977,0.268584,-0.927789
1760629581.913287,-0.137209,0.132956,-0.008413,0.981542,-0.119759,0.017431,-0.022757,0.000188,0.021961,-0.004949,0.258694,0.271591,-0.926993
1760629581.954734,-0.138332,0.133044,-0.008767,0.981370,-0.107037,0.025808,-0.043105,-0.000120,0.014437,0.000629,0.258705,0.273843,-0.926327
1760629581.955035,-0.139455,0.133132,-0.009121,0.981196,-0.094314,0.034185,-0.063453,-0.000426,0.006915,0.006201,0.258713,0.276093,-0.925657
1760629581.955304,-0.140577,0.133220,-0.009475,0.981020,-0.081592,0.042562,-0.083800,-0.000730,-0.000606,0.011769,0.258719,0.278342,-0.924981
1760629581.993441,-0.141126,0.133435,-0.010501,0.980902,0.027707,0.027347,-0.063419,-0.003884,-0.003835,0.010238,0.258810,0.279664,-0.924557
1760629582.002727,-0.140679,0.133682,-0.011364,0.980923,0.062140,0.040465,-0.071933,-0.002236,0.004933,0.009303,0.259066,0.279029,-0.924677
1760629582.045768,-0.140337,0.133889,-0.011889,0.980937,0.072014,0.051871,-0.075545,-0.002495,0.004618,0.009316,0.259336,0.278506,-0.924759
1760629582.046128,-0.139994,0.134095,-0.012413,0.980952,0.081888,0.063277,-0.079158,-0.002755,0.004303,0.009328,0.259606,0.277983,-0.924841
1760629582.076388,-0.138805,0.134998,-0.014043,0.980975,0.094319,0.095360,-0.087228,0.000057,-0.008151,0.011310,0.260961,0.276120,-0.925017
1760629582.076704,-0.138245,0.135619,-0.014846,0.980956,0.094169,0.109597,-0.085954,-0.000453,-0.011382,0.010568,0.261967,0.275252,-0.924991
1760629582.110097,-0.137116,0.137330,-0.016474,0.980851,0.090677,0.151199,-0.067941,-0.000177,-0.006549,0.021493,0.264882,0.273506,-0.924679
1760629582.140613,-0.136694,0.138302,-0.017124,0.980762,0.074456,0.160055,-0.066358,0.002214,-0.001125,0.015424,0.266601,0.272865,-0.924375
1760629582.140928,-0.136271,0.139274,-0.017775,0.980672,0.058235,0.168910,-0.064774,0.004606,0.004298,0.009350,0.268320,0.272226,-0.924066
1760629582.168810,-0.135894,0.141757,-0.019522,0.980335,-0.006071,0.151667,-0.092136,0.005136,0.008844,-0.007621,0.272632,0.271978,-0.922876
1760629582.215759,-0.136279,0.142549,-0.020452,0.980148,-0.018436,0.128087,-0.093064,0.006318,0.004131,-0.005957,0.273864,0.272977,-0.922216
1760629582.216087,-0.136663,0.143342,-0.021382,0.979959,-0.030802,0.104506,-0.093992,0.007503,-0.000584,-0.004295,0.275093,0.273978,-0.921553
1760629582.216589,-0.137047,0.144134,-0.022312,0.979768,-0.043168,0.080926,-0.094921,0.008691,-0.005300,-0.002636,0.276319,0.274980,-0.920887
1760629582.256581,-0.137747,0.144954,-0.023454,0.979522,-0.026835,0.044527,-0.052940,0.008386,-0.008654,-0.006045,0.277510,0.276652,-0.920028
1760629582.256899,-0.137917,0.145116,-0.023730,0.979468,-0.019539,0.026980,-0.038266,0.009393,-0.007209,-0.006627,0.277727,0.277058,-0.919841
1760629582.297628,-0.138087,0.145169,-0.023917,0.979431,-0.010752,-0.013389,-0.000234,0.008316,-0.002398,-0.009919,0.277761,0.277437,-0.919716
1760629582.297965,-0.138118,0.145035,-0.023855,0.979448,-0.018873,-0.043236,0.003468,0.006713,-0.000419,-0.011220,0.277519,0.277479,-0.919776
1760629582.374819,-0.138458,0.143853,-0.023276,0.979589,-0.027979,-0.091852,0.025040,0.005192,0.002728,-0.005827,0.275388,0.277960,-0.920272
1760629582.375283,-0.138687,0.143090,-0.022849,0.979678,-0.028071,-0.106834,0.030589,0.004261,0.004717,-0.005782,0.274027,0.278276,-0.920582
1760629582.376160,-0.138916,0.142328,-0.022422,0.979766,-0.028164,-0.121816,0.036137,0.003331,0.006705,-0.005739,0.272666,0.278592,-0.920891
1760629582.376569,-0.139144,0.141565,-0.021995,0.979854,-0.028256,-0.136798,0.041685,0.002400,0.008692,-0.005698,0.271305,0.278910,-0.921196
1760629582.409645,-0.139389,0.139599,-0.020896,0.980126,-0.015978,-0.142967,0.053795,-0.000074,0.005038,0.000460,0.267823,0.279071,-0.922166
1760629582.442867,-0.139465,0.138849,-0.020375,0.980232,-0.015153,-0.145423,0.059244,-0.002223,0.003131,-0.002014,0.266525,0.279074,-0.922541
1760629582.446498,-0.139540,0.138099,-0.019855,0.980338,-0.014329,-0.147879,0.064693,-0.004372,0.001223,-0.004491,0.265226,0.279078,-0.922914
1760629582.473662,-0.139667,0.134695,-0.017169,0.980844,0.000806,-0.161477,0.110767,-0.008972,-0.001176,0.003186,0.259433,0.278608,-0.924701
1760629582.504623,-0.139464,0.133407,-0.015769,0.981073,0.008954,-0.143694,0.119491,-0.007207,0.002966,0.009351,0.257365,0.277856,-0.925505
1760629582.554666,-0.139159,0.132517,-0.014452,0.981257,0.015727,-0.111157,0.113093,-0.007037,0.006125,0.010967,0.256045,0.276932,-0.926148
1760629582.554960,-0.138854,0.131628,-0.013136,0.981438,0.022500,-0.078620,0.106696,-0.006864,0.009281,0.012580,0.254721,0.276011,-0.926788
1760629582.556397,-0.138511,0.131053,-0.012066,0.981577,0.025057,-0.053959,0.088024,-0.007312,0.009592,0.011762,0.253934,0.275082,-0.927279
1760629582.586397,-0.138227,0.130727,-0.011302,0.981670,0.026901,-0.028010,0.058035,-0.007332,0.009781,0.008937,0.253537,0.274342,-0.927607
1760629582.617017,-0.138002,0.130568,-0.010885,0.981727,0.027210,-0.010481,0.027202,-0.006625,0.010523,0.009668,0.253361,0.273803,-0.927815
1760629582.618404,-0.137846,0.130601,-0.010792,0.981746,0.023850,0.010229,-0.001383,-0.005647,0.009347,0.007467,0.253459,0.273478,-0.927884
1760629582.659844,-0.137757,0.130685,-0.011021,0.981745,0.020100,0.018863,-0.026882,-0.004783,0.006865,0.005348,0.253561,0.273366,-0.927889
1760629582.661661,-0.137723,0.130842,-0.011456,0.981724,0.017912,0.029110,-0.042561,-0.003256,0.001916,0.003663,0.253746,0.273409,-0.927826
1760629582.690624,-0.137729,0.131035,-0.012013,0.981691,0.014432,0.035027,-0.046143,-0.002839,-0.002338,0.001035,0.253962,0.273563,-0.927721
1760629582.722422,-0.137714,0.131268,-0.012529,0.981655,0.016367,0.031559,-0.039442,-0.002045,-0.007341,0.000874,0.254269,0.273666,-0.927607
1760629582.723533,-0.137623,0.131479,-0.012943,0.981634,0.019160,0.030816,-0.023630,-0.001725,-0.009358,0.000809,0.254567,0.273594,-0.927546
1760629582.752828,-0.137465,0.131718,-0.013148,0.981622,0.018364,0.024589,-0.003199,-0.000425,-0.010213,0.000184,0.254980,0.273340,-0.927507
1760629582.754585,-0.137302,0.131917,-0.013159,0.981617,0.012159,0.020138,0.011024,-0.000103,-0.010178,-0.000478,0.255370,0.273028,-0.927492
1760629582.798859,-0.137156,0.132107,-0.013028,0.981614,0.005713,0.013496,0.020913,0.000152,-0.010122,0.000090,0.255783,0.272712,-0.927472
1760629582.799152,-0.136998,0.132255,-0.012818,0.981619,0.004134,0.013867,0.028779,0.000963,-0.008085,0.000958,0.256135,0.272351,-0.927480
1760629582.857272,-0.136901,0.132329,-0.012516,0.981627,0.000554,0.009012,0.025561,0.001916,-0.006506,0.000731,0.256369,0.272083,-0.927494
1760629582.857587,-0.136803,0.132404,-0.012215,0.981634,-0.003027,0.004157,0.022343,0.002869,-0.004926,0.000505,0.256602,0.271815,-0.927508
1760629582.858266,-0.136753,0.132446,-0.012007,0.981638,-0.005702,0.001864,0.012669,0.004016,-0.001808,0.002336,0.256745,0.271664,-0.927513
1760629582.887492,-0.136772,0.132511,-0.011886,0.981628,-0.012685,0.005333,0.005317,0.002988,-0.000649,0.001962,0.256902,0.271668,-0.927468
1760629582.894570,-0.136876,0.132530,-0.011841,0.981611,-0.019841,-0.004833,-0.000580,0.000387,-0.001400,0.001782,0.256945,0.271857,-0.927401
1760629582.946311,-0.137150,0.132385,-0.011755,0.981594,-0.029752,-0.016702,0.001947,0.000178,-0.001723,0.001416,0.256672,0.272363,-0.927329
1760629582.946632,-0.137423,0.132239,-0.011668,0.981576,-0.039663,-0.028572,0.004474,-0.000031,-0.002046,0.001051,0.256399,0.272868,-0.927256
1760629582.978342,-0.137809,0.132003,-0.011518,0.981556,-0.046794,-0.028629,0.009260,-0.001025,-0.004314,0.002930,0.255962,0.273575,-0.927168
1760629582.994090,-0.138236,0.131737,-0.011238,0.981534,-0.046609,-0.030495,0.024001,-0.001598,-0.004759,0.003193,0.255502,0.274328,-0.927072
1760629582.995720,-0.138610,0.131501,-0.010812,0.981518,-0.041660,-0.025853,0.037311,-0.001794,-0.002137,0.004931,0.255143,0.274940,-0.926990
1760629583.025060,-0.138920,0.131329,-0.010303,0.981503,-0.035735,-0.020922,0.041368,-0.001741,0.002121,0.004933,0.254938,0.275406,-0.926908
1760629583.055875,-0.139182,0.131203,-0.009787,0.981488,-0.032194,-0.017730,0.038056,-0.003874,0.005751,0.004261,0.254823,0.275779,-0.926829
1760629583.060443,-0.139383,0.131067,-0.009379,0.981481,-0.028117,-0.013757,0.027267,-0.003877,0.008249,0.002940,0.254666,0.276062,-0.926787
1760629583.089118,-0.139596,0.130956,-0.009130,0.981468,-0.021747,-0.008798,0.011611,-0.002866,0.008532,0.003251,0.254510,0.276409,-0.926727
1760629583.107831,-0.139813,0.130888,-0.009032,0.981447,-0.020065,-0.008165,-0.007439,-0.002645,0.008588,0.002473,0.254394,0.276803,-0.926641
1760629583.157303,-0.140010,0.130801,-0.009159,0.981430,-0.011054,-0.006299,-0.010684,-0.001755,0.005416,0.003447,0.254179,0.277215,-0.926577
1760629583.157650,-0.140206,0.130714,-0.009285,0.981412,-0.002043,-0.004433,-0.013929,-0.000866,0.002245,0.004420,0.253965,0.277627,-0.926512
1760629583.159050,-0.140286,0.130707,-0.009410,0.981400,0.004538,0.006004,-0.007765,-0.000585,-0.000778,0.004856,0.253912,0.277814,-0.926471
1760629583.187957,-0.140281,0.130783,-0.009504,0.981390,0.008403,0.011069,-0.001345,-0.001409,-0.000667,0.001845,0.254033,0.277826,-0.926434
1760629583.196032,-0.140237,0.130911,-0.009515,0.981379,0.006467,0.012665,0.005990,-0.002449,0.000085,0.001836,0.254278,0.277742,-0.926392
1760629583.244946,-0.140214,0.130980,-0.009472,0.981374,0.003287,0.008548,0.006997,-0.001794,0.000232,0.001983,0.254424,0.277687,-0.926368
1760629583.245233,-0.140192,0.131049,-0.009430,0.981368,0.000108,0.004431,0.008003,-0.001139,0.000380,0.002130,0.254571,0.277632,-0.926344
1760629583.273689,-0.140176,0.131095,-0.009343,0.981365,0.000293,0.003485,0.008125,-0.000165,0.000680,0.002993,0.254686,0.277577,-0.926329
1760629583.274747,-0.140161,0.131134,-0.009242,0.981363,0.000637,0.003268,0.010013,0.000786,0.000005,0.001321,0.254789,0.277522,-0.926318
1760629583.305330,-0.140130,0.131133,-0.009139,0.981368,0.001498,0.000475,0.009692,-0.000372,-0.000206,0.000527,0.254819,0.277436,-0.926335
1760629583.311061,-0.140081,0.131171,-0.009031,0.981371,0.005005,-0.000341,0.011960,0.000169,0.000028,0.002032,0.254925,0.277313,-0.926343
1760629583.340086,-0.140009,0.131184,-0.008924,0.981381,0.003686,0.000593,0.009149,0.001178,0.000879,0.004745,0.254984,0.277146,-0.926376
1760629583.370857,-0.139952,0.131194,-0.008861,0.981388,0.004245,0.001215,0.006168,0.000522,-0.000679,0.000527,0.255025,0.277019,-0.926403
1760629583.372883,-0.139887,0.131175,-0.008842,0.981400,0.006711,-0.006911,0.002394,0.000277,-0.002190,0.001213,0.254996,0.276889,-0.926450
1760629583.409650,-0.139797,0.131100,-0.008811,0.981423,0.008345,-0.009128,0.006931,0.000005,-0.000184,0.000843,0.254866,0.276711,-0.926539
1760629583.411693,-0.139740,0.130975,-0.008733,0.981449,0.003079,-0.015800,0.005580,0.000454,-0.000925,0.001206,0.254650,0.276582,-0.926637
1760629583.454129,-0.139735,0.130808,-0.008629,0.981473,-0.003653,-0.019528,0.006049,0.000026,-0.001847,0.000945,0.254358,0.276551,-0.926726
1760629583.454856,-0.139791,0.130644,-0.008487,0.981488,-0.006008,-0.016648,0.011975,-0.000332,-0.004261,0.003975,0.254078,0.276624,-0.926781
1760629583.486070,-0.139825,0.130479,-0.008274,0.981507,-0.004490,-0.022309,0.022647,-0.000965,-0.004628,0.002449,0.253818,0.276637,-0.926849
1760629583.488656,-0.139806,0.130302,-0.007948,0.981536,0.000732,-0.026557,0.031187,-0.000697,-0.001973,0.001292,0.253570,0.276520,-0.926951
1760629583.517944,-0.139768,0.130073,-0.007578,0.981575,-0.002506,-0.028287,0.031341,-0.000756,0.001883,0.001838,0.253235,0.276356,-0.927092
1760629583.551084,-0.139751,0.129885,-0.007253,0.981604,-0.002962,-0.017009,0.021608,-0.000318,0.003113,0.004954,0.252964,0.276245,-0.927199
1760629583.551809,-0.139746,0.129796,-0.007059,0.981618,-0.004720,-0.009118,0.009759,-0.000835,0.001126,0.001958,0.252847,0.276186,-0.927248
1760629583.581522,-0.139730,0.129704,-0.006932,0.981633,-0.000998,-0.014081,0.008276,-0.002438,0.002227,0.000258,0.252705,0.276126,-0.927305
1760629583.588606,-0.139745,0.129510,-0.006862,0.981657,-0.000642,-0.022049,0.000077,-0.002603,0.004218,0.000188,0.252352,0.276141,-0.927397
1760629583.608987,-0.139824,0.129280,-0.006855,0.981677,-0.005389,-0.024706,-0.004436,-0.001792,0.000191,0.000782,0.251905,0.276296,-0.927472
1760629583.637948,-0.139896,0.129034,-0.006818,0.981699,-0.004599,-0.025819,0.005519,-0.001738,-0.003626,0.003698,0.251438,0.276432,-0.927558
1760629583.668132,-0.139934,0.128762,-0.006664,0.981730,-0.004368,-0.025026,0.019524,-0.003316,-0.005684,0.002139,0.250955,0.276470,-0.927678
1760629583.669219,-0.139965,0.128541,-0.006366,0.981757,0.001551,-0.023973,0.031597,-0.003774,-0.003496,0.002140,0.250610,0.276459,-0.927774
1760629583.699945,-0.139899,0.128350,-0.005949,0.981794,0.002747,-0.022720,0.044118,-0.001789,-0.000050,0.001673,0.250362,0.276232,-0.927909
1760629583.754538,-0.139847,0.128131,-0.005529,0.981832,-0.003082,-0.025791,0.036073,-0.002496,0.002942,0.000726,0.250059,0.276029,-0.928051
1760629583.754757,-0.139795,0.127911,-0.005108,0.981871,-0.008912,-0.028862,0.028029,-0.003203,0.005933,-0.000221,0.249756,0.275827,-0.928192
1760629583.756206,-0.139835,0.127585,-0.004879,0.981909,-0.009810,-0.033873,0.011236,-0.002952,0.002321,0.002920,0.249190,0.275855,-0.928336
1760629583.787670,-0.139873,0.127312,-0.004740,0.981939,-0.003764,-0.025113,0.006911,-0.003583,0.000123,0.001676,0.248700,0.275901,-0.928454
1760629583.792328,-0.139951,0.127000,-0.004674,0.981969,-0.000661,-0.029282,0.003792,-0.003567,-0.000331,0.002445,0.248112,0.276041,-0.928570
1760629583.826654,-0.139949,0.126759,-0.004586,0.982001,0.007733,-0.015205,0.010956,-0.003106,-0.002553,0.005922,0.247671,0.276022,-0.928693
1760629583.827276,-0.139899,0.126695,-0.004468,0.982017,0.004182,-0.005901,0.011981,-0.003495,-0.003208,0.003495,0.247582,0.275898,-0.928754
1760629583.857734,-0.139832,0.126661,-0.004311,0.982031,0.006012,-0.004151,0.017323,-0.003458,-0.001591,0.002307,0.247565,0.275731,-0.928808
1760629583.887786,-0.139768,0.126643,-0.004177,0.982043,-0.000889,-0.005049,0.011903,-0.003404,-0.000074,-0.000226,0.247571,0.275574,-0.928853
1760629583.888442,-0.139779,0.126559,-0.004104,0.982053,-0.002823,-0.006550,0.005341,-0.003697,-0.000438,0.000992,0.247428,0.275579,-0.928889
1760629583.918792,-0.139791,0.126520,-0.004039,0.982056,-0.003890,-0.007076,-0.000371,-0.002676,-0.001317,0.001117,0.247371,0.275587,-0.928902
1760629583.951470,-0.139823,0.126440,-0.004014,0.982062,0.001046,-0.000785,0.001870,-0.001950,-0.002493,0.002237,0.247222,0.275646,-0.928924
1760629583.952205,-0.139810,0.126382,-0.004011,0.982072,0.001311,0.002573,0.002314,-0.002036,0.000144,0.001784,0.247110,0.275621,-0.928962
1760629583.996214,-0.139808,0.126427,-0.003989,0.982066,-0.001899,0.003162,0.000329,-0.002508,0.000597,0.002113,0.247205,0.275610,-0.928940
1760629583.996517,-0.139806,0.126473,-0.003967,0.982061,-0.005110,0.003752,-0.001655,-0.002980,0.001050,0.002441,0.247299,0.275600,-0.928918
1760629584.076686,-0.139870,0.126521,-0.004094,0.982045,-0.003472,0.005086,-0.006105,-0.002706,0.000654,0.001934,0.247354,0.275753,-0.928858
1760629584.077028,-0.139933,0.126569,-0.004221,0.982029,-0.001834,0.006421,-0.010554,-0.002431,0.000259,0.001426,0.247408,0.275905,-0.928798
1760629584.077355,-0.139997,0.126618,-0.004349,0.982013,-0.000195,0.007755,-0.015004,-0.002157,-0.000137,0.000918,0.247463,0.276058,-0.928738
1760629584.077755,-0.140060,0.126666,-0.004476,0.981997,0.001443,0.009090,-0.019453,-0.001883,-0.000533,0.000410,0.247517,0.276211,-0.928678
1760629584.107499,-0.140035,0.126684,-0.004637,0.981998,0.004784,0.004198,-0.012162,-0.002465,-0.003259,0.001733,0.247509,0.276204,-0.928682
1760629584.108598,-0.139947,0.126696,-0.004733,0.982008,0.010569,0.002694,-0.002297,-0.002654,-0.003111,0.002522,0.247509,0.276058,-0.928725
1760629584.146359,-0.139881,0.126729,-0.004763,0.982013,0.004104,0.004960,0.002615,-0.001677,-0.001511,0.001220,0.247567,0.275937,-0.928746
1760629584.147242,-0.139886,0.126770,-0.004730,0.982008,-0.002379,0.000964,0.004413,-0.000420,-0.000275,-0.000992,0.247655,0.275938,-0.928722
1760629584.177485,-0.139913,0.126739,-0.004655,0.982008,-0.001741,0.000912,0.004405,-0.000814,-0.000923,0.004240,0.247614,0.275972,-0.928723
1760629584.184991,-0.139955,0.126716,-0.004646,0.982005,-0.006374,-0.003188,0.000484,-0.002667,-0.000976,-0.000210,0.247572,0.276051,-0.928711
1760629584.216512,-0.139972,0.126639,-0.004612,0.982013,0.001435,-0.004740,0.004810,-0.001091,-0.002281,0.002025,0.247432,0.276076,-0.928741
1760629584.246530,-0.139963,0.126559,-0.004557,0.982025,0.001839,-0.011517,-0.000344,-0.000985,0.001353,-0.001542,0.247293,0.276047,-0.928787
1760629584.247235,-0.139934,0.126441,-0.004537,0.982044,0.002802,-0.004346,-0.001522,0.000992,0.000520,0.007035,0.247072,0.275991,-0.928862
1760629584.281237,-0.139920,0.126452,-0.004589,0.982044,-0.001061,0.011981,-0.005549,-0.000769,-0.000242,0.005908,0.247078,0.275977,-0.928865
1760629584.282309,-0.139930,0.126576,-0.004626,0.982027,0.003192,0.010180,0.003451,-0.002670,-0.002841,0.001795,0.247307,0.276000,-0.928796
1760629584.312655,-0.139863,0.126602,-0.004572,0.982033,0.004290,-0.002882,0.004964,-0.002066,0.001730,-0.000900,0.247375,0.275857,-0.928821
1760629584.352366,-0.139873,0.126538,-0.004570,0.982040,0.002125,-0.011549,-0.000489,-0.001231,0.001136,0.001288,0.247252,0.275879,-0.928847
1760629584.363392,-0.139886,0.126454,-0.004536,0.982049,-0.005568,-0.009593,0.005085,-0.000649,-0.000740,0.000877,0.247100,0.275896,-0.928883
1760629584.363481,-0.139949,0.126325,-0.004444,0.982057,-0.005574,-0.014522,0.010862,-0.000737,-0.002958,0.001604,0.246873,0.275999,-0.928912
1760629584.394938,-0.140022,0.126157,-0.004253,0.982069,-0.009262,-0.017523,0.018492,-0.000251,-0.000296,-0.001130,0.246598,0.276096,-0.928957
1760629584.471788,-0.140099,0.125952,-0.004007,0.982086,-0.007153,-0.018649,0.017336,-0.000949,0.000061,-0.000231,0.246268,0.276188,-0.929017
1760629584.472108,-0.140176,0.125746,-0.003761,0.982102,-0.005045,-0.019774,0.016180,-0.001648,0.000418,0.000667,0.245937,0.276280,-0.929077
1760629584.472400,-0.140252,0.125541,-0.003515,0.982118,-0.002936,-0.020900,0.015024,-0.002346,0.000774,0.001565,0.245607,0.276371,-0.929137
1760629584.472774,-0.140329,0.125336,-0.003269,0.982134,-0.000827,-0.022026,0.013868,-0.003044,0.001131,0.002462,0.245276,0.276463,-0.929197
1760629584.501345,-0.140285,0.125122,-0.003147,0.982168,0.006723,-0.014070,0.014924,-0.002576,0.000624,0.004457,0.244899,0.276355,-0.929329
1760629584.502652,-0.140241,0.125029,-0.003024,0.982187,0.005891,-0.014071,0.007143,-0.004030,0.000112,0.000787,0.244755,0.276241,-0.929401
1760629584.532800,-0.140185,0.124855,-0.003007,0.982217,0.004055,-0.004795,0.002557,-0.002695,-0.003683,0.007378,0.244427,0.276135,-0.929519
1760629584.563683,-0.140164,0.124921,-0.003002,0.982212,-0.003087,0.008757,-0.001254,-0.003265,-0.004002,0.003598,0.244557,0.276092,-0.929497
1760629584.563854,-0.140201,0.125054,-0.003057,0.982189,-0.002854,0.009230,0.001328,-0.003222,-0.002558,0.000675,0.244795,0.276172,-0.929411
1760629584.596281,-0.140226,0.125108,-0.003056,0.982179,-0.003039,0.007742,-0.002670,-0.003991,0.000807,0.002647,0.244901,0.276218,-0.929369
1760629584.601214,-0.140351,0.125144,-0.003139,0.982156,-0.014988,0.002300,-0.010359,-0.004416,0.000710,-0.000044,0.244940,0.276479,-0.929281
1760629584.666339,-0.140585,0.125146,-0.003279,0.982122,-0.020104,0.004248,-0.011802,-0.002975,-0.001735,0.000553,0.244896,0.276963,-0.929149
1760629584.667985,-0.140818,0.125166,-0.003370,0.982086,-0.019415,0.004096,-0.008027,-0.001929,-0.003582,0.001538,0.244898,0.277434,-0.929008
1760629584.697343,-0.141016,0.125177,-0.003438,0.982056,-0.014948,0.005393,-0.004020,-0.002177,-0.002547,0.001340,0.244892,0.277832,-0.928890
1760629584.698307,-0.141158,0.125221,-0.003449,0.982030,-0.012192,0.005475,0.000042,-0.001536,-0.001409,0.000739,0.244967,0.278107,-0.928788
1760629584.729834,-0.141273,0.125221,-0.003455,0.982013,-0.011669,0.000048,-0.001112,-0.001006,-0.000777,0.001831,0.244962,0.278329,-0.928723
1760629584.784125,-0.141372,0.125237,-0.003457,0.981997,-0.012748,0.001316,-0.002872,-0.001091,0.000084,0.001957,0.244987,0.278519,-0.928659
1760629584.784452,-0.141471,0.125252,-0.003459,0.981981,-0.013828,0.002585,-0.004632,-0.001176,0.000945,0.002084,0.245012,0.278709,-0.928596
1760629584.784698,-0.141593,0.125270,-0.003493,0.981961,-0.013413,0.003519,-0.005653,-0.000875,-0.000019,0.001441,0.245031,0.278953,-0.928518
1760629584.812671,-0.141724,0.125282,-0.003521,0.981940,-0.013079,-0.002003,-0.004426,-0.001476,-0.000360,0.000153,0.245042,0.279210,-0.928437
1760629584.842543,-0.141851,0.125251,-0.003515,0.981926,-0.014261,-0.005888,-0.001387,-0.000711,-0.000173,0.000074,0.244977,0.279456,-0.928381
1760629584.843562,-0.142010,0.125180,-0.003484,0.981912,-0.017906,-0.008789,-0.000852,-0.001293,-0.000401,0.000197,0.244841,0.279756,-0.928326
1760629584.884450,-0.142231,0.125037,-0.003454,0.981898,-0.021852,-0.012440,0.001315,-0.001625,-0.002812,0.001841,0.244565,0.280176,-0.928272
1760629584.886451,-0.142440,0.124898,-0.003379,0.981886,-0.021447,-0.014958,0.007909,-0.002683,-0.004649,0.002435,0.244309,0.280564,-0.928222
1760629584.915211,-0.142602,0.124762,-0.003226,0.981880,-0.018266,-0.014399,0.012718,-0.002444,-0.002214,0.003911,0.244083,0.280840,-0.928198
1760629584.916871,-0.142766,0.124653,-0.003045,0.981871,-0.020272,-0.012226,0.011017,-0.001958,-0.000931,0.003811,0.243917,0.281115,-0.928159
1760629584.963340,-0.142916,0.124549,-0.002907,0.981862,-0.016838,-0.008190,0.009388,-0.000527,-0.000695,0.003597,0.243749,0.281373,-0.928125
1760629584.963677,-0.143040,0.124494,-0.002798,0.981852,-0.016008,-0.005770,0.004993,-0.002132,-0.001341,0.001651,0.243670,0.281584,-0.928082
1760629584.997409,-0.143168,0.124436,-0.002750,0.981841,-0.013810,-0.007915,0.000574,-0.003112,-0.003666,0.001993,0.243566,0.281820,-0.928037
1760629584.997710,-0.143291,0.124334,-0.002698,0.981836,-0.013010,-0.012902,0.002491,-0.001963,-0.000702,-0.000170,0.243378,0.282047,-0.928017
1760629585.028377,-0.143463,0.124164,-0.002681,0.981832,-0.022514,-0.013807,-0.005709,-0.000528,0.000971,0.004691,0.243047,0.282379,-0.928003
1760629585.057532,-0.143745,0.124085,-0.002744,0.981801,-0.034355,0.001387,-0.015949,-0.000617,-0.004403,0.006991,0.242864,0.282939,-0.927881
1760629585.059644,-0.144123,0.124078,-0.002888,0.981746,-0.040343,0.002695,-0.015003,-0.002913,-0.011968,0.001447,0.242793,0.283701,-0.927667
1760629585.089023,-0.144510,0.124038,-0.002934,0.981694,-0.035477,-0.006854,-0.003050,-0.002373,-0.017288,-0.002015,0.242687,0.284458,-0.927462
1760629585.111500,-0.144854,0.123917,-0.002882,0.981659,-0.031172,-0.014505,0.001499,-0.000856,-0.018111,0.000329,0.242453,0.285108,-0.927324
1760629585.141120,-0.145129,0.123811,-0.002770,0.981632,-0.027386,-0.007807,0.007385,-0.000211,-0.023694,0.004348,0.242269,0.285612,-0.927217
1760629585.141402,-0.145300,0.123745,-0.002628,0.981615,-0.023176,-0.005540,0.009710,-0.000941,-0.034178,0.004799,0.242177,0.285908,-0.927150
1760629585.170797,-0.145332,0.123658,-0.002439,0.981622,-0.006904,-0.007780,0.021083,0.000769,-0.053924,0.011236,0.242062,0.285925,-0.927175
1760629585.179002,-0.145091,0.123688,-0.002102,0.981654,0.025580,0.007665,0.043232,0.003853,-0.071720,0.020425,0.242229,0.285378,-0.927300
1760629585.196119,-0.144448,0.123942,-0.001594,0.981718,0.065353,0.032696,0.073280,0.004342,-0.077544,0.026901,0.242891,0.284009,-0.927547
1760629585.225087,-0.143493,0.124437,-0.000915,0.981797,0.075303,0.052644,0.085833,0.005035,-0.070614,0.027279,0.244081,0.281990,-0.927850
1760629585.262010,-0.142549,0.125170,-0.000202,0.981841,0.049465,0.065291,0.079357,0.005479,-0.056866,0.018257,0.245736,0.279971,-0.928025
1760629585.263438,-0.142038,0.125849,0.000288,0.981829,-0.008558,0.052894,0.036485,0.001606,-0.053814,0.018997,0.247206,0.278841,-0.927975
1760629585.299767,-0.142105,0.126418,0.000504,0.981746,-0.055494,0.043592,0.008528,-0.001892,-0.067904,0.023533,0.248363,0.278895,-0.927649
1760629585.301777,-0.142560,0.126942,0.000729,0.981612,-0.089136,0.049144,0.035213,-0.004596,-0.061615,0.015142,0.249424,0.279691,-0.927125
1760629585.357791,-0.144173,0.127172,0.001230,0.981346,-0.190300,0.011081,0.005215,-0.005971,-0.029603,0.006064,0.249954,0.282654,-0.926083
1760629585.358065,-0.145786,0.127400,0.001731,0.981077,-0.291465,-0.026982,-0.024784,-0.007348,0.002412,-0.003024,0.250484,0.285614,-0.925031
1760629585.358467,-0.148624,0.127153,0.001914,0.980683,-0.389531,-0.043102,-0.069482,-0.008552,0.004234,-0.002210,0.249962,0.291019,-0.923486
1760629585.389837,-0.152341,0.126511,0.001747,0.980196,-0.437713,-0.073073,-0.100173,-0.008210,-0.021169,0.001339,0.248544,0.298206,-0.921574
1760629585.396275,-0.156249,0.125667,0.001606,0.979689,-0.404315,-0.074653,-0.058825,-0.008216,-0.041289,0.004958,0.246731,0.305747,-0.919588
1760629585.426083,-0.159904,0.124827,0.001918,0.979206,-0.380052,-0.088057,-0.013804,-0.009218,-0.016653,-0.009255,0.245077,0.312680,-0.917698
1760629585.442769,-0.163501,0.123716,0.002411,0.978752,-0.381287,-0.120412,-0.028568,-0.010721,0.006489,0.003501,0.242963,0.319458,-0.915924
1760629585.472962,-0.167017,0.122489,0.002639,0.978312,-0.377483,-0.100006,-0.064980,-0.009933,0.003376,0.024424,0.240547,0.326143,-0.914204
1760629585.476949,-0.170313,0.121469,0.002499,0.977871,-0.347504,-0.084618,-0.087280,-0.009938,-0.019883,0.031375,0.238413,0.332481,-0.912478
1760629585.524649,-0.173197,0.120521,0.002331,0.977482,-0.276555,-0.074270,-0.056057,-0.011261,-0.033813,0.043345,0.236422,0.338033,-0.910955
1760629585.526905,-0.175527,0.119786,0.002333,0.977157,-0.215945,-0.056935,-0.036271,-0.014346,-0.022660,0.048218,0.234918,0.342476,-0.909683
1760629585.562008,-0.177442,0.119191,0.002256,0.976884,-0.172473,-0.045319,-0.047979,-0.014355,-0.015529,0.055303,0.233672,0.346143,-0.908616
1760629585.563246,-0.178998,0.118761,0.001949,0.976653,-0.147684,-0.016415,-0.065920,-0.012101,-0.013616,0.051178,0.232675,0.349176,-0.907711
1760629585.596576,-0.180377,0.118532,0.001429,0.976428,-0.141503,-0.008651,-0.088315,-0.009087,-0.010380,0.037318,0.231991,0.351912,-0.906829
1760629585.597285,-0.181825,0.118341,0.000671,0.976184,-0.141124,0.005178,-0.103420,-0.005523,-0.009156,0.019593,0.231289,0.354830,-0.905870
1760629585.628344,-0.183400,0.118184,-0.000231,0.975908,-0.159905,-0.003540,-0.115142,-0.007897,-0.001550,0.000473,0.230590,0.358018,-0.904794
1760629585.663555,-0.185744,0.117580,-0.001210,0.975537,-0.227300,-0.028818,-0.132700,-0.009788,0.005952,0.001510,0.228957,0.362685,-0.903348
1760629585.663877,-0.188086,0.116974,-0.002189,0.975159,-0.294695,-0.054096,-0.150257,-0.011667,0.013466,0.002525,0.227313,0.367341,-0.901881
1760629585.692448,-0.191355,0.116129,-0.003232,0.974621,-0.381835,-0.066398,-0.173398,-0.013415,0.023644,0.007437,0.225128,0.373749,-0.899794
1760629585.698996,-0.195562,0.115087,-0.004347,0.973905,-0.474283,-0.080852,-0.191002,-0.015250,0.036626,0.005208,0.222468,0.381919,-0.897020
1760629585.729015,-0.200742,0.113853,-0.005492,0.972990,-0.578286,-0.090315,-0.205278,-0.015296,0.049056,0.003886,0.219350,0.391891,-0.893480
1760629585.733070,-0.206984,0.112481,-0.006716,0.971834,-0.688710,-0.099372,-0.232649,-0.014684,0.062616,0.001554,0.215846,0.403819,-0.889011
1760629585.779991,-0.214384,0.111000,-0.008037,0.970389,-0.801109,-0.106301,-0.258265,-0.011574,0.076449,0.000243,0.211979,0.417857,-0.883437
1760629585.782357,-0.222879,0.109400,-0.009574,0.968641,-0.902874,-0.096745,-0.300629,-0.007051,0.084154,0.001317,0.207671,0.433875,-0.876713
1760629585.811424,-0.232260,0.107921,-0.011463,0.966580,-0.970990,-0.071069,-0.333282,-0.001584,0.075940,0.002149,0.203304,0.451470,-0.868816
1760629585.813433,-0.242073,0.106708,-0.013305,0.964281,-0.996628,-0.047837,-0.304586,-0.006394,0.098617,0.008858,0.199352,0.469691,-0.860028
1760629585.862187,-0.252328,0.105793,-0.015445,0.961717,-1.006489,-0.040458,-0.336748,-0.003142,0.098602,-0.004234,0.195692,0.488604,-0.850277
1760629585.862483,-0.262554,0.104866,-0.017582,0.959041,-1.016351,-0.033079,-0.368911,0.000234,0.098817,-0.017715,0.191908,0.507288,-0.840137
1760629585.891395,-0.272606,0.103722,-0.020139,0.956307,-0.978481,-0.027690,-0.413991,0.007889,0.076335,-0.009517,0.187399,0.525568,-0.829856
1760629585.893266,-0.281890,0.102693,-0.023082,0.953656,-0.857928,0.006127,-0.401545,0.008481,0.054374,0.000749,0.182855,0.542393,-0.819984
1760629585.932130,-0.289829,0.101942,-0.026055,0.951277,-0.717968,0.026996,-0.373527,0.003043,0.043689,-0.002710,0.178847,0.556727,-0.811214
1760629585.933994,-0.296337,0.101280,-0.028785,0.949262,-0.568863,0.011806,-0.333215,0.001427,0.043312,-0.007356,0.175222,0.568434,-0.803853
1760629585.962352,-0.301500,0.100516,-0.031311,0.947636,-0.451140,-0.009792,-0.311757,0.000625,0.037899,-0.012812,0.171624,0.577719,-0.797989
1760629585.997205,-0.305648,0.099581,-0.033735,0.946322,-0.358173,-0.016301,-0.294848,0.001987,0.030351,-0.004176,0.167849,0.585201,-0.793326
1760629585.999775,-0.308968,0.098709,-0.036064,0.945248,-0.284924,-0.011611,-0.276303,0.003108,0.020764,0.005043,0.164324,0.591223,-0.789590
1760629586.029087,-0.311637,0.097953,-0.038294,0.944363,-0.219888,-0.001551,-0.245972,0.001551,0.010070,0.022736,0.161138,0.596099,-0.786575
1760629586.042674,-0.313694,0.097484,-0.040287,0.943647,-0.173468,0.032132,-0.204661,0.001614,0.003726,0.026960,0.158705,0.599887,-0.784186
1760629586.072360,-0.315325,0.097452,-0.041986,0.943032,-0.139187,0.048716,-0.161173,-0.000441,0.003815,0.016477,0.157322,0.602908,-0.782146
1760629586.072726,-0.316658,0.097585,-0.043341,0.942511,-0.113500,0.049233,-0.122301,0.000543,0.004897,0.008438,0.156501,0.605365,-0.780410
1760629586.108587,-0.317764,0.097756,-0.044373,0.942072,-0.092100,0.029206,-0.098128,-0.002049,0.007216,0.008941,0.155986,0.607389,-0.778939
1760629586.109810,-0.318705,0.097789,-0.045201,0.941712,-0.073555,0.024469,-0.076910,-0.001159,-0.000306,0.019650,0.155367,0.609097,-0.777728
1760629586.163922,-0.319285,0.097926,-0.045586,0.941483,-0.064856,0.020485,-0.043913,0.000564,0.004068,0.014966,0.155282,0.610131,-0.776935
1760629586.164212,-0.319864,0.098064,-0.045971,0.941253,-0.056156,0.016500,-0.010915,0.002288,0.008444,0.010280,0.155197,0.611163,-0.776141
1760629586.171507,-0.320527,0.098209,-0.045994,0.941011,-0.082800,0.007400,0.004536,0.001346,0.019329,0.001829,0.155348,0.612273,-0.775235
1760629586.203647,-0.321520,0.098325,-0.045824,0.940669,-0.119429,-0.007899,0.013410,-0.000693,0.024699,-0.003080,0.155515,0.613898,-0.773915
1760629586.246116,-0.322927,0.098266,-0.045537,0.940206,-0.134024,-0.015132,0.015899,-0.003017,0.024742,-0.002206,0.155370,0.616186,-0.772123
1760629586.246551,-0.324335,0.098207,-0.045250,0.939742,-0.148618,-0.022364,0.018388,-0.005341,0.024790,-0.001339,0.155226,0.618469,-0.770325
1760629586.247137,-0.325765,0.098131,-0.044833,0.939275,-0.143172,-0.031454,0.029696,-0.004055,0.027511,-0.005424,0.155133,0.620765,-0.768495
1760629586.278373,-0.327092,0.098005,-0.044332,0.938851,-0.128979,-0.030019,0.029024,-0.002421,0.031809,-0.001135,0.155023,0.622871,-0.766812
1760629586.307773,-0.328273,0.097928,-0.043917,0.938466,-0.111471,-0.015915,0.021172,-0.003866,0.032451,0.000479,0.154971,0.624747,-0.765294
1760629586.309550,-0.329241,0.097912,-0.043691,0.938139,-0.082440,-0.000683,0.015625,-0.004809,0.029375,0.000207,0.154941,0.626303,-0.764027
1760629586.339083,-0.329866,0.097987,-0.043492,0.937921,-0.043585,0.003530,0.017323,-0.004338,0.029770,-0.006030,0.155115,0.627300,-0.763173
1760629586.368971,-0.330172,0.098047,-0.043345,0.937814,-0.005936,-0.004150,0.015205,-0.004653,0.027127,-0.007127,0.155276,0.627779,-0.762747
1760629586.387598,-0.330168,0.098028,-0.043183,0.937825,0.025341,-0.007880,0.017563,-0.004202,0.019736,0.000354,0.155351,0.627746,-0.762759
1760629586.388404,-0.329884,0.098016,-0.043024,0.937933,0.049780,-0.004779,0.020679,-0.002922,0.012246,0.003064,0.155480,0.627252,-0.763139
1760629586.418832,-0.329416,0.098021,-0.042862,0.938105,0.067906,-0.003319,0.026894,-0.001213,0.005852,0.003317,0.155669,0.626455,-0.763755
1760629586.461107,-0.328760,0.098011,-0.042672,0.938344,0.074341,-0.002521,0.029088,-0.000403,0.001931,0.003421,0.155879,0.625345,-0.764621
1760629586.461354,-0.328104,0.098002,-0.042482,0.938583,0.080777,-0.001723,0.031282,0.000407,-0.001989,0.003523,0.156089,0.624233,-0.765486
1760629586.489728,-0.327428,0.098021,-0.042187,0.938831,0.079427,-0.012206,0.038033,-0.000825,-0.006204,0.002383,0.156423,0.623069,-0.766366
1760629586.492112,-0.326702,0.097940,-0.041813,0.939109,0.085333,-0.023678,0.041361,-0.002081,-0.006010,0.003716,0.156632,0.621807,-0.767348
1760629586.521863,-0.325941,0.097739,-0.041409,0.939412,0.092030,-0.032533,0.042769,-0.002268,-0.009166,0.003159,0.156640,0.620480,-0.768420
1760629586.585972,-0.324691,0.097442,-0.040946,0.939896,0.125565,-0.035201,0.044277,-0.002224,-0.011009,0.004226,0.156581,0.618331,-0.770162
1760629586.586301,-0.323440,0.097145,-0.040483,0.940378,0.159101,-0.037869,0.045785,-0.002176,-0.012848,0.005288,0.156518,0.616178,-0.771898
1760629586.586767,-0.322189,0.096847,-0.040020,0.940858,0.192636,-0.040537,0.047292,-0.002125,-0.014683,0.006343,0.156451,0.614020,-0.773629
1760629586.588134,-0.320055,0.096610,-0.039496,0.941632,0.276478,-0.032598,0.070742,-0.002351,-0.004683,0.002393,0.156660,0.610380,-0.776463
1760629586.637436,-0.316486,0.096501,-0.038968,0.942871,0.377281,-0.026411,0.092202,-0.001182,0.004660,0.000688,0.157311,0.604332,-0.781048
1760629586.637679,-0.312913,0.096391,-0.038439,0.944096,0.478085,-0.020224,0.113662,-0.000001,0.014038,-0.001061,0.157949,0.598249,-0.785589
1760629586.669507,-0.308273,0.096400,-0.037809,0.945645,0.512793,-0.011643,0.113324,-0.002299,0.029452,-0.000105,0.159009,0.590324,-0.791350
1760629586.669846,-0.303565,0.096402,-0.037319,0.947186,0.502398,-0.010093,0.091019,-0.004570,0.034056,0.006317,0.159964,0.582261,-0.797110
1760629586.697897,-0.299086,0.096403,-0.037033,0.948621,0.461086,-0.003363,0.070915,-0.004686,0.035215,0.005488,0.160748,0.574579,-0.802508
1760629586.761426,-0.295918,0.096222,-0.037113,0.949630,0.399747,-0.008641,0.049161,-0.004588,0.027498,0.007759,0.160786,0.569168,-0.806347
1760629586.761679,-0.292747,0.096040,-0.037193,0.950627,0.338408,-0.013919,0.027406,-0.004487,0.019806,0.009994,0.160820,0.563732,-0.810150
1760629586.761880,-0.289573,0.095857,-0.037273,0.951614,0.277069,-0.019197,0.005652,-0.004383,0.012140,0.012193,0.160851,0.558270,-0.813917
1760629586.778037,-0.287397,0.095604,-0.037451,0.952292,0.225763,-0.018053,0.003660,-0.004582,0.001754,0.013676,0.160559,0.554532,-0.816526
1760629586.807670,-0.285784,0.095326,-0.037550,0.952801,0.173673,-0.020055,0.009787,-0.001710,-0.001702,0.013594,0.160191,0.551750,-0.818481
1760629586.809665,-0.284653,0.095085,-0.037548,0.953164,0.116310,-0.024396,0.013896,-0.003123,-0.007162,0.012421,0.159887,0.549782,-0.819863
1760629586.844853,-0.284047,0.094819,-0.037422,0.953376,0.050621,-0.024514,0.013937,-0.004607,-0.013357,0.014916,0.159538,0.548704,-0.820653
1760629586.845888,-0.283923,0.094657,-0.037235,0.953436,0.000635,-0.016857,0.018203,-0.004687,-0.019814,0.016189,0.159355,0.548455,-0.820855
1760629586.890972,-0.284124,0.094577,-0.036929,0.953397,-0.020946,-0.020836,0.036132,-0.003183,-0.026469,0.009553,0.159353,0.548751,-0.820658
1760629586.892980,-0.284326,0.094551,-0.036401,0.953359,-0.018570,-0.014675,0.058872,-0.001998,-0.023127,0.007426,0.159583,0.549014,-0.820437
1760629586.921609,-0.284510,0.094624,-0.035779,0.953321,-0.029101,-0.012408,0.062098,-0.001138,-0.017479,0.005540,0.160055,0.549230,-0.820201
1760629586.928781,-0.284685,0.094703,-0.035107,0.953285,-0.028351,-0.009964,0.060979,-0.001963,-0.011363,0.004528,0.160569,0.549422,-0.819971
1760629586.959412,-0.284834,0.094770,-0.034516,0.953256,-0.036341,-0.004888,0.042952,-0.002846,-0.003866,0.002385,0.161018,0.549582,-0.819776
1760629587.001397,-0.285159,0.094845,-0.034217,0.953162,-0.042145,-0.006805,0.023635,-0.002692,-0.001464,-0.001463,0.161290,0.550096,-0.819378
1760629587.001787,-0.285484,0.094919,-0.033918,0.953068,-0.047950,-0.008722,0.004318,-0.002539,0.000938,-0.005311,0.161563,0.550610,-0.818979
1760629587.002174,-0.285884,0.094796,-0.033865,0.952962,-0.045940,-0.015517,-0.015460,-0.001977,0.001469,-0.002375,0.161311,0.551294,-0.818568
1760629587.060627,-0.286206,0.094628,-0.034071,0.952875,-0.032096,-0.007409,-0.022120,-0.001228,-0.000284,-0.001517,0.160835,0.551885,-0.818263
1760629587.060852,-0.286528,0.094460,-0.034277,0.952788,-0.018253,0.000698,-0.028779,-0.000478,-0.002038,-0.000659,0.160358,0.552476,-0.817958
1760629587.062452,-0.286667,0.094340,-0.034533,0.952748,-0.006440,-0.003802,-0.024810,-0.000760,-0.001127,-0.000544,0.159965,0.552759,-0.817844
1760629587.091643,-0.286761,0.094224,-0.034780,0.952722,-0.008977,-0.001878,-0.032410,-0.002738,-0.002301,0.001677,0.159592,0.552962,-0.817779
1760629587.121978,-0.286912,0.094114,-0.035074,0.952677,-0.014540,-0.000826,-0.030100,-0.003116,-0.004421,0.002686,0.159195,0.553271,-0.817648
1760629587.123395,-0.287086,0.094043,-0.035335,0.952622,-0.014001,0.004863,-0.022826,-0.001958,-0.005562,0.002664,0.158886,0.553615,-0.817475
1760629587.153241,-0.287215,0.094008,-0.035503,0.952580,-0.007132,-0.001371,-0.006446,-0.003515,-0.004295,0.000974,0.158707,0.553866,-0.817340
1760629587.182595,-0.287302,0.093938,-0.035535,0.952560,-0.010763,-0.004799,-0.002645,-0.002099,-0.000357,0.000992,0.158544,0.554022,-0.817266
1760629587.186497,-0.287422,0.093854,-0.035550,0.952531,-0.014268,-0.004877,0.002008,-0.002304,-0.000740,0.002987,0.158362,0.554231,-0.817160
1760629587.221527,-0.287578,0.093846,-0.035482,0.952488,-0.013555,-0.000557,0.005898,-0.001489,-0.000498,0.003034,0.158366,0.554490,-0.816983
1760629587.222713,-0.287684,0.093865,-0.035429,0.952456,-0.016565,0.002810,0.005283,-0.002219,0.001928,0.003041,0.158420,0.554664,-0.816854
1760629587.251406,-0.287824,0.093928,-0.035354,0.952410,-0.019596,0.000814,0.007064,-0.003507,0.007094,0.005566,0.158564,0.554894,-0.816670
1760629587.281855,-0.288086,0.093979,-0.035304,0.952328,-0.029032,0.003008,0.003296,-0.002739,0.006431,0.003080,0.158656,0.555340,-0.816349
1760629587.293691,-0.288358,0.093979,-0.035278,0.952246,-0.026032,0.000311,-0.003937,-0.001225,0.005508,0.004032,0.158636,0.555806,-0.816036
1760629587.362193,-0.288605,0.094022,-0.035362,0.952164,-0.024976,0.001058,-0.004751,-0.001110,0.004560,0.002710,0.158637,0.556248,-0.815735
1760629587.362667,-0.288852,0.094065,-0.035446,0.952082,-0.023921,0.001805,-0.005565,-0.000995,0.003613,0.001389,0.158638,0.556690,-0.815433
1760629587.363025,-0.289099,0.094108,-0.035530,0.952000,-0.022865,0.002553,-0.006380,-0.000880,0.002666,0.000067,0.158639,0.557131,-0.815131
1760629587.363340,-0.289341,0.094092,-0.035613,0.951924,-0.015867,-0.000687,-0.007321,-0.000783,0.003349,0.001971,0.158528,0.557564,-0.814857
1760629587.393570,-0.289527,0.094094,-0.035720,0.951864,-0.012783,0.005760,-0.013528,0.002922,0.001794,0.002910,0.158445,0.557902,-0.814642
1760629587.423848,-0.289658,0.094132,-0.035891,0.951814,-0.009377,0.011320,-0.007699,-0.000091,-0.000722,0.003546,0.158400,0.558158,-0.814475
1760629587.424997,-0.289720,0.094218,-0.035988,0.951783,-0.004736,0.005846,-0.003848,-0.002111,-0.000004,-0.000292,0.158497,0.558282,-0.814371
1760629587.454980,-0.289825,0.094202,-0.036001,0.951752,-0.009725,-0.001710,0.000142,-0.003619,-0.002632,-0.002082,0.158446,0.558466,-0.814255
1760629587.461979,-0.290007,0.094150,-0.035966,0.951703,-0.019906,-0.013868,0.002349,-0.002202,-0.002913,-0.000229,0.158345,0.558774,-0.814063
1760629587.520837,-0.290172,0.094055,-0.035810,0.951668,-0.009916,-0.012065,0.016114,-0.003926,-0.002768,0.002140,0.158237,0.559031,-0.813907
1760629587.523385,-0.290282,0.093989,-0.035533,0.951651,-0.013732,-0.011144,0.020176,-0.003906,-0.001296,0.002063,0.158261,0.559173,-0.813805
1760629587.555480,-0.290402,0.093948,-0.035244,0.951629,-0.013689,-0.009303,0.023953,-0.004001,-0.000596,0.001336,0.158338,0.559332,-0.813681
1760629587.564287,-0.290503,0.093890,-0.034941,0.951615,-0.009556,-0.011446,0.025349,-0.004414,0.002214,0.000554,0.158393,0.559456,-0.813585
1760629587.596010,-0.290556,0.093813,-0.034667,0.951617,-0.005243,-0.012484,0.020707,-0.003882,0.003478,0.001128,0.158402,0.559500,-0.813553
1760629587.597097,-0.290612,0.093736,-0.034446,0.951615,-0.005585,-0.010839,0.014405,-0.003299,0.004205,0.003499,0.158380,0.559559,-0.813516
1760629587.667350,-0.290674,0.093632,-0.034303,0.951612,-0.001997,-0.011047,0.011822,-0.003575,0.003298,0.003449,0.158260,0.559641,-0.813484
1760629587.667599,-0.290735,0.093528,-0.034160,0.951608,0.001592,-0.011254,0.009240,-0.003852,0.002392,0.003400,0.158141,0.559722,-0.813451
1760629587.669077,-0.290747,0.093462,-0.034040,0.951616,0.004368,-0.005001,0.007507,-0.002660,0.002014,0.004974,0.158085,0.559722,-0.813462
1760629587.697668,-0.290744,0.093464,-0.033981,0.951618,0.001892,0.003546,0.007702,-0.002110,0.002954,0.004599,0.158124,0.559707,-0.813465
1760629587.699383,-0.290789,0.093518,-0.033946,0.951601,-0.008119,0.005504,0.002712,-0.002418,0.002463,0.002372,0.158242,0.559778,-0.813393
1760629587.734141,-0.290936,0.093563,-0.033960,0.951551,-0.016160,0.006142,0.000079,-0.002279,0.001181,0.000938,0.158299,0.560035,-0.813205
1760629587.763961,-0.291139,0.093589,-0.033965,0.951486,-0.017336,0.001990,-0.000636,-0.000913,0.000235,0.000803,0.158320,0.560387,-0.812958
1760629587.782596,-0.291319,0.093573,-0.033939,0.951433,-0.011659,-0.003284,0.003388,-0.001154,0.001402,0.001900,0.158283,0.560693,-0.812754
1760629587.782888,-0.291463,0.093535,-0.033879,0.951395,-0.011922,-0.004464,0.003469,-0.000433,0.000697,0.001616,0.158229,0.560932,-0.812600
1760629587.815231,-0.291616,0.093489,-0.033822,0.951355,-0.014978,-0.004460,0.006899,-0.000831,-0.000656,0.001647,0.158157,0.561184,-0.812440
1760629587.816064,-0.291756,0.093488,-0.033711,0.951316,-0.013392,-0.002675,0.010197,-0.000652,-0.000397,0.002305,0.158202,0.561408,-0.812276
1760629587.867438,-0.291867,0.093498,-0.033569,0.951286,-0.011178,-0.002569,0.011941,-0.000623,0.000945,0.002692,0.158292,0.561576,-0.812143
1760629587.867764,-0.291978,0.093509,-0.033428,0.951256,-0.008963,-0.002464,0.013685,-0.000594,0.002287,0.003079,0.158382,0.561743,-0.812010
1760629587.917016,-0.292067,0.093494,-0.033308,0.951234,-0.008640,-0.004074,0.008948,-0.000827,0.002103,0.002772,0.158412,0.561877,-0.811911
1760629587.917382,-0.292156,0.093478,-0.033188,0.951212,-0.008317,-0.005684,0.004210,-0.001059,0.001918,0.002464,0.158443,0.562010,-0.811813
1760629587.918994,-0.292217,0.093458,-0.033109,0.951199,-0.004795,-0.002930,0.002094,-0.000815,0.001159,0.003062,0.158444,0.562101,-0.811750
1760629587.960606,-0.292253,0.093413,-0.033073,0.951193,-0.000585,-0.003179,0.000037,-0.000433,0.000903,0.001765,0.158376,0.562158,-0.811724
1760629587.962110,-0.292267,0.093355,-0.033047,0.951195,0.000921,-0.004232,0.001505,-0.000998,0.001336,0.001259,0.158280,0.562176,-0.811730
1760629588.003124,-0.292270,0.093291,-0.033026,0.951202,-0.001114,-0.004018,0.001018,-0.000397,0.001018,0.001691,0.158172,0.562177,-0.811751
1760629588.005157,-0.292335,0.093208,-0.033001,0.951191,-0.007225,-0.009664,-0.000432,-0.001249,0.000500,0.001307,0.158023,0.562285,-0.811705
1760629588.033763,-0.292426,0.093109,-0.032952,0.951174,-0.010125,-0.009844,0.002691,-0.000907,-0.001908,0.001131,0.157855,0.562432,-0.811635
1760629588.035826,-0.292528,0.093033,-0.032880,0.951152,-0.006956,-0.006007,0.003986,-0.000754,-0.002988,0.001052,0.157741,0.562596,-0.811544
1760629588.068823,-0.292610,0.092935,-0.032789,0.951140,-0.006186,-0.011011,0.008119,-0.001747,-0.001794,0.001486,0.157599,0.562720,-0.811486
1760629588.113798,-0.292681,0.092809,-0.032650,0.951135,-0.008514,-0.011188,0.005600,-0.001173,0.000140,0.003161,0.157436,0.562818,-0.811449
1760629588.114252,-0.292752,0.092683,-0.032512,0.951130,-0.010842,-0.011365,0.003080,-0.000598,0.002075,0.004835,0.157272,0.562917,-0.811412
1760629588.114700,-0.292843,0.092618,-0.032458,0.951111,-0.013342,-0.002889,-0.003754,-0.000625,0.002829,0.007198,0.157170,0.563064,-0.811330
1760629588.145762,-0.292966,0.092636,-0.032506,0.951069,-0.012683,0.005529,-0.008040,-0.000400,0.002007,0.003893,0.157160,0.563284,-0.811180
1760629588.174959,-0.293089,0.092627,-0.032616,0.951029,-0.010929,-0.000255,-0.012842,-0.001765,0.001578,0.000693,0.157063,0.563514,-0.811038
1760629588.179041,-0.293209,0.092536,-0.032754,0.950996,-0.010086,-0.006887,-0.015527,-0.002171,0.001037,-0.000303,0.156796,0.563742,-0.810931
1760629588.223872,-0.293397,0.092394,-0.032899,0.950946,-0.014028,-0.012012,-0.018315,-0.002314,-0.000439,0.000529,0.156418,0.564089,-0.810763
1760629588.224758,-0.293599,0.092220,-0.033013,0.950897,-0.015695,-0.013372,-0.010693,-0.002464,-0.002359,0.001366,0.155998,0.564453,-0.810591
1760629588.262816,-0.293782,0.092069,-0.033008,0.950855,-0.016252,-0.013911,0.000616,-0.003254,-0.002158,0.002996,0.155694,0.564767,-0.810431
1760629588.263136,-0.293941,0.091950,-0.032904,0.950821,-0.014940,-0.013627,0.008392,-0.003100,0.000203,0.003904,0.155512,0.565022,-0.810287
1760629588.292584,-0.294090,0.091845,-0.032758,0.950791,-0.016850,-0.010085,0.011058,-0.002158,0.001915,0.003709,0.155382,0.565253,-0.810151
1760629588.293637,-0.294252,0.091786,-0.032616,0.950751,-0.018028,-0.007874,0.011378,-0.002019,0.003399,0.003628,0.155338,0.565507,-0.809982
1760629588.332705,-0.294408,0.091755,-0.032488,0.950710,-0.018427,-0.006915,0.004918,-0.001871,0.005331,0.003103,0.155335,0.565756,-0.809809
1760629588.333582,-0.294608,0.091683,-0.032448,0.950656,-0.020366,-0.003666,-0.002580,-0.001114,0.005072,0.004896,0.155199,0.566092,-0.809601
1760629588.363774,-0.294808,0.091616,-0.032495,0.950599,-0.017237,-0.005327,-0.010265,-0.002112,0.002808,0.000969,0.155021,0.566442,-0.809390
1760629588.377301,-0.295004,0.091512,-0.032568,0.950546,-0.013418,-0.004298,-0.009721,-0.000482,0.001258,0.002826,0.154757,0.566790,-0.809197
1760629588.406335,-0.295164,0.091469,-0.032639,0.950498,-0.011703,0.000522,-0.007236,0.000511,-0.000566,0.003173,0.154614,0.567076,-0.809023
1760629588.443830,-0.295334,0.091445,-0.032692,0.950446,-0.015840,-0.000331,-0.005276,0.000197,-0.000120,0.001724,0.154517,0.567377,-0.808831
1760629588.444157,-0.295505,0.091421,-0.032745,0.950393,-0.019976,-0.001185,-0.003315,-0.000117,0.000327,0.000275,0.154420,0.567678,-0.808638
1760629588.473794,-0.295721,0.091377,-0.032753,0.950330,-0.022529,-0.005354,-0.000510,-0.000242,0.000505,-0.000304,0.154306,0.568051,-0.808398
1760629588.474908,-0.295928,0.091290,-0.032734,0.950274,-0.020256,-0.009450,0.000220,0.000032,0.000239,0.000710,0.154127,0.568402,-0.808186
1760629588.505122,-0.296102,0.091215,-0.032669,0.950230,-0.013406,-0.008192,0.003719,-0.000220,-0.000431,0.001619,0.154003,0.568689,-0.808007
1760629588.568854,-0.296127,0.091130,-0.032603,0.950232,-0.008290,-0.008275,0.002979,-0.000849,0.000263,0.001636,0.153880,0.568721,-0.808008
1760629588.569355,-0.296152,0.091046,-0.032538,0.950235,-0.003175,-0.008358,0.002238,-0.001477,0.000956,0.001652,0.153757,0.568753,-0.808009
1760629588.569667,-0.296178,0.090961,-0.032472,0.950237,0.001941,-0.008441,0.001497,-0.002106,0.001650,0.001668,0.153634,0.568786,-0.808010
1760629588.600151,-0.296169,0.090885,-0.032425,0.950249,0.002341,-0.006284,0.003950,-0.002855,0.002196,0.003042,0.153521,0.568762,-0.808048
1760629588.601108,-0.296187,0.090808,-0.032394,0.950251,-0.001974,-0.006945,-0.001338,-0.002999,0.001544,0.002713,0.153392,0.568788,-0.808054
1760629588.631913,-0.296234,0.090774,-0.032391,0.950240,-0.003098,-0.000642,-0.002864,-0.002910,0.000435,0.001733,0.153324,0.568868,-0.808011
1760629588.634082,-0.296336,0.090727,-0.032448,0.950211,-0.008965,-0.003753,-0.007609,-0.003452,-0.000174,0.001464,0.153189,0.569052,-0.807907
1760629588.675828,-0.296459,0.090641,-0.032542,0.950177,-0.009125,-0.002398,-0.008044,-0.003619,-0.001771,0.002753,0.152956,0.569277,-0.807792
1760629588.677845,-0.296556,0.090598,-0.032572,0.950150,-0.007155,-0.004003,-0.000417,-0.003609,-0.002799,0.002796,0.152844,0.569448,-0.807693
1760629588.706358,-0.296625,0.090525,-0.032555,0.950136,-0.005196,-0.006968,0.004985,-0.003507,-0.001749,0.002279,0.152708,0.569563,-0.807638
1760629588.713902,-0.296702,0.090417,-0.032468,0.950126,-0.008559,-0.007542,0.007552,-0.003396,-0.001809,0.001654,0.152548,0.569680,-0.807585
1760629588.744173,-0.296813,0.090369,-0.032349,0.950100,-0.016291,-0.005237,0.006652,-0.002253,-0.000994,0.001667,0.152516,0.569850,-0.807471
1760629588.778229,-0.296966,0.090311,-0.032257,0.950060,-0.019947,-0.006588,0.004767,-0.003088,-0.001586,0.000551,0.152443,0.570097,-0.807311
1760629588.780295,-0.297149,0.090215,-0.032201,0.950014,-0.016199,-0.007272,0.001515,-0.000589,-0.001810,0.000634,0.152275,0.570401,-0.807128
1760629588.811529,-0.297278,0.090162,-0.032162,0.949980,-0.009472,-0.003805,-0.000647,-0.002770,-0.002437,0.001618,0.152182,0.570616,-0.806993
1760629588.811713,-0.297334,0.090065,-0.032164,0.949972,-0.000754,-0.005252,-0.001327,-0.002340,-0.001304,0.003548,0.151991,0.570711,-0.806962
1760629588.862447,-0.297315,0.090015,-0.032201,0.949981,0.000305,-0.005221,-0.005273,-0.000131,0.000801,0.002974,0.151877,0.570684,-0.807002
1760629588.862721,-0.297296,0.089964,-0.032238,0.949991,0.001364,-0.005190,-0.009218,0.002078,0.002906,0.002400,0.151762,0.570658,-0.807043
1760629588.891509,-0.297266,0.089963,-0.032390,0.949995,0.000392,0.010870,-0.019535,0.000936,0.002505,0.001154,0.151672,0.570631,-0.807079
1760629588.893404,-0.297256,0.089962,-0.032662,0.949989,0.003270,0.007587,-0.021186,-0.001626,0.001161,-0.002145,0.151508,0.570657,-0.807091
1760629588.925985,-0.297225,0.089932,-0.032881,0.949994,0.008829,-0.002736,-0.021040,-0.001646,0.000501,-0.002889,0.151323,0.570638,-0.807139
1760629588.954221,-0.297138,0.089814,-0.033075,0.950025,0.013051,-0.007310,-0.017521,-0.001551,-0.000669,-0.000268,0.150996,0.570519,-0.807284
1760629588.955141,-0.297042,0.089687,-0.033204,0.950063,0.015490,-0.005488,-0.011955,-0.001446,-0.003994,0.003571,0.150690,0.570373,-0.807445
1760629589.003630,-0.296873,0.089631,-0.033203,0.950121,0.016562,-0.003767,0.000333,-0.001316,-0.004005,0.003693,0.150607,0.570083,-0.807665
1760629589.003939,-0.296704,0.089576,-0.033201,0.950179,0.017635,-0.002046,0.012620,-0.001187,-0.004016,0.003815,0.150524,0.569793,-0.807885
1760629589.032406,-0.296510,0.089591,-0.033100,0.950242,0.018844,0.003803,0.015145,-0.001341,-0.001577,0.003280,0.150637,0.569444,-0.808110
1760629589.033612,-0.296341,0.089631,-0.032991,0.950295,0.015924,-0.000497,0.009971,-0.001203,0.000256,0.002063,0.150799,0.569136,-0.808297
1760629589.064900,-0.296210,0.089608,-0.032938,0.950339,0.010040,-0.003480,0.001434,-0.002259,0.002481,0.002745,0.150803,0.568904,-0.808460
1760629589.070667,-0.296129,0.089541,-0.032971,0.950370,0.004805,-0.005532,-0.006461,-0.000693,0.001758,0.002733,0.150666,0.568769,-0.808580
1760629589.117661,-0.296117,0.089490,-0.033080,0.950375,0.002346,-0.002188,-0.009557,-0.001163,0.000778,0.001731,0.150507,0.568764,-0.808613
1760629589.117956,-0.296104,0.089439,-0.033190,0.950380,-0.000114,0.001156,-0.012652,-0.001633,-0.000202,0.000729,0.150347,0.568760,-0.808646
1760629589.159912,-0.296112,0.089454,-0.033344,0.950370,0.001095,0.005310,-0.011871,-0.001192,-0.001105,-0.000362,0.150281,0.568797,-0.808632
1760629589.160244,-0.296119,0.089468,-0.033499,0.950361,0.002304,0.009464,-0.011091,-0.000751,-0.002009,-0.001453,0.150215,0.568835,-0.808618
1760629589.199851,-0.296079,0.089506,-0.033597,0.950367,0.004993,0.006723,-0.008241,-0.000659,-0.000936,-0.001701,0.150233,0.568782,-0.808652
1760629589.200110,-0.296039,0.089544,-0.033695,0.950372,0.007681,0.003982,-0.005391,-0.000568,0.000136,-0.001948,0.150250,0.568729,-0.808686
1760629589.230004,-0.295985,0.089531,-0.033757,0.950388,0.007220,-0.002464,-0.005132,-0.001632,-0.000454,-0.001300,0.150195,0.568646,-0.808754
1760629589.230804,-0.295940,0.089456,-0.033810,0.950407,0.003875,-0.006391,-0.001405,-0.001540,-0.001020,0.000368,0.150028,0.568575,-0.808835
1760629589.261305,-0.295922,0.089386,-0.033811,0.950419,-0.000662,-0.006542,-0.001922,-0.001308,-0.003769,0.001434,0.149897,0.568545,-0.808880
1760629589.291354,-0.295914,0.089356,-0.033782,0.950426,-0.000537,0.002421,0.005511,0.000674,-0.002268,0.003886,0.149860,0.568525,-0.808901
1760629589.292252,-0.295877,0.089385,-0.033730,0.950436,0.000848,0.005257,0.007259,0.000415,-0.001051,0.001517,0.149950,0.568454,-0.808934
1760629589.336362,-0.295781,0.089404,-0.033713,0.950465,0.005566,0.002219,0.001022,0.000531,0.000118,0.001386,0.150007,0.568288,-0.809041
1760629589.336683,-0.295686,0.089422,-0.033696,0.950494,0.010285,-0.000819,-0.005215,0.000647,0.001287,0.001254,0.150064,0.568121,-0.809147
1760629589.366236,-0.295573,0.089419,-0.033747,0.950527,0.011828,-0.003662,-0.008852,0.000147,0.001407,0.002361,0.150041,0.567936,-0.809281
1760629589.367396,-0.295474,0.089330,-0.033862,0.950562,0.012447,-0.000998,-0.011023,0.000352,0.000447,0.002637,0.149816,0.567782,-0.809431
1760629589.402365,-0.295360,0.089258,-0.033964,0.950601,0.012048,-0.003839,-0.012360,0.000244,0.000160,0.001671,0.149635,0.567601,-0.809591
1760629589.403628,-0.295277,0.089154,-0.034107,0.950631,0.009682,-0.008614,-0.015334,0.000304,-0.000436,0.000915,0.149363,0.567481,-0.809726
1760629589.460168,-0.295268,0.089029,-0.034192,0.950643,0.006624,-0.009545,-0.011038,0.000204,-0.001820,0.000286,0.149077,0.567477,-0.809781
1760629589.460467,-0.295258,0.088904,-0.034278,0.950654,0.003566,-0.010477,-0.006741,0.000103,-0.003204,-0.000344,0.148792,0.567472,-0.809837
1760629589.467174,-0.295269,0.088782,-0.034316,0.950661,0.002219,-0.001878,-0.001754,0.000197,-0.004617,0.002803,0.148539,0.567495,-0.809868
1760629589.496109,-0.295258,0.088722,-0.034230,0.950673,-0.001155,-0.012323,0.004824,-0.002053,-0.003422,0.002696,0.148478,0.567461,-0.809903
1760629589.556293,-0.295298,0.088667,-0.034113,0.950670,-0.000204,-0.006118,0.007851,-0.001027,-0.003134,0.002704,0.148439,0.567511,-0.809875
1760629589.556631,-0.295338,0.088612,-0.033996,0.950667,0.000747,0.000086,0.010878,-0.000001,-0.002847,0.002713,0.148401,0.567560,-0.809847
1760629589.556920,-0.295378,0.088557,-0.033879,0.950664,0.001698,0.006290,0.013905,0.001025,-0.002559,0.002721,0.148362,0.567610,-0.809819
1760629589.586208,-0.295345,0.088617,-0.033757,0.950673,0.000801,0.004897,0.012606,-0.001799,-0.002348,-0.000165,0.148551,0.567535,-0.809837
1760629589.588439,-0.295324,0.088638,-0.033618,0.950682,0.001525,-0.006764,0.015014,-0.002556,-0.001199,0.000342,0.148677,0.567478,-0.809854
1760629589.618486,-0.295315,0.088631,-0.033425,0.950692,-0.002507,-0.006956,0.014900,-0.002447,-0.001472,0.000992,0.148780,0.567433,-0.809867
1760629589.648819,-0.295328,0.088620,-0.033235,0.950696,-0.008791,-0.006464,0.013426,-0.001329,-0.002340,0.000991,0.148871,0.567425,-0.809856
1760629589.650068,-0.295412,0.088593,-0.033041,0.950680,-0.011165,-0.004398,0.020077,-0.002516,-0.003565,0.000687,0.148926,0.567538,-0.809766
1760629589.681040,-0.295456,0.088569,-0.032834,0.950675,-0.004100,-0.001510,0.020032,-0.003281,-0.001586,0.001753,0.148999,0.567581,-0.809723
1760629589.710424,-0.295513,0.088592,-0.032620,0.950663,-0.006633,-0.004664,0.020791,-0.002931,-0.000464,0.001255,0.149162,0.567646,-0.809648
1760629589.712046,-0.295567,0.088611,-0.032373,0.950653,-0.005559,-0.004711,0.020666,-0.002284,-0.000070,-0.000094,0.149341,0.567700,-0.809577
1760629589.763438,-0.295655,0.088591,-0.032182,0.950634,-0.010590,-0.006420,0.015140,-0.002997,0.001369,0.000787,0.149405,0.567821,-0.809480
1760629589.763686,-0.295742,0.088570,-0.031992,0.950615,-0.015621,-0.008129,0.009614,-0.003710,0.002809,0.001668,0.149469,0.567941,-0.809383
1760629589.764386,-0.295885,0.088511,-0.031881,0.950580,-0.013431,-0.003706,0.004484,-0.002313,0.001083,0.001675,0.149408,0.568168,-0.809236
1760629589.783275,-0.296026,0.088468,-0.031836,0.950541,-0.014908,-0.007339,0.005369,-0.003503,0.000968,-0.001089,0.149336,0.568403,-0.809084
1760629589.805425,-0.296127,0.088423,-0.031769,0.950516,-0.007861,-0.004213,0.003006,-0.003325,0.001067,0.000827,0.149280,0.568566,-0.808980
1760629589.846080,-0.296187,0.088387,-0.031703,0.950503,-0.006798,0.003766,0.007097,-0.000757,0.001928,0.001878,0.149243,0.568658,-0.808922
1760629589.847158,-0.296263,0.088493,-0.031594,0.950473,-0.007895,0.017054,0.024213,0.000722,0.018821,-0.006252,0.149500,0.568771,-0.808795
1760629589.890848,-0.296407,0.088685,-0.031399,0.950417,-0.031038,0.006113,0.016052,0.000943,0.045262,-0.029298,0.149961,0.568990,-0.808556
1760629589.892113,-0.296749,0.088635,-0.031345,0.950316,-0.030080,-0.008004,-0.008293,0.001429,0.057755,-0.027879,0.149860,0.569567,-0.808168
1760629589.923411,-0.296960,0.088467,-0.031437,0.950263,-0.002015,-0.017116,-0.023864,0.001220,0.060483,-0.021546,0.149464,0.569942,-0.807977
1760629589.925242,-0.296832,0.088181,-0.031691,0.950321,0.045900,-0.020120,-0.028721,-0.000583,0.059560,-0.017357,0.148787,0.569760,-0.808230
1760629589.953567,-0.296228,0.087803,-0.031973,0.950535,0.096909,-0.032562,-0.036919,-0.003018,0.058052,-0.010845,0.147978,0.568765,-0.809079
1760629589.984547,-0.295200,0.087356,-0.032350,0.950883,0.143201,-0.030740,-0.034152,-0.003456,0.049964,-0.004693,0.147032,0.567054,-0.810451
1760629589.986795,-0.293819,0.086850,-0.032729,0.951344,0.179670,-0.034452,-0.032227,-0.003144,0.042010,0.000663,0.146017,0.564731,-0.812255
1760629590.006520,-0.292113,0.086439,-0.033056,0.951896,0.210121,-0.020503,-0.024150,-0.001695,0.037075,0.006901,0.145249,0.561836,-0.814397
1760629590.061021,-0.289987,0.086108,-0.033327,0.952566,0.242027,-0.017388,-0.010443,-0.002317,0.031719,0.004875,0.144718,0.558203,-0.816986
1760629590.061362,-0.287860,0.085776,-0.033598,0.953231,0.273933,-0.014274,0.003265,-0.002939,0.026375,0.002832,0.144186,0.554559,-0.819558
1760629590.062656,-0.285246,0.085552,-0.033689,0.954034,0.311759,-0.017148,0.023754,-0.003574,0.022383,0.003594,0.144020,0.550033,-0.822631
1760629590.091220,-0.282311,0.085388,-0.033553,0.954926,0.347872,-0.015771,0.052721,-0.005581,0.020081,0.005360,0.144134,0.544902,-0.826019
1760629590.123633,-0.279100,0.085261,-0.033298,0.955890,0.367249,-0.018228,0.057376,-0.004652,0.020283,0.006611,0.144414,0.539256,-0.829667
1760629590.124834,-0.275744,0.085170,-0.032998,0.956882,0.382075,-0.011059,0.071100,-0.004222,0.016279,0.006827,0.144796,0.533330,-0.833422
1760629590.155250,-0.272240,0.085089,-0.032581,0.957906,0.393933,-0.015340,0.081029,-0.004992,0.024848,0.001847,0.145275,0.527105,-0.837290
1760629590.160963,-0.268677,0.084973,-0.032133,0.958937,0.391945,-0.019164,0.071292,-0.004289,0.030395,-0.007492,0.145700,0.520750,-0.841184
1760629590.191019,-0.265180,0.084735,-0.031834,0.959941,0.391569,-0.027843,0.052427,-0.006427,0.021427,-0.003003,0.145798,0.514510,-0.844999
1760629590.227416,-0.261571,0.084519,-0.031641,0.960956,0.415546,-0.020123,0.053189,-0.007154,0.010977,0.003204,0.145885,0.508065,-0.848874
1760629590.234725,-0.257702,0.084379,-0.031416,0.962020,0.444352,-0.009115,0.071681,-0.006675,0.002298,0.007825,0.146156,0.501132,-0.852939
1760629590.263606,-0.253605,0.084349,-0.031090,0.963122,0.459838,-0.005375,0.081999,-0.010096,-0.003325,0.007328,0.146709,0.493749,-0.857140
1760629590.264772,-0.249331,0.084450,-0.030571,0.964245,0.462074,0.009806,0.111680,-0.008806,0.000679,0.004826,0.147616,0.485995,-0.861405
1760629590.300893,-0.245202,0.084690,-0.029944,0.965302,0.436531,0.017368,0.111175,-0.006739,0.003578,-0.001942,0.148817,0.478460,-0.865407
1760629590.360952,-0.241375,0.085189,-0.029434,0.966237,0.425789,0.032858,0.103127,-0.006294,-0.000220,0.005746,0.150417,0.471467,-0.868961
1760629590.361318,-0.237545,0.085688,-0.028923,0.967157,0.415047,0.048347,0.095080,-0.005837,-0.003988,0.013378,0.152006,0.464443,-0.872460
1760629590.361887,-0.233629,0.086417,-0.028472,0.968059,0.427258,0.084758,0.107536,-0.003436,-0.005135,0.018926,0.154010,0.457255,-0.875899
1760629590.394068,-0.229560,0.087494,-0.028032,0.968949,0.431775,0.114862,0.109766,-0.001327,0.004259,0.006081,0.156684,0.449768,-0.879294
1760629590.422685,-0.225485,0.088712,-0.027706,0.969804,0.429902,0.133510,0.100600,0.002005,0.012606,0.004932,0.159571,0.442269,-0.882573
1760629590.426420,-0.221447,0.090069,-0.027531,0.970614,0.422302,0.147927,0.079674,-0.000008,0.018845,0.005895,0.162651,0.434838,-0.885698
1760629590.476373,-0.217485,0.091524,-0.027667,0.971369,0.427228,0.144186,0.066457,-0.002046,0.011483,0.002650,0.165772,0.427581,-0.888647
1760629590.476678,-0.213520,0.092976,-0.027801,0.972107,0.432154,0.140446,0.053241,-0.004085,0.004147,-0.000663,0.168893,0.420298,-0.891530
1760629590.477237,-0.209444,0.094261,-0.028015,0.972864,0.454968,0.116055,0.052766,-0.005133,-0.007361,0.007178,0.171672,0.412802,-0.894496
1760629590.507369,-0.205108,0.095405,-0.028129,0.973672,0.479617,0.119333,0.072941,-0.002031,-0.010612,0.020842,0.174248,0.404782,-0.897657
1760629590.539947,-0.200578,0.096643,-0.028160,0.974492,0.483348,0.142481,0.077019,0.001080,-0.004046,0.020952,0.177059,0.396366,-0.900857
1760629590.541053,-0.196020,0.098011,-0.028215,0.975281,0.479339,0.147871,0.072106,0.001390,-0.001659,0.015736,0.180115,0.387880,-0.903940
1760629590.576085,-0.191434,0.099352,-0.028331,0.976053,0.480737,0.145446,0.066557,-0.001406,-0.006086,0.013970,0.183099,0.379328,-0.906965
1760629590.578538,-0.186803,0.100615,-0.028483,0.976816,0.489162,0.128469,0.059087,-0.003438,-0.013815,0.023838,0.185923,0.370676,-0.909963
1760629590.609897,-0.182068,0.101864,-0.028665,0.977575,0.501317,0.140071,0.057747,-0.001031,-0.022525,0.031958,0.188721,0.361810,-0.912950
1760629590.669048,-0.177089,0.103104,-0.028846,0.978354,0.504500,0.131957,0.057556,-0.001133,-0.021960,0.030487,0.191529,0.352459,-0.916018
1760629590.669400,-0.172104,0.104342,-0.029025,0.979107,0.507682,0.123843,0.057365,-0.001233,-0.021362,0.028914,0.194334,0.343074,-0.918986
1760629590.669750,-0.167115,0.105577,-0.029204,0.979833,0.510865,0.115728,0.057174,-0.001329,-0.020732,0.027241,0.197135,0.333656,-0.921852
1760629590.699719,-0.162183,0.106705,-0.029391,0.980534,0.493052,0.102384,0.050006,-0.001855,-0.022543,0.019499,0.199722,0.324324,-0.924622
1760629590.705170,-0.157445,0.107573,-0.029626,0.981204,0.473611,0.079908,0.041659,-0.001553,-0.033796,0.015202,0.201773,0.315345,-0.927278
1760629590.735347,-0.152817,0.108209,-0.029748,0.981862,0.471793,0.049024,0.059675,-0.001429,-0.046491,0.011694,0.203401,0.306528,-0.929876
1760629590.765614,-0.148089,0.108573,-0.029614,0.982550,0.486803,0.031360,0.087752,0.002348,-0.053477,0.016405,0.204586,0.297441,-0.932563
1760629590.765940,-0.143168,0.108897,-0.029166,0.983257,0.501351,0.030549,0.126551,0.005397,-0.057026,0.012278,0.205796,0.287894,-0.935289
1760629590.798647,-0.138083,0.109207,-0.028337,0.983974,0.505180,0.012481,0.160126,0.004084,-0.057558,0.013438,0.207088,0.277929,-0.938014
1760629590.798906,-0.132882,0.109527,-0.027162,0.984687,0.503564,0.029532,0.198469,0.003989,-0.054435,0.016797,0.208481,0.267643,-0.940693
1760629590.829536,-0.127749,0.109986,-0.025711,0.985354,0.475856,0.022632,0.204464,0.002100,-0.048400,0.006401,0.210181,0.257411,-0.943167
1760629590.875253,-0.123071,0.110167,-0.024182,0.985967,0.451018,0.008262,0.205900,0.002120,-0.054537,0.008984,0.211290,0.248017,-0.945433
1760629590.875555,-0.118391,0.110345,-0.022653,0.986557,0.426179,-0.006108,0.207337,0.002178,-0.060649,0.011483,0.212360,0.238598,-0.947615
1760629590.876016,-0.113988,0.110484,-0.021040,0.987095,0.397418,-0.008658,0.207377,0.003302,-0.063397,0.001880,0.213321,0.229682,-0.949600
1760629590.898655,-0.109902,0.110524,-0.019392,0.987588,0.367405,-0.019623,0.203477,0.003301,-0.063551,-0.006673,0.214041,0.221363,-0.951412
1760629590.962155,-0.106279,0.110289,-0.017710,0.988042,0.328312,-0.042916,0.195448,0.000409,-0.061400,-0.012775,0.214176,0.213922,-0.953082
1760629590.962520,-0.102654,0.110053,-0.016028,0.988480,0.289220,-0.066208,0.187418,-0.002452,-0.059237,-0.018929,0.214280,0.206470,-0.954701
1760629590.963933,-0.099462,0.109510,-0.014396,0.988892,0.257704,-0.091934,0.179763,-0.004610,-0.061490,-0.019335,0.213724,0.199868,-0.956230
1760629591.003235,-0.096548,0.108644,-0.012771,0.989299,0.236190,-0.123974,0.180278,-0.006339,-0.063562,-0.019336,0.212497,0.193804,-0.957750
1760629591.004611,-0.093871,0.107509,-0.011035,0.989701,0.207495,-0.144293,0.187006,-0.007209,-0.056163,-0.021334,0.210732,0.188181,-0.959260
1760629591.036618,-0.091597,0.106068,-0.009256,0.990088,0.158669,-0.177723,0.173423,-0.009471,-0.046923,-0.021403,0.208338,0.183341,-0.960719
1760629591.048894,-0.089844,0.104354,-0.007573,0.990445,0.102673,-0.193623,0.148884,-0.011382,-0.044557,-0.015963,0.205354,0.179551,-0.962077
1760629591.078821,-0.088605,0.102454,-0.006067,0.990765,0.054695,-0.208436,0.129609,-0.014390,-0.046393,-0.014391,0.201941,0.176816,-0.963305
1760629591.079111,-0.087825,0.100435,-0.004671,0.991049,0.012316,-0.211903,0.118212,-0.014285,-0.045872,-0.006679,0.198252,0.175016,-0.964399
1760629591.114484,-0.087538,0.098526,-0.003390,0.991271,-0.030782,-0.185212,0.098743,-0.014716,-0.040724,0.007009,0.194738,0.174215,-0.965260
1760629591.115884,-0.087663,0.096951,-0.002239,0.991419,-0.067484,-0.147002,0.091314,-0.015753,-0.035441,0.010238,0.191846,0.174255,-0.965832
1760629591.145783,-0.088153,0.095723,-0.001182,0.991496,-0.108906,-0.105549,0.071196,-0.015717,-0.026236,0.013628,0.189610,0.175033,-0.966132
1760629591.177200,-0.089049,0.094913,-0.000389,0.991495,-0.146521,-0.055648,0.042894,-0.012029,-0.020786,0.018103,0.188142,0.176657,-0.966124
1760629591.179705,-0.090314,0.094576,0.000071,0.991412,-0.170657,-0.001731,0.009346,-0.009056,-0.018067,0.022184,0.187541,0.179064,-0.965797
1760629591.208644,-0.091843,0.094789,0.000164,0.991252,-0.181375,0.058196,-0.022782,-0.004754,-0.016358,0.021259,0.187950,0.182049,-0.965160
1760629591.209811,-0.093473,0.095488,-0.000098,0.991032,-0.175344,0.099046,-0.052467,0.000014,-0.015084,0.014106,0.189244,0.185288,-0.964290
1760629591.249073,-0.095023,0.096469,-0.000671,0.990790,-0.153631,0.128072,-0.073900,0.003768,-0.011328,0.009940,0.191034,0.188424,-0.963329
1760629591.263522,-0.096399,0.097681,-0.001486,0.990537,-0.137071,0.138813,-0.097165,0.005770,-0.004379,0.007080,0.193227,0.191265,-0.962331
1760629591.292437,-0.097699,0.098934,-0.002564,0.990283,-0.129583,0.144287,-0.121043,0.006266,0.000495,0.004610,0.195445,0.194008,-0.961334
1760629591.293451,-0.099007,0.100146,-0.003852,0.990027,-0.132396,0.127680,-0.141438,0.006495,-0.000225,-0.001354,0.197532,0.196811,-0.960337
1760629591.338847,-0.100312,0.101171,-0.005265,0.989785,-0.124697,0.108947,-0.144186,0.007736,-0.005021,-0.005787,0.199218,0.199641,-0.959404
1760629591.339848,-0.101536,0.101943,-0.006641,0.989573,-0.113004,0.078585,-0.139421,0.009940,-0.007661,-0.006450,0.200411,0.202308,-0.958596
1760629591.370082,-0.102650,0.102511,-0.007911,0.989390,-0.095713,0.064779,-0.119568,0.010331,-0.012887,-0.002540,0.201223,0.204745,-0.957909
1760629591.370807,-0.103564,0.103007,-0.008913,0.989234,-0.079156,0.051019,-0.093084,0.008300,-0.011107,-0.002627,0.201951,0.206733,-0.957328
1760629591.403426,-0.104291,0.103409,-0.009678,0.989109,-0.069143,0.043353,-0.065999,0.005604,-0.009710,-0.001094,0.202546,0.208311,-0.956860
1760629591.475346,-0.104860,0.103633,-0.009904,0.989023,-0.067217,0.031149,-0.047254,0.003199,-0.007689,-0.000233,0.202914,0.209470,-0.956529
1760629591.475625,-0.105429,0.103857,-0.010130,0.988937,-0.065292,0.018946,-0.028510,0.000795,-0.005666,0.000626,0.203280,0.210629,-0.956197
1760629591.476327,-0.106545,0.104207,-0.010369,0.988778,-0.064392,0.005332,0.000838,-0.002666,-0.001563,-0.000457,0.203866,0.212859,-0.955578
1760629591.475825,-0.105998,0.104081,-0.010355,0.988850,-0.063367,0.006743,-0.009765,-0.001608,-0.003644,0.001484,0.203645,0.211787,-0.955863
1760629591.509821,-0.107096,0.104251,-0.010306,0.988714,-0.058704,0.001275,0.002197,-0.003176,-0.000381,0.002838,0.203942,0.213923,-0.955324
1760629591.511089,-0.107555,0.104326,-0.010249,0.988657,-0.048602,0.009932,-0.000836,-0.003703,0.000404,0.002731,0.204080,0.214809,-0.955096
1760629591.559917,-0.107916,0.104463,-0.010322,0.988603,-0.039849,0.016888,-0.010993,-0.003795,0.003441,0.003659,0.204316,0.215528,-0.954883
1760629591.560191,-0.108276,0.104600,-0.010395,0.988548,-0.031097,0.023845,-0.021150,-0.003887,0.006478,0.004586,0.204553,0.216247,-0.954670
1760629591.589975,-0.108596,0.104836,-0.010650,0.988485,-0.029855,0.031375,-0.033806,-0.003870,0.007580,0.001277,0.204945,0.216924,-0.954433
1760629591.592409,-0.108938,0.105036,-0.011057,0.988422,-0.023734,0.028348,-0.047978,-0.002154,0.002845,0.000102,0.205231,0.217676,-0.954200
1760629591.622340,-0.109206,0.105201,-0.011570,0.988369,-0.013339,0.024320,-0.050390,-0.002329,-0.000024,0.000787,0.205428,0.218305,-0.954014
1760629591.652618,-0.109368,0.105379,-0.012075,0.988326,-0.006376,0.024991,-0.043563,-0.002014,-0.003286,-0.001221,0.205656,0.218728,-0.953868
1760629591.653422,-0.109476,0.105459,-0.012499,0.988300,-0.002030,0.011426,-0.032505,-0.001125,-0.003183,-0.003017,0.205713,0.219026,-0.953787
1760629591.683735,-0.109552,0.105520,-0.012796,0.988281,-0.003385,0.007781,-0.019061,0.000088,-0.003334,0.001351,0.205763,0.219236,-0.953728
1760629591.689865,-0.109637,0.105581,-0.012980,0.988263,-0.010194,0.010258,-0.011867,-0.001066,-0.004388,-0.000152,0.205838,0.219441,-0.953665
1760629591.722242,-0.109776,0.105674,-0.013042,0.988237,-0.017020,0.006632,-0.003851,0.000397,-0.007542,0.000608,0.205998,0.219725,-0.953565
1760629591.757156,-0.109877,0.105742,-0.013006,0.988219,-0.009345,0.013638,0.007234,0.001740,-0.009285,0.004533,0.206134,0.219915,-0.953491
1760629591.759076,-0.109914,0.105888,-0.012862,0.988201,-0.002736,0.007437,0.018241,-0.000074,-0.008635,0.003264,0.206451,0.219957,-0.953413
1760629591.818644,-0.109798,0.106117,-0.012732,0.988191,-0.000319,0.012149,0.011156,0.001286,-0.006322,0.002731,0.206932,0.219705,-0.953367
1760629591.818931,-0.109683,0.106345,-0.012602,0.988181,0.002099,0.016861,0.004072,0.002647,-0.004010,0.002197,0.207412,0.219453,-0.953321
1760629591.819234,-0.109567,0.106573,-0.012473,0.988171,0.004516,0.021573,-0.003013,0.004007,-0.001697,0.001663,0.207892,0.219200,-0.953274
1760629591.859870,-0.109477,0.106786,-0.012610,0.988156,0.006695,0.015282,-0.008254,0.002201,-0.003144,0.000828,0.208282,0.219054,-0.953223
1760629591.860275,-0.109388,0.107000,-0.012748,0.988141,0.008873,0.008992,-0.013495,0.000394,-0.004591,-0.000007,0.208672,0.218909,-0.953171
1760629591.893414,-0.109282,0.107134,-0.012872,0.988137,0.009462,0.004993,-0.011092,0.001550,-0.004468,0.002369,0.208914,0.218728,-0.953160
1760629591.894542,-0.109184,0.107234,-0.012978,0.988135,0.005000,0.007320,-0.004925,0.000580,-0.005895,0.005329,0.209089,0.218560,-0.953160
1760629591.924454,-0.109185,0.107287,-0.012996,0.988129,-0.008014,0.002068,0.002959,0.001028,-0.005045,0.000133,0.209189,0.218567,-0.953136
1760629591.926573,-0.109270,0.107319,-0.012914,0.988117,-0.016631,-0.000054,0.011011,0.001187,-0.005303,0.002074,0.209266,0.218715,-0.953085
1760629591.955181,-0.109438,0.107346,-0.012760,0.988098,-0.020004,-0.001996,0.014567,-0.001083,-0.006665,-0.000418,0.209343,0.219010,-0.953001
1760629591.985789,-0.109594,0.107338,-0.012570,0.988084,-0.019897,-0.005320,0.016570,-0.000666,-0.006180,-0.001851,0.209363,0.219274,-0.952936
1760629591.988088,-0.109728,0.107285,-0.012370,0.988077,-0.017106,-0.012667,0.012015,-0.003158,-0.003778,0.000037,0.209296,0.219493,-0.952900
1760629592.020230,-0.109852,0.107206,-0.012258,0.988073,-0.018186,-0.011155,0.006779,-0.001411,-0.003333,0.001220,0.209161,0.219712,-0.952879
1760629592.050600,-0.109992,0.107075,-0.012205,0.988073,-0.019010,-0.008780,-0.002836,-0.001761,-0.005083,0.006351,0.208911,0.219973,-0.952873
1760629592.050885,-0.110118,0.107053,-0.012223,0.988061,-0.017639,0.001985,-0.003147,-0.002608,-0.006869,0.000772,0.208857,0.220224,-0.952828
1760629592.078609,-0.110254,0.107047,-0.012247,0.988046,-0.017610,-0.001641,-0.009026,-0.001897,-0.005431,-0.000459,0.208835,0.220495,-0.952770
1760629592.115770,-0.110432,0.107050,-0.012335,0.988025,-0.020558,0.001164,-0.010238,-0.002267,-0.005370,-0.001162,0.208812,0.220860,-0.952690
1760629592.116076,-0.110610,0.107053,-0.012424,0.988003,-0.023507,0.003968,-0.011451,-0.002638,-0.005309,-0.001866,0.208789,0.221226,-0.952610
1760629592.160715,-0.110753,0.107071,-0.012503,0.987984,-0.017636,0.005859,-0.008471,-0.002774,-0.005018,0.000729,0.208800,0.221522,-0.952539
1760629592.161042,-0.110896,0.107090,-0.012582,0.987965,-0.011764,0.007751,-0.005492,-0.002911,-0.004728,0.003323,0.208811,0.221818,-0.952468
1760629592.189978,-0.110990,0.107166,-0.012616,0.987946,-0.010956,0.010203,-0.004745,-0.002052,-0.003256,0.002709,0.208949,0.222008,-0.952393
1760629592.194030,-0.111095,0.107262,-0.012687,0.987923,-0.015154,0.011558,-0.010298,-0.001581,-0.004464,0.001002,0.209114,0.222228,-0.952306
1760629592.227080,-0.111164,0.107371,-0.012734,0.987903,-0.008922,0.018739,-0.002413,-0.000769,-0.004523,0.000471,0.209313,0.222373,-0.952228
1760629592.228371,-0.111225,0.107525,-0.012757,0.987879,-0.004728,0.010177,-0.004740,-0.000618,-0.002872,-0.001344,0.209606,0.222496,-0.952135
1760629592.258273,-0.111215,0.107638,-0.012806,0.987867,0.003556,0.022973,0.000418,0.001223,-0.004142,0.005600,0.209817,0.222488,-0.952090
1760629592.287611,-0.111140,0.107902,-0.012821,0.987847,0.000783,0.027745,-0.003205,0.000273,-0.000926,0.001252,0.210331,0.222345,-0.952010
1760629592.301250,-0.111129,0.108139,-0.012915,0.987820,-0.003562,0.021901,-0.010750,-0.000906,0.000044,-0.000136,0.210774,0.222345,-0.951912
1760629592.338510,-0.111221,0.108298,-0.013108,0.987790,-0.008388,0.017825,-0.016414,-0.000928,-0.001401,0.000060,0.211035,0.222566,-0.951803
1760629592.338876,-0.111314,0.108456,-0.013301,0.987760,-0.013214,0.013750,-0.022078,-0.000949,-0.002846,0.000256,0.211296,0.222787,-0.951693
1760629592.367424,-0.111490,0.108532,-0.013544,0.987728,-0.012450,0.013481,-0.021358,0.001012,-0.003653,0.001131,0.211379,0.223184,-0.951582
1760629592.369594,-0.111659,0.108629,-0.013729,0.987696,-0.010925,0.011550,-0.016856,0.000521,-0.004118,0.000348,0.211519,0.223552,-0.951464
1760629592.399934,-0.111815,0.108668,-0.013853,0.987672,-0.013194,0.002103,-0.009478,-0.000175,-0.003823,-0.002548,0.211559,0.223884,-0.951377
1760629592.406558,-0.111958,0.108677,-0.013898,0.987655,-0.011400,-0.002556,-0.000311,0.001070,-0.005662,0.001283,0.211559,0.224173,-0.951309
1760629592.459794,-0.111987,0.108661,-0.013791,0.987655,-0.006170,-0.000074,0.008556,0.000511,-0.003471,0.002308,0.211550,0.224206,-0.951304
1760629592.460086,-0.112016,0.108644,-0.013684,0.987655,-0.000940,0.002408,0.017422,-0.000048,-0.001280,0.003334,0.211540,0.224239,-0.951298
1760629592.461953,-0.111999,0.108650,-0.013508,0.987658,-0.001490,-0.007206,0.010582,-0.001072,0.001815,-0.001647,0.211591,0.224169,-0.951303
1760629592.491298,-0.111995,0.108517,-0.013397,0.987675,-0.001089,-0.017184,0.006224,-0.001130,0.001201,0.000973,0.211358,0.224137,-0.951362
1760629592.521267,-0.111962,0.108386,-0.013329,0.987694,-0.001998,-0.014390,-0.001594,-0.000110,0.000832,0.001866,0.211120,0.224059,-0.951434
1760629592.522123,-0.111909,0.108270,-0.013285,0.987713,0.009236,-0.007692,0.004394,-0.000704,0.000514,0.002147,0.210907,0.223945,-0.951508
1760629592.559695,-0.111820,0.108185,-0.013278,0.987733,0.008671,-0.008612,-0.002401,-0.000785,-0.000756,-0.000105,0.210746,0.223770,-0.951585
1760629592.561018,-0.111688,0.108123,-0.013276,0.987754,0.018526,-0.000523,0.008806,-0.002980,-0.004155,0.001217,0.210632,0.223512,-0.951670
1760629592.592274,-0.111522,0.108059,-0.013220,0.987781,0.016816,-0.012761,0.006925,-0.002731,-0.003242,0.002451,0.210529,0.223177,-0.951772
1760629592.622310,-0.111329,0.108000,-0.013137,0.987810,0.017620,0.004489,0.018731,-0.000754,-0.006835,0.006722,0.210443,0.222782,-0.951883
1760629592.623484,-0.111110,0.108043,-0.012991,0.987832,0.021843,0.004563,0.018703,0.001291,-0.003616,0.003859,0.210569,0.222323,-0.951963
1760629592.653733,-0.110816,0.108196,-0.012847,0.987850,0.024255,0.017834,0.012897,-0.000576,-0.002624,0.002552,0.210916,0.221720,-0.952027
1760629592.683733,-0.110601,0.108346,-0.012780,0.987859,0.016577,0.006756,0.004217,-0.001321,-0.001378,-0.003713,0.211234,0.221286,-0.952057
1760629592.684842,-0.110418,0.108295,-0.012825,0.987884,0.016365,-0.007186,-0.006218,-0.001383,-0.001855,-0.000176,0.211134,0.220939,-0.952160
1760629592.715206,-0.110263,0.108214,-0.012903,0.987910,0.007375,-0.005424,-0.009995,-0.000734,-0.002342,0.003269,0.210966,0.220651,-0.952264
1760629592.721300,-0.110240,0.108140,-0.013046,0.987918,-0.000684,-0.001078,-0.010808,0.000306,-0.004672,0.004879,0.210791,0.220637,-0.952306
1760629592.762060,-0.110266,0.108137,-0.013118,0.987915,-0.007102,0.001464,-0.006389,-0.002789,-0.005993,0.000587,0.210768,0.220704,-0.952296
1760629592.764042,-0.110371,0.108093,-0.013150,0.987907,-0.012039,-0.004956,0.000109,-0.001857,-0.004398,-0.000140,0.210668,0.220916,-0.952268
1760629592.794431,-0.110496,0.108069,-0.013100,0.987897,-0.014393,-0.004891,0.002271,-0.002075,-0.002364,0.001647,0.210627,0.221148,-0.952224
1760629592.801326,-0.110599,0.108001,-0.013044,0.987893,-0.012349,-0.005462,0.003431,-0.002531,-0.003652,0.001954,0.210502,0.221338,-0.952207
1760629592.833461,-0.110688,0.107909,-0.012911,0.987895,-0.009198,-0.011225,0.009796,-0.004514,-0.001063,0.001500,0.210347,0.221483,-0.952208
1760629592.862479,-0.110782,0.107773,-0.012831,0.987901,-0.015189,-0.013764,0.003597,-0.002874,-0.000927,0.000543,0.210096,0.221649,-0.952224
1760629592.864463,-0.110924,0.107624,-0.012796,0.987901,-0.018086,-0.017472,-0.006746,-0.004653,-0.001549,-0.000509,0.209805,0.221918,-0.952226
1760629592.894076,-0.111075,0.107433,-0.012826,0.987905,-0.013306,-0.006506,-0.002210,-0.002847,-0.005736,0.002613,0.209417,0.222220,-0.952241
1760629592.901493,-0.111186,0.107311,-0.012836,0.987905,-0.006861,-0.013404,-0.003817,-0.003238,-0.005472,0.000874,0.209173,0.222437,-0.952244
1760629592.931485,-0.111203,0.107225,-0.012800,0.987913,0.000463,-0.000392,0.005003,-0.001576,-0.006284,0.003223,0.209012,0.222464,-0.952273
1760629592.962018,-0.111174,0.107269,-0.012716,0.987913,0.000167,0.004205,0.009358,-0.002934,-0.004009,-0.000578,0.209117,0.222388,-0.952268
1760629592.962603,-0.111135,0.107254,-0.012611,0.987920,0.000296,-0.002574,0.008519,-0.003320,-0.001919,0.001237,0.209114,0.222290,-0.952291
1760629592.991820,-0.111102,0.107248,-0.012545,0.987925,-0.004394,0.001285,0.000852,-0.001001,0.001053,0.002837,0.209118,0.222213,-0.952308
1760629593.061484,-0.111197,0.107232,-0.012639,0.987915,-0.005565,0.001923,-0.004661,-0.000543,-0.000224,0.002851,0.209061,0.222417,-0.952273
1760629593.061936,-0.111292,0.107216,-0.012732,0.987905,-0.006737,0.002560,-0.010174,-0.000084,-0.001502,0.002865,0.209005,0.222622,-0.952238
1760629593.062303,-0.111387,0.107201,-0.012825,0.987895,-0.007909,0.003198,-0.015687,0.000375,-0.002779,0.002879,0.208949,0.222826,-0.952202
1760629593.101804,-0.111483,0.107218,-0.013017,0.987880,-0.002850,0.004898,-0.019392,-0.001168,-0.006946,0.004023,0.208935,0.223056,-0.952151
1760629593.103924,-0.111450,0.107339,-0.013126,0.987869,-0.001714,0.011135,-0.012832,-0.001443,-0.004102,0.001810,0.209147,0.223013,-0.952115
1760629593.132341,-0.111469,0.107467,-0.013242,0.987851,-0.005155,0.012173,-0.012381,-0.000550,-0.002343,0.001239,0.209370,0.223075,-0.952051
1760629593.138939,-0.111523,0.107618,-0.013340,0.987827,-0.008718,0.012068,-0.011842,-0.000234,-0.002988,0.000341,0.209641,0.223203,-0.951962
1760629593.168939,-0.111618,0.107714,-0.013453,0.987805,-0.012384,0.008415,-0.011103,-0.000494,-0.003077,0.001019,0.209797,0.223412,-0.951878
1760629593.202939,-0.111740,0.107768,-0.013543,0.987784,-0.013371,0.007632,-0.010200,0.001324,-0.003218,0.003203,0.209876,0.223668,-0.951801
1760629593.203243,-0.111877,0.107835,-0.013630,0.987760,-0.016610,0.007826,-0.012234,0.000703,-0.001921,0.001210,0.209980,0.223955,-0.951710
1760629593.231241,-0.112068,0.107858,-0.013731,0.987734,-0.018746,0.004734,-0.010103,0.000878,-0.003752,0.001366,0.209992,0.224349,-0.951615
1760629593.239053,-0.112233,0.107870,-0.013793,0.987713,-0.013742,0.003733,-0.004234,0.001415,-0.005998,0.001440,0.209993,0.224684,-0.951536
1760629593.268879,-0.112333,0.107887,-0.013791,0.987700,-0.010964,-0.002681,0.001757,0.000471,-0.005600,0.000497,0.210023,0.224877,-0.951483
1760629593.298546,-0.112416,0.107885,-0.013715,0.987692,-0.009600,-0.001227,0.007334,0.000532,-0.004101,0.002448,0.210030,0.225024,-0.951447
1760629593.298842,-0.112495,0.107878,-0.013625,0.987685,-0.014760,-0.004745,0.006002,-0.000253,-0.000983,0.000101,0.210033,0.225160,-0.951414
1760629593.361583,-0.112663,0.107785,-0.013548,0.987677,-0.019621,-0.010446,0.002930,-0.000824,-0.002873,0.000278,0.209861,0.225471,-0.951379
1760629593.361742,-0.112831,0.107692,-0.013470,0.987669,-0.024483,-0.016146,-0.000142,-0.001396,-0.004763,0.000456,0.209689,0.225782,-0.951343
1760629593.362143,-0.113058,0.107535,-0.013420,0.987661,-0.027635,-0.013754,0.003451,-0.001840,-0.007261,0.002866,0.209383,0.226211,-0.951308
1760629593.393562,-0.113331,0.107419,-0.013326,0.987643,-0.032624,-0.011472,0.006373,-0.002604,-0.005536,0.003203,0.209163,0.226725,-0.951234
1760629593.394814,-0.113661,0.107331,-0.013188,0.987617,-0.037588,-0.005066,0.009375,-0.001541,-0.002310,0.003396,0.209007,0.227338,-0.951122
1760629593.425228,-0.114038,0.107326,-0.013061,0.987576,-0.046905,-0.004385,0.004490,-0.001552,-0.000573,0.000935,0.209006,0.228045,-0.950953
1760629593.435962,-0.114450,0.107297,-0.012977,0.987532,-0.044894,-0.003507,0.001204,-0.001210,-0.000429,0.000517,0.208949,0.228831,-0.950777
1760629593.465014,-0.114846,0.107248,-0.012933,0.987492,-0.039648,-0.004011,-0.003202,-0.001543,-0.000527,0.000406,0.208843,0.229592,-0.950617
1760629593.495172,-0.115175,0.107192,-0.012930,0.987460,-0.029139,-0.003128,-0.001995,-0.001730,-0.001373,0.001914,0.208717,0.230234,-0.950489
1760629593.495944,-0.115447,0.107138,-0.012922,0.987434,-0.025974,-0.003275,-0.005715,-0.002320,0.000839,0.001416,0.208599,0.230761,-0.950387
1760629593.526137,-0.115712,0.107094,-0.012968,0.987407,-0.027223,-0.002653,-0.008566,-0.002551,-0.000118,0.000899,0.208489,0.231288,-0.950283
1760629593.561139,-0.115996,0.107068,-0.013006,0.987376,-0.027210,-0.002975,-0.007628,-0.002387,-0.002460,0.001865,0.208415,0.231848,-0.950163
1760629593.562264,-0.116232,0.107030,-0.013004,0.987353,-0.019310,-0.002099,0.000763,-0.002365,-0.003939,0.001179,0.208330,0.232307,-0.950070
1760629593.593463,-0.116386,0.106993,-0.012913,0.987340,-0.012901,-0.001565,0.007975,-0.001743,-0.001591,0.000239,0.208270,0.232588,-0.950014
1760629593.594780,-0.116493,0.106964,-0.012792,0.987332,-0.013038,-0.003942,0.008712,-0.002096,0.000060,0.000658,0.208237,0.232772,-0.949976
1760629593.625142,-0.116604,0.106896,-0.012672,0.987328,-0.014582,-0.005497,0.006181,-0.002519,-0.000099,0.000932,0.208128,0.232962,-0.949953
1760629593.688967,-0.116755,0.106835,-0.012647,0.987317,-0.014714,-0.002673,0.003236,-0.002408,-0.000645,0.001169,0.208006,0.233252,-0.949909
1760629593.689294,-0.116907,0.106773,-0.012622,0.987306,-0.014846,0.000152,0.000291,-0.002296,-0.001190,0.001407,0.207883,0.233541,-0.949865
1760629593.689623,-0.117059,0.106711,-0.012597,0.987295,-0.014978,0.002976,-0.002653,-0.002184,-0.001735,0.001644,0.207761,0.233831,-0.949820
1760629593.718584,-0.117207,0.106723,-0.012610,0.987276,-0.013332,0.005608,-0.005067,-0.001724,0.000632,0.002347,0.207774,0.234123,-0.949745
1760629593.719765,-0.117373,0.106771,-0.012676,0.987250,-0.017436,0.008460,-0.010231,-0.001316,0.002973,0.002953,0.207844,0.234459,-0.949647
1760629593.750029,-0.117600,0.106818,-0.012791,0.987217,-0.025692,0.005882,-0.016073,-0.001087,0.001104,0.001358,0.207896,0.234925,-0.949521
1760629593.756696,-0.117868,0.106860,-0.012940,0.987178,-0.028969,0.008197,-0.017208,0.000614,-0.000420,0.001661,0.207930,0.235478,-0.949376
1760629593.789497,-0.118154,0.106902,-0.013103,0.987137,-0.025118,0.010946,-0.018590,0.000994,-0.000775,0.003841,0.207957,0.236069,-0.949224
1760629593.795147,-0.118418,0.106980,-0.013235,0.987095,-0.020815,0.010478,-0.013852,0.000331,-0.001619,0.002105,0.208065,0.236611,-0.949065
1760629593.825316,-0.118625,0.107012,-0.013317,0.987066,-0.012989,0.002987,-0.005099,0.000403,-0.002278,-0.000698,0.208097,0.237032,-0.948953
1760629593.856940,-0.118730,0.106968,-0.013318,0.987058,-0.005675,-0.003078,0.002196,0.001631,-0.001740,0.003188,0.208004,0.237237,-0.948922
1760629593.858969,-0.118760,0.106985,-0.013293,0.987053,-0.005067,0.008878,0.004911,0.001167,-0.000564,0.004513,0.208042,0.237289,-0.948901
1760629593.895233,-0.118828,0.107071,-0.013267,0.987036,-0.010342,0.007748,0.004733,-0.000592,-0.000591,0.002046,0.208213,0.237416,-0.948831
1760629593.897269,-0.118900,0.107102,-0.013197,0.987025,-0.006336,-0.000098,0.004902,-0.001007,-0.000929,0.002228,0.208286,0.237541,-0.948784
1760629593.927507,-0.118978,0.107115,-0.013132,0.987015,-0.012127,-0.002358,-0.000562,-0.001087,0.000257,0.001809,0.208323,0.237679,-0.948741
1760629593.962370,-0.119132,0.107101,-0.013119,0.986998,-0.012550,-0.002044,0.001484,-0.001608,-0.000967,0.002639,0.208290,0.237976,-0.948674
1760629593.962684,-0.119286,0.107086,-0.013106,0.986981,-0.012973,-0.001730,0.003530,-0.002128,-0.002191,0.003469,0.208257,0.238273,-0.948607
1760629593.993163,-0.119428,0.107142,-0.013063,0.986958,-0.014968,0.003031,0.002728,-0.001629,-0.001575,0.002801,0.208370,0.238539,-0.948515
1760629593.994494,-0.119579,0.107191,-0.013034,0.986935,-0.013703,0.006511,0.002853,-0.000922,0.001035,0.002759,0.208463,0.238828,-0.948422
1760629594.024686,-0.119735,0.107236,-0.013011,0.986912,-0.017328,0.003003,-0.001298,-0.001538,0.002663,-0.001383,0.208548,0.239126,-0.948328
1760629594.054505,-0.119934,0.107196,-0.013034,0.986892,-0.021801,-0.002934,-0.007353,-0.001887,0.002829,-0.000859,0.208455,0.239518,-0.948250
1760629594.070529,-0.120151,0.107122,-0.013074,0.986873,-0.021379,-0.008100,-0.009933,-0.001921,0.001150,0.000272,0.208290,0.239948,-0.948177
1760629594.071851,-0.120363,0.107046,-0.013134,0.986854,-0.016890,-0.006004,-0.007522,-0.001468,-0.000691,0.001131,0.208115,0.240374,-0.948108
1760629594.100281,-0.120504,0.106997,-0.013185,0.986842,-0.009138,-0.002293,-0.003344,-0.002724,-0.001887,0.003432,0.208000,0.240658,-0.948061
1760629594.131527,-0.120581,0.106992,-0.013166,0.986833,-0.003534,0.002701,0.005470,-0.003726,-0.002516,0.000948,0.207991,0.240804,-0.948026
1760629594.131839,-0.120603,0.106976,-0.013107,0.986833,-0.002407,-0.002048,0.004997,-0.003387,-0.000709,0.000650,0.207974,0.240833,-0.948022
1760629594.161898,-0.120618,0.106953,-0.013046,0.986834,-0.001616,0.003527,0.006138,-0.001952,-0.000950,0.002564,0.207942,0.240851,-0.948025
1760629594.191371,-0.120612,0.107024,-0.013006,0.986828,-0.001699,0.004601,0.002296,-0.001373,-0.000114,0.001483,0.208091,0.240831,-0.947997
1760629594.195468,-0.120599,0.107061,-0.013004,0.986826,0.000022,0.007421,0.000466,-0.001600,0.000050,0.002033,0.208164,0.240804,-0.947988
1760629594.262276,-0.120629,0.107143,-0.013112,0.986812,-0.002939,0.008442,-0.004072,-0.002016,0.000359,0.002168,0.208296,0.240886,-0.947938
1760629594.262614,-0.120659,0.107225,-0.013221,0.986798,-0.005900,0.009463,-0.008610,-0.002433,0.000667,0.002303,0.208428,0.240968,-0.947888
1760629594.262936,-0.120690,0.107307,-0.013329,0.986783,-0.008861,0.010484,-0.013148,-0.002849,0.000976,0.002438,0.208560,0.241050,-0.947838
1760629594.295794,-0.120807,0.107404,-0.013475,0.986757,-0.011473,0.015011,-0.015666,-0.001745,-0.002227,0.003357,0.208707,0.241308,-0.947740
1760629594.296350,-0.120927,0.107555,-0.013619,0.986723,-0.008512,0.020749,-0.009269,-0.000967,-0.002786,0.003149,0.208961,0.241572,-0.947617
1760629594.355973,-0.120922,0.107803,-0.013714,0.986696,-0.000167,0.024565,-0.005880,-0.000742,-0.000020,0.001850,0.209421,0.241583,-0.947513
1760629594.356354,-0.120917,0.108051,-0.013810,0.986668,0.008178,0.028380,-0.002490,-0.000518,0.002747,0.000549,0.209880,0.241593,-0.947408
1760629594.356986,-0.120834,0.108292,-0.013930,0.986650,0.010666,0.029587,-0.012189,0.000506,0.003557,0.001326,0.210327,0.241458,-0.947344
1760629594.388532,-0.120720,0.108558,-0.014126,0.986632,0.013957,0.028911,-0.019558,0.001124,0.001060,0.001695,0.210803,0.241279,-0.947284
1760629594.417596,-0.120537,0.108786,-0.014377,0.986625,0.022349,0.024376,-0.020235,0.001661,-0.002096,0.003271,0.211197,0.240977,-0.947273
1760629594.418687,-0.120296,0.108972,-0.014634,0.986630,0.030064,0.019608,-0.014562,0.001064,-0.001987,0.001554,0.211509,0.240566,-0.947308
1760629594.451815,-0.120057,0.109150,-0.014823,0.986637,0.022357,0.016484,-0.010978,0.001216,-0.002318,0.002333,0.211825,0.240141,-0.947345
1760629594.453933,-0.119889,0.109287,-0.014978,0.986640,0.010772,0.013406,-0.009228,0.000236,-0.002770,-0.000038,0.212063,0.239848,-0.947366
1760629594.482879,-0.119829,0.109434,-0.015068,0.986630,0.001616,0.010605,-0.002100,0.000458,-0.005676,0.001107,0.212331,0.239752,-0.947330
1760629594.488829,-0.119792,0.109523,-0.015066,0.986624,0.000628,0.006418,0.005768,-0.000343,-0.004955,-0.000355,0.212507,0.239680,-0.947309
1760629594.518791,-0.119767,0.109567,-0.014966,0.986624,0.001623,0.002524,0.011107,-0.000835,-0.003317,0.000558,0.212618,0.239609,-0.947302
1760629594.567558,-0.119725,0.109574,-0.014818,0.986631,0.001967,-0.001726,0.011148,-0.001332,-0.001656,0.001013,0.212670,0.239497,-0.947319
1760629594.568005,-0.119684,0.109581,-0.014670,0.986637,0.002310,-0.005977,0.011189,-0.001829,0.000005,0.001468,0.212722,0.239384,-0.947335
1760629594.568609,-0.119609,0.109578,-0.014522,0.986649,0.003866,-0.001826,0.013597,-0.001948,-0.000963,0.003126,0.212756,0.239207,-0.947373
1760629594.602482,-0.119499,0.109555,-0.014416,0.986666,0.004693,-0.004438,0.008682,-0.001680,0.000352,0.000127,0.212743,0.238969,-0.947435
1760629594.607318,-0.119394,0.109484,-0.014356,0.986688,0.009457,-0.003736,0.002501,-0.002658,0.000908,0.001788,0.212626,0.238752,-0.947517
1760629594.636140,-0.119287,0.109465,-0.014364,0.986702,0.009716,-0.001880,-0.003201,-0.001678,0.001505,0.002079,0.212592,0.238547,-0.947576
1760629594.673770,-0.119216,0.109454,-0.014425,0.986711,0.006155,0.000538,-0.005440,-0.001825,-0.001022,0.002861,0.212560,0.238421,-0.947615
1760629594.674575,-0.119186,0.109471,-0.014486,0.986712,0.003960,-0.000145,-0.006854,-0.002811,-0.002088,0.001279,0.212580,0.238376,-0.947622
1760629594.704951,-0.119137,0.109471,-0.014563,0.986717,0.006697,0.005943,-0.001151,-0.001845,-0.003020,0.002636,0.212564,0.238298,-0.947645
1760629594.706032,-0.119096,0.109534,-0.014596,0.986714,0.005671,0.003992,-0.000022,-0.002093,-0.002945,0.000600,0.212682,0.238226,-0.947637
1760629594.736267,-0.119017,0.109575,-0.014573,0.986720,0.009122,0.007809,0.004528,-0.002246,-0.002429,0.000503,0.212771,0.238066,-0.947657
1760629594.767858,-0.118926,0.109609,-0.014534,0.986728,0.005261,-0.000069,0.003984,-0.003195,-0.001012,0.002065,0.212852,0.237881,-0.947685
1760629594.768144,-0.118877,0.109614,-0.014477,0.986734,-0.001700,0.002093,0.004516,-0.002716,-0.000893,0.001895,0.212878,0.237774,-0.947706
1760629594.788138,-0.118914,0.109637,-0.014462,0.986727,-0.008008,0.004417,0.000153,-0.002029,-0.002267,0.002343,0.212924,0.237843,-0.947678
1760629594.816796,-0.118975,0.109706,-0.014441,0.986712,-0.008023,0.009884,0.000510,-0.001842,-0.002642,0.002465,0.213060,0.237957,-0.947619
1760629594.862135,-0.119001,0.109795,-0.014452,0.986699,-0.002791,0.010004,-0.001393,-0.001115,-0.000610,0.002867,0.213230,0.238009,-0.947568
1760629594.862442,-0.119027,0.109885,-0.014463,0.986686,0.002440,0.010125,-0.003295,-0.000387,0.001423,0.003270,0.213400,0.238062,-0.947516
1760629594.866805,-0.118996,0.109953,-0.014541,0.986681,0.003751,0.011231,-0.011126,-0.000438,0.002415,0.002868,0.213517,0.238021,-0.947500
1760629594.903047,-0.118961,0.110033,-0.014698,0.986674,0.003291,0.012343,-0.016198,0.000646,0.001403,0.002136,0.213637,0.237987,-0.947482
1760629594.905199,-0.118949,0.110122,-0.014923,0.986662,0.003688,0.009514,-0.020563,-0.000932,-0.002211,0.002929,0.213756,0.238012,-0.947449
1760629594.933985,-0.118938,0.110203,-0.015134,0.986651,0.003810,0.001102,-0.018093,-0.001138,-0.005247,0.000030,0.213864,0.238036,-0.947418
1760629594.964392,-0.118911,0.110172,-0.015283,0.986655,0.008215,0.000489,-0.007590,-0.001884,-0.006223,-0.000562,0.213769,0.238017,-0.947444
1760629594.966489,-0.118838,0.110155,-0.015334,0.986665,0.005769,-0.010856,-0.000756,-0.000227,-0.004176,0.000505,0.213727,0.237885,-0.947487
1760629595.008305,-0.118796,0.110103,-0.015315,0.986676,0.002422,0.006809,0.005649,0.000504,-0.000225,0.004836,0.213633,0.237799,-0.947530
1760629595.010294,-0.118825,0.110212,-0.015290,0.986661,-0.012791,0.009487,-0.004643,-0.001800,0.000438,0.000283,0.213851,0.237851,-0.947468
1760629595.038729,-0.118925,0.110253,-0.015318,0.986644,-0.013303,-0.000250,-0.000396,-0.003245,-0.000853,0.000547,0.213917,0.238051,-0.947402
1760629595.046605,-0.118997,0.110232,-0.015311,0.986638,-0.010705,-0.002655,-0.003135,-0.002405,0.000954,0.001964,0.213874,0.238189,-0.947377
1760629595.077593,-0.119121,0.110230,-0.015328,0.986623,-0.013701,-0.002082,-0.003242,-0.002131,0.000807,0.001738,0.213859,0.238435,-0.947319
1760629595.160288,-0.119176,0.110236,-0.015286,0.986616,-0.010686,-0.000292,-0.001191,-0.001888,0.001559,0.001651,0.213878,0.238533,-0.947290
1760629595.160618,-0.119231,0.110242,-0.015244,0.986609,-0.007671,0.001499,0.000861,-0.001646,0.002312,0.001564,0.213897,0.238631,-0.947261
1760629595.160926,-0.119287,0.110248,-0.015202,0.986603,-0.004657,0.003289,0.002912,-0.001403,0.003064,0.001477,0.213916,0.238729,-0.947232
1760629595.161236,-0.119342,0.110254,-0.015159,0.986596,-0.001642,0.005079,0.004963,-0.001161,0.003816,0.001390,0.213935,0.238827,-0.947203
1760629595.161578,-0.119368,0.110242,-0.015135,0.986595,-0.003797,0.000984,0.000347,-0.002731,0.005783,0.000398,0.213915,0.238872,-0.947196
1760629595.192315,-0.119414,0.110232,-0.015166,0.986590,-0.007249,0.000381,-0.008055,-0.001344,0.001386,0.000756,0.213885,0.238969,-0.947178
1760629595.229862,-0.119469,0.110185,-0.015261,0.986587,-0.003990,-0.002009,-0.011259,-0.001664,0.000369,0.002070,0.213769,0.239097,-0.947172
1760629595.231045,-0.119496,0.110160,-0.015400,0.986584,0.004903,0.005131,-0.008874,-0.001361,-0.000896,0.002306,0.213683,0.239178,-0.947171
1760629595.261084,-0.119475,0.110192,-0.015491,0.986582,0.008455,0.001005,-0.007329,-0.000990,-0.000406,0.000521,0.213725,0.239157,-0.947167
1760629595.291083,-0.119461,0.110174,-0.015577,0.986584,0.005019,-0.002268,-0.005148,-0.002933,-0.002813,-0.001105,0.213671,0.239149,-0.947181
1760629595.292188,-0.119443,0.110091,-0.015647,0.986594,0.000832,-0.002793,-0.005408,-0.000104,-0.004615,0.004090,0.213493,0.239129,-0.947226
1760629595.322731,-0.119430,0.110149,-0.015691,0.986589,0.000526,0.013243,-0.002762,0.000350,-0.004905,0.004925,0.213595,0.239113,-0.947207
1760629595.323519,-0.119380,0.110295,-0.015707,0.986578,0.008157,0.015817,0.001226,0.000568,-0.004278,0.002023,0.213878,0.239021,-0.947167
1760629595.353745,-0.119281,0.110415,-0.015703,0.986577,0.012919,0.011178,0.002719,-0.001484,-0.001139,0.000558,0.214120,0.238828,-0.947161
1760629595.383724,-0.119137,0.110502,-0.015714,0.986584,0.006714,0.001942,-0.001603,-0.002354,0.001631,0.001523,0.214295,0.238551,-0.947191
1760629595.385879,-0.119106,0.110490,-0.015789,0.986588,-0.002141,-0.000742,-0.009397,-0.002096,0.000883,0.001656,0.214255,0.238507,-0.947211
1760629595.416214,-0.119169,0.110475,-0.015856,0.986581,-0.008147,-0.000177,-0.004869,0.000293,-0.004152,0.005829,0.214207,0.238642,-0.947188
1760629595.420859,-0.119199,0.110518,-0.015863,0.986573,0.000647,0.008188,0.003654,0.000884,-0.005345,0.006963,0.214287,0.238703,-0.947155
1760629595.462948,-0.119192,0.110696,-0.015855,0.986554,0.002884,0.023745,0.007508,0.000723,-0.003636,0.003957,0.214636,0.238688,-0.947079
1760629595.463202,-0.119157,0.110895,-0.015827,0.986536,0.002736,0.017679,0.000955,-0.000511,0.001986,0.001654,0.215033,0.238616,-0.947007
1760629595.492552,-0.119132,0.111068,-0.015891,0.986519,-0.001677,0.015543,-0.006539,0.001277,0.002605,0.001728,0.215355,0.238581,-0.946943
1760629595.499625,-0.119141,0.111254,-0.016060,0.986494,-0.004440,0.017186,-0.017153,0.000795,-0.000178,0.003241,0.215676,0.238638,-0.946856
1760629595.529578,-0.119115,0.111410,-0.016258,0.986476,0.001429,0.016759,-0.016593,0.000314,-0.001921,0.003532,0.215933,0.238631,-0.946799
1760629595.564783,-0.119125,0.111544,-0.016462,0.986456,0.001908,0.011380,-0.016262,0.000027,-0.000168,0.000309,0.216144,0.238697,-0.946734
1760629595.566014,-0.119150,0.111598,-0.016632,0.986444,-0.001977,0.001567,-0.012594,0.000211,-0.001280,-0.001229,0.216207,0.238783,-0.946698
1760629595.597789,-0.119205,0.111553,-0.016746,0.986441,-0.000787,-0.006819,-0.006972,0.001228,-0.003731,-0.000097,0.216088,0.238914,-0.946692
1760629595.598041,-0.119209,0.111497,-0.016777,0.986446,0.000335,-0.000344,0.002057,-0.000346,-0.006504,0.002325,0.215972,0.238929,-0.946715
1760629595.627432,-0.119233,0.111493,-0.016643,0.986446,-0.002843,-0.006457,0.016625,-0.001774,-0.003722,0.000580,0.215995,0.238944,-0.946706
1760629595.657643,-0.119262,0.111402,-0.016422,0.986456,-0.008589,-0.018314,0.020288,-0.002436,0.000386,-0.000959,0.215869,0.238953,-0.946732
1760629595.658311,-0.119328,0.111221,-0.016182,0.986473,-0.008914,-0.018986,0.020496,-0.002222,-0.001377,0.002338,0.215572,0.239028,-0.946781
1760629595.688764,-0.119378,0.111105,-0.015936,0.986484,-0.008200,-0.017378,0.016297,-0.003048,0.001042,0.002507,0.215401,0.239070,-0.946809
1760629595.699720,-0.119391,0.111023,-0.015728,0.986495,-0.004489,-0.004857,0.014928,-0.001488,0.000974,0.005648,0.215293,0.239050,-0.946839
1760629595.760095,-0.119431,0.110970,-0.015635,0.986498,-0.003966,-0.003741,0.007183,-0.002597,0.001676,0.003426,0.215208,0.239107,-0.946844
1760629595.760438,-0.119471,0.110916,-0.015542,0.986500,-0.003442,-0.002625,-0.000561,-0.003705,0.002377,0.001205,0.215124,0.239164,-0.946849
1760629595.760813,-0.119497,0.110855,-0.015584,0.986503,-0.003806,-0.005580,-0.008793,-0.003883,0.000192,0.001975,0.214993,0.239223,-0.946863
1760629595.792585,-0.119554,0.110856,-0.015669,0.986495,-0.002145,0.002143,-0.008182,-0.003398,-0.003290,0.004165,0.214971,0.239353,-0.946836
1760629595.798387,-0.119593,0.110874,-0.015774,0.986487,-0.000906,0.012790,-0.004703,-0.001681,-0.002024,0.004555,0.214979,0.239451,-0.946809
1760629595.852712,-0.119606,0.111009,-0.015810,0.986469,-0.003798,0.013303,-0.008475,-0.001943,0.000078,0.000994,0.215232,0.239485,-0.946743
1760629595.883095,-0.119638,0.111098,-0.015922,0.986453,-0.001996,0.010971,-0.008635,-0.001771,-0.000963,-0.000037,0.215376,0.239573,-0.946688
1760629595.883406,-0.119661,0.111182,-0.016008,0.986440,-0.000831,0.007686,-0.005114,-0.002099,-0.001253,0.000562,0.215518,0.239637,-0.946640
1760629595.911120,-0.119682,0.111215,-0.016041,0.986433,-0.000756,0.005884,-0.000442,-0.002098,-0.001712,0.001204,0.215574,0.239684,-0.946615
1760629595.918064,-0.119689,0.111254,-0.016024,0.986428,-0.001534,0.003981,0.001332,-0.002077,-0.000449,0.001445,0.215653,0.239694,-0.946594
1760629595.946945,-0.119698,0.111288,-0.015973,0.986424,-0.001276,0.003251,0.006387,-0.001794,-0.000110,0.002608,0.215731,0.239702,-0.946575
1760629595.977105,-0.119700,0.111327,-0.015914,0.986420,-0.001322,0.005825,0.007312,-0.000680,-0.001485,0.002747,0.215821,0.239692,-0.946556
1760629595.979685,-0.119674,0.111409,-0.015839,0.986415,0.000637,0.008492,0.009551,0.000149,-0.003186,0.002463,0.216000,0.239626,-0.946532
1760629596.013286,-0.119632,0.111506,-0.015734,0.986411,0.005235,0.013260,0.013524,-0.000234,-0.002018,0.001622,0.216216,0.239522,-0.946509
1760629596.015514,-0.119559,0.111650,-0.015602,0.986406,0.002995,0.009557,0.009179,-0.001841,-0.000035,-0.001178,0.216533,0.239352,-0.946480
1760629596.060828,-0.119521,0.111713,-0.015516,0.986405,0.002445,0.002640,0.006526,-0.001716,-0.001052,-0.001113,0.216680,0.239258,-0.946470
1760629596.062813,-0.119453,0.111731,-0.015463,0.986412,0.004907,-0.003580,0.002782,-0.000671,-0.002356,-0.000096,0.216731,0.239115,-0.946494
1760629596.091248,-0.119357,0.111700,-0.015427,0.986427,0.007373,0.004559,0.004640,0.000909,-0.002245,0.004960,0.216685,0.238921,-0.946554
1760629596.121219,-0.119309,0.111794,-0.015427,0.986423,-0.000975,0.013709,-0.001379,-0.000713,-0.000295,0.003590,0.216871,0.238827,-0.946535
1760629596.122194,-0.119329,0.111926,-0.015446,0.986405,-0.005027,0.011869,-0.003917,-0.001474,-0.000134,0.001497,0.217122,0.238871,-0.946466
1760629596.152300,-0.119419,0.112002,-0.015512,0.986384,-0.012951,0.005912,-0.011366,-0.001520,0.000434,0.000062,0.217250,0.239061,-0.946389
1760629596.153488,-0.119596,0.112012,-0.015658,0.986359,-0.019466,-0.000145,-0.018013,-0.000824,-0.001777,0.002009,0.217223,0.239438,-0.946300
1760629596.184856,-0.119821,0.111976,-0.015811,0.986334,-0.017690,0.003288,-0.013206,-0.000640,-0.003641,0.003733,0.217102,0.239908,-0.946209
1760629596.215037,-0.120014,0.111988,-0.015894,0.986308,-0.017949,-0.000168,-0.007537,-0.001770,-0.002178,0.001979,0.217094,0.240302,-0.946111
1760629596.215941,-0.120209,0.111939,-0.015927,0.986289,-0.018255,-0.002626,-0.001060,-0.002059,-0.002204,0.001163,0.216979,0.240687,-0.946039
1760629596.246021,-0.120363,0.111899,-0.015888,0.986275,-0.013802,-0.005387,0.005855,-0.001614,-0.000840,0.000250,0.216902,0.240978,-0.945983
1760629596.277781,-0.120468,0.111863,-0.015769,0.986268,-0.011684,-0.009026,0.011445,-0.002260,0.000300,-0.000830,0.216854,0.241155,-0.945948
1760629596.278064,-0.120560,0.111758,-0.015629,0.986271,-0.010572,-0.013025,0.010267,-0.001678,0.001909,-0.000746,0.216679,0.241303,-0.945951
1760629596.308278,-0.120612,0.111611,-0.015501,0.986284,-0.005442,-0.015698,0.008296,-0.001709,0.000941,0.000959,0.216422,0.241375,-0.945991
1760629596.363565,-0.120566,0.111507,-0.015398,0.986303,0.001519,-0.012065,0.009153,-0.001969,0.000573,0.001999,0.216246,0.241263,-0.946060
1760629596.363876,-0.120520,0.111402,-0.015295,0.986322,0.008480,-0.008432,0.010011,-0.002229,0.000206,0.003038,0.216071,0.241151,-0.946129
1760629596.365287,-0.120439,0.111329,-0.015190,0.986341,0.010835,-0.008677,0.009050,-0.002725,0.001133,0.000008,0.215958,0.240971,-0.946200
1760629596.401795,-0.120351,0.111251,-0.015145,0.986362,0.007931,-0.006846,0.002884,-0.001097,0.001346,0.002288,0.215823,0.240789,-0.946278
1760629596.402124,-0.120277,0.111238,-0.015134,0.986372,0.005753,0.003465,-0.000189,-0.000729,-0.000719,0.003854,0.215803,0.240642,-0.946319
1760629596.429985,-0.120251,0.111276,-0.015163,0.986371,0.003891,0.006894,-0.002137,-0.001832,-0.002051,0.003185,0.215873,0.240599,-0.946314
1760629596.436421,-0.120208,0.111353,-0.015196,0.986367,0.004839,0.007340,-0.001629,-0.002347,-0.001409,0.001648,0.216016,0.240523,-0.946301
1760629596.466525,-0.120197,0.111399,-0.015257,0.986362,0.001792,0.005558,-0.004748,-0.002766,0.000044,0.002140,0.216092,0.240514,-0.946286
1760629596.496308,-0.120189,0.111442,-0.015342,0.986357,0.000100,0.005492,-0.006878,-0.001472,-0.000077,0.002563,0.216155,0.240517,-0.946271
1760629596.496470,-0.120193,0.111506,-0.015413,0.986348,-0.001546,0.004325,-0.008401,-0.001491,-0.000738,0.001664,0.216262,0.240541,-0.946240
1760629596.525001,-0.120202,0.111546,-0.015490,0.986341,-0.002275,0.005487,-0.005918,-0.001402,-0.002664,0.002149,0.216322,0.240576,-0.946218
1760629596.569541,-0.120216,0.111621,-0.015509,0.986331,-0.001073,0.007868,-0.001968,-0.001322,-0.002366,0.001974,0.216463,0.240608,-0.946177
1760629596.569840,-0.120230,0.111697,-0.015527,0.986320,0.000128,0.010248,0.001982,-0.001241,-0.002069,0.001800,0.216603,0.240639,-0.946137
1760629596.577614,-0.120214,0.111780,-0.015544,0.986312,0.001080,0.012252,0.001087,-0.000397,-0.000825,0.001546,0.216763,0.240613,-0.946108
1760629596.606064,-0.120164,0.111919,-0.015570,0.986302,0.002192,0.012485,-0.003457,-0.000510,-0.000884,0.001131,0.217030,0.240521,-0.946070
1760629596.661454,-0.120125,0.112003,-0.015674,0.986296,0.001480,0.008976,-0.008474,-0.000124,-0.000761,0.001470,0.217171,0.240470,-0.946050
1760629596.661738,-0.120087,0.112088,-0.015779,0.986289,0.000767,0.005466,-0.013491,0.000263,-0.000638,0.001809,0.217312,0.240418,-0.946031
1760629596.662127,-0.120102,0.112147,-0.015933,0.986278,-0.001262,0.006027,-0.014563,0.000366,-0.001036,0.000736,0.217389,0.240481,-0.945997
1760629596.692445,-0.120135,0.112189,-0.016083,0.986267,-0.004838,0.003608,-0.014448,-0.000747,-0.001152,0.000888,0.217433,0.240578,-0.945963
1760629596.693557,-0.120208,0.112195,-0.016196,0.986256,-0.008434,0.001031,-0.008141,0.000129,-0.003366,0.000854,0.217412,0.240746,-0.945925
1760629596.723839,-0.120317,0.112159,-0.016245,0.986246,-0.009182,-0.003278,-0.000500,-0.000647,-0.003326,-0.000292,0.217323,0.240969,-0.945888
1760629596.753702,-0.120402,0.112097,-0.016193,0.986243,-0.009877,-0.008657,0.007872,-0.002199,-0.002847,0.000258,0.217211,0.241122,-0.945875
1760629596.754855,-0.120470,0.112012,-0.016049,0.986247,-0.009118,-0.012224,0.014512,-0.001225,-0.001684,0.000608,0.217076,0.241221,-0.945881
1760629596.787496,-0.120526,0.111910,-0.015844,0.986255,-0.010461,-0.012416,0.017334,-0.001244,0.000412,0.001579,0.216924,0.241285,-0.945899
1760629596.789640,-0.120597,0.111805,-0.015652,0.986261,-0.012430,-0.010298,0.014283,-0.002508,0.001706,0.002984,0.216763,0.241381,-0.945912
1760629596.819948,-0.120694,0.111738,-0.015491,0.986259,-0.011816,-0.004535,0.008339,-0.002103,0.001172,0.003018,0.216666,0.241533,-0.945895
1760629596.850657,-0.120770,0.111723,-0.015403,0.986253,-0.007325,-0.000877,0.003584,-0.002074,0.000923,0.002191,0.216654,0.241661,-0.945865
1760629596.852320,-0.120815,0.111714,-0.015382,0.986249,-0.002857,0.002352,-0.001358,-0.001863,0.000442,0.002294,0.216640,0.241744,-0.945847
1760629596.877826,-0.120840,0.111725,-0.015426,0.986244,0.000584,0.005976,-0.003633,-0.001095,0.001390,0.004782,0.216649,0.241803,-0.945830
1760629596.907647,-0.120862,0.111821,-0.015491,0.986229,-0.003821,0.010004,-0.009873,-0.001600,0.002399,0.002319,0.216818,0.241860,-0.945777
1760629596.911601,-0.120930,0.111905,-0.015619,0.986209,-0.007348,0.008159,-0.014404,-0.001647,0.001913,0.000535,0.216946,0.242021,-0.945706
1760629596.968520,-0.121069,0.111954,-0.015764,0.986185,-0.008512,0.009873,-0.013328,-0.001407,0.001320,0.000652,0.216998,0.242322,-0.945617
1760629596.968832,-0.121207,0.112004,-0.015908,0.986160,-0.009677,0.011587,-0.012251,-0.001167,0.000727,0.000770,0.217050,0.242623,-0.945528
1760629596.969361,-0.121359,0.112046,-0.016055,0.986134,-0.010643,0.007399,-0.008860,-0.001953,-0.001635,-0.000727,0.217088,0.242949,-0.945435
1760629597.010557,-0.121462,0.112053,-0.016151,0.986119,-0.004662,0.004255,-0.004935,-0.001545,-0.000408,0.002990,0.217071,0.243172,-0.945382
1760629597.012704,-0.121520,0.112095,-0.016211,0.986106,-0.002298,0.005991,-0.004586,-0.001286,0.000543,0.002046,0.217136,0.243298,-0.945335
1760629597.041456,-0.121554,0.112169,-0.016297,0.986092,-0.002138,0.007329,-0.007102,-0.000285,-0.001164,0.003025,0.217256,0.243383,-0.945285
1760629597.073785,-0.121529,0.112228,-0.016366,0.986087,0.003629,0.008760,-0.004383,-0.001325,-0.001765,0.003133,0.217354,0.243350,-0.945271
1760629597.074105,-0.121484,0.112280,-0.016429,0.986086,0.001613,0.005067,-0.003504,-0.000461,-0.000614,0.001091,0.217444,0.243277,-0.945270
1760629597.102322,-0.121468,0.112299,-0.016451,0.986085,0.002125,-0.002499,-0.000321,-0.000022,-0.000167,0.001269,0.217476,0.243251,-0.945269
1760629597.132494,-0.121463,0.112232,-0.016490,0.986093,0.002327,-0.007025,-0.002810,0.002011,0.000137,0.000575,0.217336,0.243248,-0.945302
1760629597.133625,-0.121436,0.112193,-0.016544,0.986099,-0.000568,0.002954,-0.006561,0.002760,0.001699,0.003494,0.217249,0.243209,-0.945332
1760629597.163523,-0.121490,0.112231,-0.016673,0.986086,-0.005731,0.003029,-0.014468,-0.000820,0.001927,-0.002347,0.217288,0.243343,-0.945288
1760629597.168486,-0.121564,0.112167,-0.016819,0.986082,-0.000534,-0.007278,-0.013011,-0.001673,-0.000801,0.000442,0.217123,0.243517,-0.945281
1760629597.203518,-0.121601,0.112022,-0.016902,0.986093,-0.001028,-0.015373,-0.010072,-0.002327,-0.000370,0.001832,0.216818,0.243606,-0.945328
1760629597.207114,-0.121668,0.111863,-0.016936,0.986102,-0.004581,-0.013295,-0.003156,-0.001377,-0.002787,0.004127,0.216495,0.243744,-0.945367
1760629597.259972,-0.121696,0.111776,-0.016810,0.986110,-0.001138,-0.010340,0.007638,-0.002170,-0.002404,0.002983,0.216356,0.243769,-0.945392
1760629597.260283,-0.121724,0.111690,-0.016684,0.986119,0.002305,-0.007386,0.018431,-0.002964,-0.002021,0.001839,0.216217,0.243795,-0.945417
1760629597.289863,-0.121688,0.111618,-0.016459,0.986135,0.005701,-0.008666,0.022605,-0.002720,0.001257,0.002196,0.216135,0.243676,-0.945467
1760629597.291071,-0.121607,0.111573,-0.016229,0.986154,0.004811,-0.010722,0.017574,-0.003232,0.003104,0.000434,0.216109,0.243468,-0.945527
1760629597.322012,-0.121563,0.111449,-0.016075,0.986176,0.005243,-0.013132,0.008235,-0.003405,0.004683,0.001769,0.215909,0.243349,-0.945603
1760629597.327357,-0.121497,0.111343,-0.016015,0.986197,0.002997,-0.010615,-0.002238,-0.003262,0.002707,0.002762,0.215721,0.243207,-0.945682
1760629597.359083,-0.121469,0.111214,-0.016088,0.986214,0.004624,-0.005014,-0.007981,-0.002755,0.000231,0.002113,0.215453,0.243167,-0.945754
1760629597.389523,-0.121421,0.111130,-0.016185,0.986228,0.006637,-0.006880,-0.007828,-0.003801,-0.001434,0.001655,0.215270,0.243094,-0.945814
1760629597.390845,-0.121380,0.111050,-0.016274,0.986240,0.008856,-0.000765,-0.002457,-0.004532,-0.002588,0.002106,0.215093,0.243034,-0.945870
1760629597.419552,-0.121301,0.111008,-0.016285,0.986255,0.007273,-0.008962,0.000977,-0.003672,-0.003083,-0.000392,0.215014,0.242883,-0.945926
1760629597.455716,-0.121220,0.110919,-0.016246,0.986275,0.007298,-0.006041,0.006619,-0.003163,-0.004184,0.002860,0.214854,0.242716,-0.946006
1760629597.457823,-0.121155,0.110891,-0.016174,0.986287,0.002518,-0.000544,0.006762,-0.002401,-0.002736,0.002123,0.214822,0.242575,-0.946049
1760629597.486174,-0.121114,0.110878,-0.016108,0.986295,0.002324,0.000383,0.003640,-0.001143,-0.002499,0.003268,0.214816,0.242480,-0.946075
1760629597.488218,-0.121038,0.110865,-0.016104,0.986306,0.005462,0.002767,-0.000871,-0.001638,-0.001135,0.001133,0.214795,0.242333,-0.946117
1760629597.517603,-0.120945,0.110832,-0.016178,0.986320,0.008493,-0.001126,-0.007312,-0.002841,0.000475,0.001146,0.214718,0.242167,-0.946177
1760629597.566118,-0.120909,0.110779,-0.016333,0.986328,0.004205,-0.002104,-0.011143,-0.002656,-0.002532,0.002142,0.214580,0.242131,-0.946218
