timestamp,quat_x,quat_y,quat_z,quat_w,rot_x,rot_y,rot_z,acc_x,acc_y,acc_z,grav_x,grav_y,grav_z,pitch_rad
1763624001.757544,-0.298875,-0.047424,-0.20489,0.93083,0.033714,-0.003246,0.002678,-3.5e-05,-0.00115,-0.002047,-0.210761,0.53697,-0.816849,0.21235345999996333
1763624001.757886,-0.298728,-0.04744,-0.204821,0.930892,0.02562,0.004324,0.007617,-0.000328,-0.002027,-0.002048,-0.210694,0.536734,-0.817022,0.21228481012906958
1763624001.782018,-0.298512,-0.047488,-0.204721,0.930981,0.028381,-0.010079,0.008992,-0.001412,0.000573,-0.000157,-0.210644,0.536374,-0.817271,0.2122337103884891
1763624001.817769,-0.298179,-0.047783,-0.2045,0.931121,0.021029,-0.019589,0.006122,-0.001263,-0.003012,-0.000485,-0.210939,0.535737,-0.817613,0.2125354304067945
1763624001.818115,-0.298085,-0.047955,-0.204437,0.931156,0.012075,-0.021269,0.000339,-0.000532,2e-05,-0.00277,-0.211186,0.535519,-0.817692,0.212788131491273
1763624001.843655,-0.298067,-0.048048,-0.204376,0.93117,0.001405,-0.008199,0.005124,-0.001181,0.000356,-0.002968,-0.211317,0.535462,-0.817695,0.21292224177272315
1763624001.877432,-0.298112,-0.048151,-0.204325,0.931161,-0.001014,-0.00517,-0.004184,-0.000852,-0.003927,-0.001393,-0.211497,0.535504,-0.817621,0.21310639625963987
1763624001.877756,-0.298133,-0.04818,-0.204356,0.931146,0.000106,-0.004438,-0.009327,-0.000708,-0.003432,0.003355,-0.211576,0.53552,-0.817591,0.2131870627722886
1763624001.90537,-0.298055,-0.048325,-0.204472,0.931139,0.00836,-0.002076,-0.019053,-0.000427,-0.001979,-0.003839,-0.211881,0.5353,-0.817656,0.2134991524268394
1763624001.935642,-0.297678,-0.048417,-0.204832,0.931175,0.02941,0.008599,-0.017109,-0.001442,0.004416,0.003285,-0.212117,0.534547,-0.818087,0.2137406984672433
1763624001.967747,-0.297442,-0.048506,-0.204889,0.931234,0.037389,-0.003577,-0.012447,-0.00312,0.003712,0.00517,-0.212226,0.534098,-0.818351,0.21385240607741907
1763624001.968094,-0.297205,-0.048595,-0.204946,0.931292,0.045367,-0.015754,-0.007784,-0.004798,0.003008,0.007055,-0.212335,0.53365,-0.818616,0.2139637612050516
1763624001.999224,-0.296473,-0.049012,-0.204883,0.931517,0.054576,-0.004604,0.001404,0.000629,0.005107,-0.011245,-0.212796,0.532256,-0.819403,0.2144356262454084
1763624001.999571,-0.296173,-0.049012,-0.204853,0.931619,0.055205,0.0256,0.00265,0.003281,0.004684,-0.012145,-0.212665,0.53176,-0.819759,0.21430155161128195
1763624002.022023,-0.295767,-0.048867,-0.20489,0.931748,0.043749,0.022309,0.000234,0.001035,0.005466,-0.000605,-0.212263,0.531136,-0.820268,0.21389008241295163
1763624002.057476,-0.295271,-0.048903,-0.204893,0.931903,0.0336,-0.007105,0.003244,0.000438,0.004488,0.006232,-0.212143,0.530287,-0.820848,0.21376731075214733
1763624002.057798,-0.295112,-0.049007,-0.204857,0.931955,0.032888,-0.023302,0.004774,0.000381,0.004938,0.007447,-0.212257,0.529984,-0.821014,0.2138840034312834
1763624002.083675,-0.294902,-0.049185,-0.204721,0.932042,0.035201,-0.020344,0.007081,0.001183,0.002537,0.002558,-0.21243,0.529584,-0.821227,0.21406110150918972
1763624002.116001,-0.294435,-0.049462,-0.204474,0.932229,0.041468,-0.014288,0.007506,-0.001316,-0.002857,0.002132,-0.212629,0.528735,-0.821723,0.21426464776330761
1763624002.147273,-0.294271,-0.049581,-0.204369,0.932298,0.03694,-0.013179,0.008248,-0.001293,-0.002423,0.000416,-0.212729,0.52843,-0.821893,0.21436704186445352
1763624002.147724,-0.294106,-0.049701,-0.204264,0.932367,0.032412,-0.01207,0.00899,-0.001269,-0.00199,-0.0013,-0.212829,0.528125,-0.822063,0.2144694095620859
1763624002.17562,-0.293784,-0.049933,-0.20396,0.932522,0.023783,-0.015786,0.009096,-0.002444,-0.006471,-0.002361,-0.212968,0.527552,-0.822395,0.21461164454488904
1763624002.207525,-0.293658,-0.050035,-0.203891,0.932572,0.022099,-0.008703,0.005553,-0.002224,-0.005393,-0.004773,-0.213071,0.52731,-0.822523,0.21471715628742113
1763624002.207864,-0.293531,-0.050137,-0.203822,0.932621,0.020416,-0.001621,0.002011,-0.002004,-0.004314,-0.007186,-0.213174,0.527068,-0.822652,0.21482247238547428
1763624002.237452,-0.293138,-0.050054,-0.203879,0.932737,0.024063,0.022734,-0.011008,-0.0005,-0.006161,-0.003613,-0.212904,0.526431,-0.823129,0.21454624649825466
1763624002.237757,-0.292934,-0.049969,-0.20401,0.932777,0.028892,0.037672,-0.010077,0.001131,-0.006221,-0.00102,-0.212742,0.526095,-0.823386,0.2143803881247063
1763624002.263624,-0.292593,-0.049859,-0.204203,0.932848,0.030952,0.025686,-0.018458,-0.001622,-0.005293,0.00377,-0.212519,0.525527,-0.823806,0.21415220563120374
1763624002.296564,-0.292022,-0.049869,-0.204584,0.932943,0.02361,0.006592,-0.018331,-0.003887,0.002195,-0.001137,-0.212536,0.524474,-0.824473,0.21416949683221545
1763624002.322042,-0.291878,-0.049875,-0.204611,0.932981,0.015508,0.007402,-0.005749,-0.003031,0.002801,-0.003315,-0.212509,0.524224,-0.824639,0.2141418545556007
1763624002.322469,-0.291735,-0.049882,-0.204638,0.93302,0.007406,0.008211,0.006833,-0.002174,0.003408,-0.005494,-0.212481,0.523974,-0.824805,0.21411321554213705
1763624002.357689,-0.291672,-0.049766,-0.204605,0.933053,-0.002222,0.011369,0.008025,-0.001837,-0.004086,-0.002876,-0.212223,0.523927,-0.824901,0.2138492433077167
1763624002.358006,-0.291698,-0.049673,-0.204639,0.933042,-0.004039,0.017115,-0.002392,-0.002187,-0.007814,-0.002744,-0.21208,0.524002,-0.82489,0.21370293710519597
1763624002.38344,-0.291717,-0.049561,-0.204744,0.933019,-0.002152,0.01452,-0.010641,-0.001466,-0.005492,-0.002229,-0.211937,0.52406,-0.82489,0.2135565941455774
1763624002.41766,-0.291646,-0.049415,-0.205078,0.932976,0.001507,0.018159,-0.018583,-0.001172,-0.001721,-0.000164,-0.211825,0.523929,-0.825002,0.21344198780797025
1763624002.418101,-0.291543,-0.049349,-0.205252,0.932973,0.000999,0.014414,-0.014717,-0.001583,0.001835,0.001004,-0.211762,0.523747,-0.825134,0.21337747614670907
1763624002.444839,-0.291478,-0.049339,-0.205357,0.932971,0.006895,0.01232,-0.00961,-0.001026,0.001237,0.000664,-0.211777,0.523616,-0.825213,0.2133928756076528
1763624002.477614,-0.291255,-0.049203,-0.20551,0.933014,0.006503,0.014894,-0.001144,-0.00037,-0.000138,-0.000301,-0.211526,0.523266,-0.825499,0.2131361173662267
1763624002.477947,-0.291181,-0.049147,-0.205533,0.933035,0.005919,0.016869,-0.001332,-0.000998,-0.000373,-0.000814,-0.211407,0.523162,-0.825596,0.21301425588383346
1763624002.507046,-0.291119,-0.049064,-0.205584,0.933048,0.005525,0.017063,-0.006911,-0.001305,-0.00124,-0.000831,-0.211257,0.523082,-0.825685,0.21286080436264365
1763624002.53771,-0.291106,-0.048929,-0.205795,0.933012,-0.002303,0.009516,-0.009222,-0.000324,-0.002852,-0.001789,-0.211118,0.523072,-0.825727,0.2127185766929418
1763624002.538045,-0.291097,-0.048893,-0.205888,0.932996,0.000108,0.008711,-0.008812,0.000642,-0.001736,-0.001235,-0.211101,0.523052,-0.825744,0.21270118744256292
1763624002.564256,-0.291084,-0.048823,-0.205948,0.932991,-0.000359,0.004636,-0.004621,0.000757,-0.001198,-0.000721,-0.210999,0.523047,-0.825773,0.21259687915419362
1763624002.59752,-0.291036,-0.048801,-0.206016,0.932992,0.00371,0.001723,0.002919,0.000246,0.001291,0.001088,-0.210977,0.52296,-0.825833,0.21257450088856947
1763624002.597879,-0.291019,-0.048821,-0.205992,0.933002,0.003555,-0.00523,0.004924,-0.000589,0.000253,0.003955,-0.210995,0.522928,-0.825849,0.2125928556390297
1763624002.623177,-0.290986,-0.048859,-0.205946,0.93302,0.00435,-0.004645,0.001922,0.000627,0.000351,0.001612,-0.211028,0.522867,-0.825879,0.21262664980338725
1763624002.657636,-0.290943,-0.049027,-0.205846,0.933047,0.006803,-0.01659,0.001017,-2.3e-05,0.001907,0.001498,-0.211268,0.522743,-0.825897,0.21287203151822875
1763624002.657983,-0.290937,-0.049103,-0.205776,0.93306,0.007447,-0.014252,0.001817,-0.000257,0.001563,-0.001384,-0.211368,0.522715,-0.825889,0.21297436611112097
1763624002.68437,-0.290916,-0.049233,-0.205747,0.933066,0.007797,-0.012187,0.003812,7.9e-05,0.000387,-0.001369,-0.211585,0.522628,-0.825889,0.21319629706035834
1763624002.717552,-0.290828,-0.04942,-0.205584,0.933119,0.01106,-0.014568,0.004479,0.000201,5.2e-05,0.00117,-0.21181,0.522434,-0.825954,0.21342652652932714
1763624002.717934,-0.290813,-0.049509,-0.2055,0.933138,0.009497,-0.017571,0.007771,0.000156,-0.002133,0.00085,-0.211921,0.522389,-0.825953,0.21354028209513798
1763624002.747236,-0.29079,-0.049646,-0.205434,0.933152,0.010367,-0.0132,0.003213,-0.000506,-0.002926,-0.004719,-0.212131,0.522305,-0.825953,0.213755027097204
1763624002.77771,-0.290659,-0.049735,-0.205404,0.933195,0.005492,-0.00015,-0.003346,-0.001006,-0.000164,-0.002891,-0.212229,0.522052,-0.826087,0.21385544747076113
1763624002.778079,-0.290644,-0.049785,-0.205418,0.933194,0.001344,-0.004535,-0.003764,0.000553,-0.000202,-0.004035,-0.212325,0.522,-0.826096,0.213953541267603
1763624002.80474,-0.290647,-0.049766,-0.205462,0.933184,0.000452,0.001879,-0.004221,-0.000837,-0.001828,-0.003204,-0.212315,0.522004,-0.826096,0.21394331559875857
1763624002.841201,-0.290592,-0.049716,-0.20565,0.933163,-0.001427,-0.006654,-0.008025,-0.001108,-0.002018,0.003109,-0.212306,0.52189,-0.82617,0.21393416623016298
1763624002.8635,-0.290601,-0.049766,-0.205679,0.933151,-0.002312,0.003122,-0.003609,0.000905,0.003691,-0.003827,-0.212419,0.521877,-0.826149,0.2140498335733902
1763624002.863838,-0.290637,-0.049748,-0.205681,0.93314,-0.00448,-0.002517,0.008524,0.000556,-0.002723,0.002659,-0.212401,0.521945,-0.826111,0.21403135375313273
1763624002.897617,-0.290585,-0.049811,-0.205605,0.93317,0.007453,-0.012349,0.00092,-0.003354,-0.007982,0.004649,-0.212455,0.521848,-0.826158,0.21408668554966304
1763624002.924336,-0.290598,-0.050041,-0.205529,0.93317,-0.003822,-0.025466,-0.000686,-0.0018,-0.001238,-0.009255,-0.212846,0.521786,-0.826097,0.2144867506901724
1763624002.924667,-0.290714,-0.050004,-0.205487,0.933145,-0.022719,0.029738,0.006918,0.004009,0.006199,-0.018086,-0.212797,0.522007,-0.82597,0.21443660083695087
1763624002.959416,-0.290918,-0.049584,-0.205556,0.933089,-0.031278,0.030901,0.002219,-0.000329,-0.001601,-0.00153,-0.212133,0.52252,-0.825816,0.2137571612041899
1763624002.987614,-0.291129,-0.049323,-0.205692,0.933007,-0.028742,0.011947,-0.00594,-0.001538,-0.001656,0.005772,-0.211803,0.522961,-0.825622,0.21341940361671274
1763624002.987947,-0.291312,-0.049374,-0.205798,0.932924,-0.018169,-0.013274,-0.010181,-0.001886,-0.000871,0.009371,-0.212028,0.523222,-0.825399,0.2136496067059996
1763624003.017775,-0.291448,-0.049516,-0.205788,0.932876,-0.007119,-0.023519,-0.008298,0.000244,0.001938,0.002369,-0.212338,0.523391,-0.825212,0.21396685512499097
1763624003.042001,-0.291503,-0.049623,-0.205809,0.932849,-0.002159,-0.004565,0.00356,0.001048,0.002526,-0.001202,-0.212569,0.52343,-0.825127,0.2142033930552219
1763624003.052208,-0.291527,-0.049692,-0.205792,0.932841,-0.003484,-0.001853,0.005075,-0.000725,0.001057,0.000456,-0.212697,0.523444,-0.825086,0.21433423289739598
1763624003.077671,-0.291617,-0.049677,-0.205715,0.932831,-0.00562,-0.006646,0.00775,-0.003433,0.001877,7.5e-05,-0.21266,0.52362,-0.824983,0.2142965202700589
1763624003.103441,-0.291755,-0.049719,-0.205597,0.932811,-0.012851,-0.008657,0.010887,-0.002769,0.000952,-0.000447,-0.212725,0.52386,-0.824814,0.21436301739431604
1763624003.103788,-0.291908,-0.049747,-0.205498,0.932784,-0.012019,-0.013307,0.007358,-0.001604,-0.000869,0.001146,-0.21278,0.524128,-0.82463,0.21441922268923005
1763624003.136734,-0.292074,-0.049897,-0.205421,0.932741,-0.005074,-0.015769,-0.002399,-0.001119,-0.003891,-0.001282,-0.213079,0.524358,-0.824406,0.21472533858963608
1763624003.164448,-0.292155,-0.050041,-0.205481,0.932694,-0.007235,-0.009409,-0.011545,-0.002065,0.001959,-0.001811,-0.21341,0.524418,-0.824283,0.21506398873643592
1763624003.164759,-0.292279,-0.050106,-0.205505,0.932647,-0.013774,0.005641,-0.004092,-6.4e-05,6.1e-05,-5.7e-05,-0.213592,0.524592,-0.824125,0.2152503066867761
1763624003.197653,-0.292337,-0.050112,-0.205585,0.932611,-0.003509,-0.007264,-0.008371,-0.006374,-0.004237,0.00534,-0.213671,0.524669,-0.824056,0.21533108360308312
1763624003.223466,-0.292401,-0.050268,-0.205631,0.932572,-0.00701,-0.017702,-0.005861,-0.003955,-0.000271,-0.001782,-0.21401,0.524697,-0.82395,0.2156781459566572
1763624003.223794,-0.292507,-0.050308,-0.205575,0.932549,-0.011062,0.015903,0.012341,-0.002486,0.007184,-0.013711,-0.214094,0.52487,-0.823818,0.21576413570818642
1763624003.261317,-0.292571,-0.050005,-0.205549,0.932551,-0.015338,0.026706,0.008958,-0.003332,0.000564,-0.004271,-0.213539,0.525117,-0.823804,0.2151961125211115
1763624003.287725,-0.292665,-0.049771,-0.205624,0.932518,-0.011906,0.022955,0.004152,-0.002811,-0.00121,0.001592,-0.213183,0.525362,-0.82374,0.21483172055789806
1763624003.288037,-0.292709,-0.049647,-0.205683,0.932497,-0.001528,0.005201,-0.007185,-0.002536,-0.002766,0.003213,-0.213002,0.525477,-0.823713,0.21464655000250982
1763624003.316556,-0.292637,-0.049617,-0.205841,0.932486,0.005413,0.006874,-0.018842,-0.001692,-0.001648,0.000577,-0.213008,0.525334,-0.823803,0.21465262917838843
1763624003.342435,-0.292449,-0.049611,-0.2061,0.932489,0.021546,0.020164,-0.026893,-0.001899,-0.002979,-0.000816,-0.213071,0.524961,-0.824025,0.21471701120860656
1763624003.342789,-0.292144,-0.049629,-0.206459,0.932504,0.026933,0.023003,-0.027764,-0.002094,0.002073,-0.001812,-0.213189,0.524358,-0.824378,0.21483784660855282
1763624003.377799,-0.291888,-0.049467,-0.206678,0.932544,0.014157,0.020143,-0.00618,-0.003131,0.006085,-0.000116,-0.212913,0.52395,-0.824709,0.2145553028566339
1763624003.40447,-0.291793,-0.049341,-0.206758,0.932563,-0.002604,0.012684,0.004392,-0.002411,0.003024,0.001558,-0.212688,0.523828,-0.824844,0.21432512653083002
1763624003.404773,-0.29187,-0.049338,-0.20666,0.932561,-0.011204,-0.009093,0.011242,-0.000797,-0.003304,-0.002008,-0.212657,0.523981,-0.824755,0.21429336649783678
1763624003.438109,-0.291931,-0.049312,-0.206639,0.932548,-0.003703,0.011207,-0.00516,-0.000666,-0.002694,-0.001373,-0.212621,0.5241,-0.824689,0.2142564642800911
1763624003.464734,-0.291928,-0.049271,-0.206738,0.932529,0.001135,0.00549,-0.008458,-0.000344,-0.002072,-0.002042,-0.212599,0.524089,-0.824701,0.2142340683544859
1763624003.465082,-0.291914,-0.049289,-0.20688,0.932501,-0.000452,0.004545,-0.01286,-0.000115,-0.000698,-0.000691,-0.212706,0.524026,-0.824714,0.21434347298878853
1763624003.500159,-0.291951,-0.04927,-0.207042,0.932454,-0.011574,0.009692,-0.010674,0.000208,-7.1e-05,-0.00136,-0.212776,0.52406,-0.824674,0.21441517354634182
1763624003.523353,-0.29204,-0.049141,-0.207223,0.932393,-0.01892,0.012151,-0.011905,-0.000113,-0.000687,-0.000685,-0.212672,0.524226,-0.824595,0.2143087944121517
1763624003.525056,-0.292181,-0.049045,-0.207425,0.932309,-0.021532,0.014483,-0.016614,0.001445,0.000246,-0.001887,-0.212662,0.524459,-0.82445,0.21429845379318385
1763624003.583502,-0.292336,-0.048933,-0.207648,0.932217,-0.017379,0.007278,-0.01842,0.00061,0.00052,0.003565,-0.212638,0.524719,-0.824291,0.21427384532264027
1763624003.585177,-0.292354,-0.048996,-0.207811,0.932171,-0.006022,0.0013,-0.017079,0.000314,0.000984,0.003146,-0.212854,0.524684,-0.824257,0.21449500101612726
1763624003.620076,-0.292365,-0.04912,-0.207925,0.932136,-0.005879,-0.010064,-0.012632,-7.4e-05,0.002025,0.00286,-0.213154,0.524621,-0.82422,0.2148019707312088
1763624003.643331,-0.292414,-0.049296,-0.207995,0.932096,-0.004566,-0.01542,-0.010939,-9.4e-05,0.000663,0.001082,-0.213539,0.524609,-0.824128,0.21519603938840795
1763624003.648093,-0.29244,-0.049477,-0.208062,0.932063,0.000467,-0.015892,-0.013045,0.000586,-0.001707,-0.001019,-0.213923,0.524557,-0.824062,0.21558903394434853
1763624003.678732,-0.292408,-0.04967,-0.208168,0.932039,0.007221,-0.010225,-0.015144,0.000616,-0.000225,-0.001191,-0.214329,0.524392,-0.824061,0.21600476775099184
1763624003.702128,-0.292359,-0.04983,-0.208283,0.93202,0.007808,-0.011607,-0.014293,0.000371,0.002797,-0.001431,-0.214672,0.524211,-0.824086,0.21635610056980317
1763624003.703779,-0.292316,-0.049957,-0.208341,0.932014,0.004358,-0.00739,-0.006942,3.8e-05,0.004369,-0.000177,-0.214923,0.524068,-0.824112,0.2166130138553606
1763624003.738743,-0.292303,-0.050068,-0.20833,0.932015,0.002247,-0.013239,0.001981,-0.000288,0.002999,0.003348,-0.215119,0.524,-0.824104,0.21681372653420522
1763624003.772145,-0.292308,-0.050228,-0.208235,0.932026,0.002239,-0.021624,0.001907,-0.000689,0.000199,0.002345,-0.215365,0.523958,-0.824067,0.21706553152426877
1763624003.772452,-0.292314,-0.050422,-0.20817,0.932028,0.004802,-0.011942,0.001573,-0.000438,-0.000232,-0.002014,-0.215691,0.523896,-0.824021,0.21739940574104188
1763624003.797535,-0.292291,-0.050501,-0.208126,0.93204,0.009055,-0.008137,0.000501,-0.002022,-0.004297,0.001408,-0.215805,0.523833,-0.824031,0.2175161924016236
1763624003.825692,-0.29219,-0.0506,-0.208084,0.932076,0.017019,-0.008939,-0.002533,-0.002951,-0.006258,0.000957,-0.215927,0.523628,-0.824129,0.21764119780227656
1763624003.825992,-0.292064,-0.050729,-0.208064,0.932113,0.012993,-0.002999,-0.000617,-0.002049,-0.000674,-0.006819,-0.216106,0.523363,-0.824251,0.21782441744215963
1763624003.855733,-0.291979,-0.050652,-0.208072,0.932142,-0.001032,0.020905,0.006647,0.000161,0.004815,-0.009465,-0.215934,0.523254,-0.824365,0.21764830791445133
1763624003.88439,-0.291972,-0.050368,-0.208092,0.932155,-0.012152,0.025994,0.00922,-0.001031,0.002001,-0.001977,-0.215415,0.523364,-0.824431,0.21711679033735165
1763624003.884711,-0.292033,-0.050115,-0.20811,0.932146,-0.014921,0.017996,0.005038,-0.001483,-0.000172,0.002486,-0.214978,0.523576,-0.82441,0.21666938933619784
1763624003.91757,-0.292108,-0.049996,-0.20813,0.932124,-0.013374,0.004204,0.003916,-0.001504,0.000909,0.004609,-0.214798,0.52375,-0.824346,0.21648515460648346
1763624003.942106,-0.292187,-0.049959,-0.208121,0.932103,-0.005989,-0.000347,-0.0,-0.000739,0.000447,0.002265,-0.214754,0.523903,-0.824261,0.21643996480431424
1763624003.943959,-0.292219,-0.049985,-0.208106,0.932095,-0.000361,-0.001034,0.001863,-0.001294,0.00053,0.000953,-0.214807,0.523947,-0.824219,0.21649427129315335
1763624003.97571,-0.292209,-0.049981,-0.208088,0.932103,0.002851,-3.6e-05,0.002781,-0.002218,0.001901,0.000499,-0.214785,0.523936,-0.824232,0.21647169579604092
1763624004.004517,-0.292194,-0.050002,-0.208039,0.932117,0.004659,0.001859,0.004624,-0.002486,0.001399,6e-06,-0.214791,0.523913,-0.824245,0.21647784939074483
1763624004.004827,-0.292158,-0.05001,-0.207972,0.932143,0.007826,-0.003173,0.005461,-0.002315,0.000679,0.000192,-0.214755,0.523864,-0.824285,0.21644108415705077
1763624004.0381,-0.292085,-0.050067,-0.207889,0.932181,0.012121,-0.005063,0.003405,-0.002125,0.000292,-0.000414,-0.214786,0.523736,-0.824359,0.2164726904183038
1763624004.062178,-0.292002,-0.050177,-0.207807,0.93222,0.014306,-0.011972,0.00271,-0.002314,-0.00092,-0.00106,-0.214912,0.523565,-0.824435,0.21660166339584477
1763624004.06855,-0.291919,-0.050341,-0.207738,0.932252,0.013461,-0.011732,0.001895,-0.001851,-0.000206,-0.002072,-0.215146,0.523369,-0.824498,0.2168413434492531
1763624004.099049,-0.291838,-0.050457,-0.207674,0.932286,0.013007,-0.008618,0.001341,-0.002286,-0.002998,0.001429,-0.215295,0.523196,-0.824569,0.21699390094739773
1763624004.128909,-0.29176,-0.050573,-0.207643,0.932311,0.010718,-0.010884,-0.000492,-0.004286,-0.002271,0.002043,-0.215463,0.52302,-0.824637,0.21716589672691802
1763624004.129259,-0.291738,-0.050743,-0.207599,0.932318,0.002565,-0.010398,0.00535,-0.003721,0.000564,-0.001852,-0.215746,0.522917,-0.824628,0.2174557728806788
1763624004.157435,-0.291734,-0.05078,-0.207504,0.932338,0.00107,-0.002017,0.009608,-0.002925,-0.000474,-0.002112,-0.21576,0.522916,-0.824625,0.21747010531614738
1763624004.183412,-0.291717,-0.050719,-0.207404,0.932369,0.000826,0.010134,0.012072,-0.001823,-9.1e-05,-0.004691,-0.215585,0.522936,-0.824658,0.2172909032278809
1763624004.183744,-0.291682,-0.050599,-0.207343,0.9324,-0.001836,0.009408,0.008892,-0.002845,-0.000142,-0.000414,-0.215314,0.522946,-0.824723,0.21701328702775516
1763624004.21746,-0.291677,-0.050538,-0.207303,0.932414,-0.002615,0.002889,0.004852,-0.001429,0.000321,0.000853,-0.215176,0.522975,-0.82474,0.21687208875561345
1763624004.244327,-0.291694,-0.050535,-0.207284,0.932413,-0.001502,-2.1e-05,0.000944,-0.001026,-0.000485,0.001115,-0.215165,0.523009,-0.824722,0.21686069939667224
1763624004.244639,-0.291673,-0.050605,-0.207318,0.932408,0.003009,-0.004254,-0.004531,-0.001027,-0.000433,0.000107,-0.215307,0.522934,-0.824732,0.21700619825782072
1763624004.29881,-0.29162,-0.050652,-0.207391,0.932406,0.004564,0.000304,-0.0037,-0.001171,0.000873,-0.001016,-0.215414,0.522807,-0.824784,0.21711587385469397
1763624004.298981,-0.291567,-0.050698,-0.207463,0.932404,0.006119,0.004862,-0.002868,-0.001316,0.002179,-0.00214,-0.215521,0.522681,-0.824837,0.2172252481177535
1763624004.345942,-0.291468,-0.050651,-0.207512,0.932427,0.008459,0.007687,-0.002388,-0.001198,0.0008,-0.000713,-0.215422,0.522524,-0.824961,0.21712410779601019
1763624004.346296,-0.291369,-0.050603,-0.20756,0.932449,0.010799,0.010511,-0.001908,-0.00108,-0.000579,0.000714,-0.215323,0.522368,-0.825086,0.21702266141574614
1763624004.347266,-0.291235,-0.050575,-0.207625,0.932479,0.013017,0.007742,-0.003478,-0.00057,0.000114,0.001404,-0.215255,0.522139,-0.825249,0.21695296975907438
1763624004.428495,-0.291094,-0.050567,-0.207659,0.932515,0.012504,0.007432,-0.003314,-0.000371,6.7e-05,0.000699,-0.215206,0.521898,-0.825414,0.21690283192886992
1763624004.428808,-0.290953,-0.050559,-0.207694,0.932552,0.011991,0.007121,-0.003149,-0.000173,2.1e-05,-6e-06,-0.215157,0.521656,-0.82558,0.21685260835248485
1763624004.429283,-0.290812,-0.050552,-0.207728,0.932589,0.011478,0.006811,-0.002985,2.6e-05,-2.5e-05,-0.000711,-0.215107,0.521415,-0.825746,0.2168012744171641
1763624004.476853,-0.290694,-0.050535,-0.207754,0.932621,0.011391,0.004336,-0.002038,-0.000295,0.00047,-0.000776,-0.215046,0.521216,-0.825887,0.21673890544685093
1763624004.477796,-0.290593,-0.050543,-0.207788,0.932644,0.008773,0.002489,-0.000489,-0.000916,0.001619,0.000532,-0.215041,0.521036,-0.826002,0.21673376238880088
1763624004.529853,-0.290507,-0.05056,-0.207759,0.932677,0.009042,0.00213,0.001079,-0.000915,0.001284,0.000356,-0.215024,0.520888,-0.826099,0.21671649412073613
1763624004.530695,-0.290333,-0.050595,-0.207702,0.932742,0.009581,0.001411,0.004216,-0.000915,0.000613,5e-06,-0.214989,0.520594,-0.826294,0.21668054912644752
1763624004.530256,-0.29042,-0.050578,-0.20773,0.932709,0.009312,0.00177,0.002647,-0.000915,0.000948,0.000181,-0.215006,0.520741,-0.826197,0.2166979457904104
1763624004.619839,-0.290239,-0.050622,-0.207635,0.932784,0.010636,3.1e-05,0.004207,-0.000837,4.2e-05,-0.000458,-0.214966,0.520439,-0.826398,0.2166569290580556
1763624004.620292,-0.290145,-0.050649,-0.207568,0.932827,0.011691,-0.001348,0.004198,-0.000759,-0.000528,-0.000921,-0.214943,0.520284,-0.826501,0.21663348324512804
1763624004.620574,-0.289957,-0.050703,-0.207435,0.932912,0.013802,-0.004107,0.00418,-0.000604,-0.001669,-0.001847,-0.214897,0.519973,-0.826709,0.21658631930332742
1763624004.620475,-0.290051,-0.050676,-0.207502,0.932869,0.012747,-0.002727,0.004189,-0.000682,-0.001098,-0.001384,-0.21492,0.520128,-0.826605,0.2166099623489078
1763624004.620628,-0.289863,-0.05073,-0.207369,0.932955,0.014857,-0.005486,0.004171,-0.000526,-0.002239,-0.00231,-0.214874,0.519818,-0.826812,0.2165628505283278
1763624004.674235,-0.289751,-0.050753,-0.207306,0.933002,0.012599,0.00025,0.005634,-0.00027,-0.001144,-0.00298,-0.214839,0.519634,-0.826937,0.21652696743265523
1763624004.67447,-0.289528,-0.050799,-0.20718,0.933097,0.008082,0.011723,0.008559,0.000243,0.001045,-0.004321,-0.214769,0.519267,-0.827186,0.21645523639703923
1763624004.674337,-0.28964,-0.050776,-0.207243,0.933049,0.01034,0.005987,0.007096,-1.4e-05,-5e-05,-0.00365,-0.214804,0.519451,-0.827061,0.21649114113842585
1763624004.830029,-0.288676,-0.051057,-0.206412,0.933517,0.008315,-0.010076,0.017168,0.003596,0.001736,-0.017721,-0.214498,0.51789,-0.828118,0.2161779625481594
1763624004.975998,-0.288275,-0.050545,-0.205973,0.933766,0.020082,-0.005268,0.018735,-0.002743,0.000916,-0.000467,-0.213148,0.51754,-0.828686,0.21479585378347224
1763624005.069708,-0.288238,-0.050522,-0.205784,0.93382,0.015739,-0.002721,0.015488,-0.002199,-0.000176,-0.001205,-0.212987,0.517532,-0.828732,0.21463114047739845
1763624005.070657,-0.288166,-0.050476,-0.205408,0.933927,0.007053,0.002373,0.008996,-0.00111,-0.002361,-0.00268,-0.212665,0.517516,-0.828825,0.21430153254570627
1763624005.070047,-0.288202,-0.050499,-0.205596,0.933873,0.011396,-0.000174,0.012242,-0.001654,-0.001269,-0.001942,-0.212826,0.517524,-0.828779,0.2144662463364442
1763624005.117338,-0.288097,-0.050431,-0.205293,0.933976,0.010641,0.008303,0.007325,0.000548,-0.002639,-0.001443,-0.212492,0.517445,-0.828914,0.2141244311354639
1763624005.213577,-0.287116,-0.050379,-0.205249,0.934291,0.008601,0.007337,-0.011636,-0.001197,-0.003241,0.000677,-0.211999,0.51582,-0.830052,0.2136199833287022
1763624005.372199,-0.286195,-0.049896,-0.206261,0.934376,0.008792,0.010163,0.00504,0.0,0.0,0.0,-0.211305,0.514245,-0.831205,0.21290997165756104
1763624005.464826,-0.286117,-0.049825,-0.206198,0.934418,0.006662,0.007951,0.013217,0.000228,0.001378,0.001365,-0.211109,0.514157,-0.831309,0.21270949029320102
1763624005.465181,-0.286124,-0.049798,-0.206087,0.934442,0.004889,0.005994,0.01059,0.000205,0.000111,0.000549,-0.210999,0.514206,-0.831307,0.21259688703876245
1763624005.465538,-0.286131,-0.049771,-0.205975,0.934466,0.003116,0.004037,0.007963,0.000182,-0.001157,-0.000267,-0.210889,0.514256,-0.831304,0.21248435186364212
1763624005.465852,-0.286138,-0.049743,-0.205863,0.93449,0.001342,0.00208,0.005336,0.000159,-0.002424,-0.001083,-0.21078,0.514305,-0.831302,0.21237272545533573
1763624005.480556,-0.28613,-0.049732,-0.205817,0.934503,0.001528,0.002214,-8.1e-05,0.000492,-0.003901,-0.002098,-0.210731,0.514306,-0.831313,0.21232274366399573
1763624005.508281,-0.286105,-0.049717,-0.205845,0.934505,-0.000927,0.003134,-0.00462,7.3e-05,-0.00298,-0.002073,-0.210707,0.514265,-0.831345,0.21229809334268143
1763624005.538204,-0.286109,-0.049713,-0.20591,0.93449,-0.003125,0.001717,-0.004824,3.6e-05,-0.001481,-0.00103,-0.210738,0.514258,-0.831341,0.21232989008125228
1763624005.569558,-0.286113,-0.049697,-0.205972,0.934476,-0.004159,-0.000477,-0.002025,-0.001249,0.00042,-5.9e-05,-0.210744,0.514259,-0.831339,0.21233600291323793
1763624005.569685,-0.28615,-0.049718,-0.205974,0.934463,-0.005265,-0.004311,0.003643,-0.001484,0.000863,0.000158,-0.210798,0.514312,-0.831292,0.21239133726642143
1763624005.598306,-0.286182,-0.049747,-0.205914,0.934465,-0.004547,-0.004436,0.008679,-0.001013,-0.000581,-0.000267,-0.210831,0.514368,-0.83125,0.21242491339356442
1763624005.628699,-0.28622,-0.049771,-0.205833,0.93447,-0.004095,-0.005263,0.009111,-4e-05,-0.000442,-5.4e-05,-0.210846,0.514438,-0.831203,0.21244023608097476
1763624005.628993,-0.286252,-0.049801,-0.205733,0.934481,-0.002408,-0.005423,0.007417,0.000307,0.000409,-0.000715,-0.210859,0.514502,-0.83116,0.21245355094915053
1763624005.656999,-0.286303,-0.049809,-0.205652,0.934482,-0.004504,-0.002313,0.005261,0.000527,0.000447,-0.002077,-0.210849,0.514603,-0.831099,0.21244350163488349
1763624005.686011,-0.286354,-0.049793,-0.205623,0.934474,-0.003518,0.0015,0.002976,0.001833,-0.001409,-0.001057,-0.210823,0.514704,-0.831043,0.21241691273573038
1763624005.686353,-0.286363,-0.049782,-0.205639,0.934468,0.001122,-0.002421,-0.002897,0.001697,-0.002069,0.001441,-0.210814,0.514721,-0.831035,0.2124076617189776
1763624005.715628,-0.286332,-0.04982,-0.205678,0.934467,0.003931,0.000638,-0.005257,0.00154,-0.000144,-0.001708,-0.210894,0.514642,-0.831064,0.21248943505760623
1763624005.74753,-0.286274,-0.04989,-0.205718,0.934472,0.006715,-0.004973,-0.003721,0.000798,-8.8e-05,0.002006,-0.211026,0.514503,-0.831116,0.2126245739294995
1763624005.748026,-0.286178,-0.050018,-0.205698,0.934499,0.011516,-0.012583,-0.001485,-0.000893,-0.001466,0.002637,-0.211216,0.51429,-0.8312,0.21281887677302344
1763624005.775893,-0.286107,-0.050231,-0.205629,0.934525,0.009668,-0.028251,0.000986,-0.003286,-0.000139,0.000474,-0.211547,0.51409,-0.83124,0.21315744728174557
1763624005.805602,-0.286206,-0.050398,-0.205391,0.934538,-0.012004,0.011703,0.008779,0.000509,-0.000491,-0.009897,-0.211766,0.514238,-0.831093,0.21338146588910026
1763624005.805313,-0.28612,-0.050456,-0.205506,0.934536,-0.002888,-0.01356,0.008551,-0.000407,0.003246,-0.009714,-0.211904,0.514041,-0.831179,0.2135227949600514
1763624005.837064,-0.28633,-0.050186,-0.205394,0.93451,-0.018945,0.019745,0.002313,2.7e-05,-0.000909,-0.004853,-0.211419,0.514541,-0.830993,0.2130265715524128
1763624005.866224,-0.286498,-0.050025,-0.205467,0.934451,-0.02129,0.008487,-0.005649,-0.000851,-0.000905,0.001797,-0.211224,0.51488,-0.830832,0.21282717358258643
1763624005.866522,-0.286678,-0.049986,-0.205536,0.934383,-0.022977,-0.007265,-0.007695,-0.000126,0.001317,0.002622,-0.211257,0.515186,-0.830634,0.21286091690392575
1763624005.8968,-0.286856,-0.050015,-0.205592,0.934315,-0.019233,-0.006089,-0.005579,3.4e-05,0.002843,0.001902,-0.21141,0.515462,-0.830424,0.2130174195417705
1763624005.927318,-0.286974,-0.050052,-0.20561,0.934273,-0.010375,-0.004879,-0.000629,-0.001449,0.004483,0.003056,-0.211534,0.515641,-0.830281,0.21314433953777745
1763624005.927618,-0.287053,-0.050117,-0.205568,0.934254,-0.001493,-0.011783,0.004296,-0.004163,0.003333,0.005205,-0.211662,0.515755,-0.830178,0.21327522703039947
1763624005.956978,-0.287114,-0.050254,-0.205446,0.934255,0.001629,-0.016993,0.010194,-0.005136,0.00378,0.003025,-0.211872,0.515827,-0.83008,0.21349004500557184
1763624005.98979,-0.287153,-0.050369,-0.205264,0.934277,0.001739,-0.016072,0.015553,-0.004935,0.003028,-0.000759,-0.212001,0.515883,-0.830012,0.2136220902915191
1763624005.990118,-0.287201,-0.050426,-0.20505,0.934306,0.001219,-0.007947,0.01769,-0.004005,0.002384,-0.00174,-0.212008,0.515987,-0.829946,0.21362917443852394
1763624006.015529,-0.287243,-0.050442,-0.204863,0.934333,0.000395,-0.002299,0.012798,-0.00259,0.00025,-0.001978,-0.211951,0.516093,-0.829894,0.21357096572437193
1763624006.046035,-0.287263,-0.05045,-0.204772,0.934346,0.000192,-0.001115,0.006206,-0.001706,-0.001228,-0.000961,-0.211923,0.516145,-0.829869,0.21354228083468002
1763624006.046343,-0.28723,-0.05047,-0.204749,0.934361,0.008791,0.000318,-0.002192,-0.001196,-0.004979,0.002581,-0.211934,0.516086,-0.829903,0.21355351557577198
1763624006.075629,-0.287135,-0.050503,-0.204789,0.934379,0.008284,-0.000431,-0.00691,-0.001689,-0.002415,0.00144,-0.211982,0.5159,-0.830006,0.21360269997087172
1763624006.107329,-0.287074,-0.050574,-0.204873,0.934376,0.001763,-0.001713,-0.005778,-0.002226,0.001936,-0.000759,-0.212136,0.515747,-0.830062,0.21376023667367933
1763624006.107653,-0.287099,-0.050626,-0.204882,0.934363,-0.006667,-0.005099,0.00133,-0.002406,0.002886,-0.001391,-0.21225,0.515765,-0.830022,0.2138768341651943
1763624006.135451,-0.287203,-0.050626,-0.204825,0.934344,-0.01506,-0.004547,0.009062,-0.002611,0.002632,-0.002404,-0.212258,0.515954,-0.829902,0.21388510757354134
1763624006.167169,-0.287338,-0.050572,-0.204724,0.934327,-0.014698,-0.001229,0.011873,-0.002738,0.001386,-0.001754,-0.212152,0.516229,-0.829758,0.21377665105326496
1763624006.167514,-0.287464,-0.050497,-0.204622,0.934315,-0.008837,0.002255,0.008932,-0.002326,0.000627,-0.00136,-0.212003,0.516498,-0.829629,0.2136241238143501
1763624006.196059,-0.287536,-0.050458,-0.204563,0.934308,-0.004804,0.000511,0.006419,-0.001534,0.000817,-0.000381,-0.211926,0.516651,-0.829554,0.21354522607971846
1763624006.19638,-0.287589,-0.050407,-0.204502,0.934308,-0.003022,0.001994,0.004341,-0.000758,0.001912,-0.000262,-0.211815,0.516776,-0.829504,0.21343173538787374
1763624006.225461,-0.287606,-0.05039,-0.204463,0.934312,0.001359,0.003047,0.002412,-0.00084,0.001077,-0.000207,-0.21177,0.516822,-0.829487,0.21338566036909373
1763624006.25274,-0.287552,-0.050373,-0.204464,0.934329,0.009015,0.003974,0.001587,-0.000701,0.001751,0.000885,-0.211717,0.516737,-0.829553,0.21333151745775786
1763624006.256766,-0.287426,-0.050361,-0.204432,0.934375,0.015827,0.001853,0.003259,-0.000753,0.001357,0.000699,-0.211631,0.516538,-0.8297,0.2132433199150791
1763624006.286436,-0.287279,-0.050387,-0.204374,0.934432,0.01842,-0.000459,0.00548,-0.000778,0.001168,0.000609,-0.211592,0.516289,-0.829864,0.21320357985225766
1763624006.315918,-0.287108,-0.050434,-0.204314,0.934495,0.019425,-0.003005,0.00512,-0.0006,-0.000125,0.00029,-0.211582,0.515993,-0.830051,0.21319328142439212
1763624006.316238,-0.286958,-0.050477,-0.204243,0.934554,0.013457,-0.000552,0.005235,-0.000187,-0.000851,-0.001998,-0.211566,0.515737,-0.830214,0.21317694005839224
1763624006.345787,-0.286872,-0.050478,-0.204188,0.934593,0.007974,0.00302,0.006229,-0.000387,-0.002207,-0.002738,-0.211505,0.515603,-0.830313,0.21311448600205996
1763624006.375868,-0.286836,-0.050448,-0.204139,0.934616,0.00404,0.002882,0.004398,-0.000423,-0.002495,-0.002734,-0.211407,0.515566,-0.83036,0.2130143860402863
1763624006.37619,-0.286831,-0.050393,-0.204105,0.934628,-0.000831,0.003054,0.002321,-0.000609,-0.002957,-0.002375,-0.211285,0.51559,-0.830377,0.21288941386605956
1763624006.408037,-0.286832,-0.050352,-0.20412,0.934627,-0.003934,0.006452,-0.000422,-0.000529,-0.002852,-0.002561,-0.211216,0.515605,-0.830385,0.2128188637913461
1763624006.438642,-0.286835,-0.050279,-0.204158,0.934622,-0.00599,0.005972,-0.002446,-0.000421,-0.001681,-0.00086,-0.211103,0.515634,-0.830396,0.21270320818345026
1763624006.438987,-0.286865,-0.050247,-0.204219,0.934601,-0.007087,0.005019,-0.004126,-0.0002,-0.000798,-0.000408,-0.211088,0.515686,-0.830367,0.21268795592184
1763624006.46586,-0.286883,-0.050216,-0.204279,0.934584,-0.006748,0.005042,-0.00261,-0.000996,0.000305,2e-06,-0.21107,0.515715,-0.830354,0.21266946301437709
1763624006.496489,-0.286898,-0.050155,-0.204318,0.934574,-0.006567,0.006575,0.000982,-0.000893,0.000668,0.000278,-0.210983,0.51576,-0.830348,0.2125804874346776
1763624006.496652,-0.286899,-0.050097,-0.204325,0.934575,-0.003309,0.004707,0.004775,-0.000243,0.001405,0.00121,-0.21088,0.515785,-0.830359,0.2124750514758334
1763624006.52678,-0.286909,-0.050045,-0.204285,0.934584,-7.7e-05,0.001725,0.005461,-0.001129,0.001385,0.001487,-0.210764,0.515834,-0.830358,0.21235638678855756
1763624006.558473,-0.286886,-0.05004,-0.204256,0.934597,0.003099,0.001303,0.004513,-0.000533,0.000654,0.000702,-0.210732,0.515804,-0.830384,0.21232378714467745
1763624006.558787,-0.286841,-0.050068,-0.204221,0.934617,0.008104,-0.002371,0.002559,-0.000444,0.001526,0.00061,-0.210746,0.515724,-0.830431,0.21233795390593402
1763624006.588307,-0.286773,-0.050075,-0.204193,0.934644,0.008328,0.001998,0.000263,-0.001289,0.003006,-0.001841,-0.210718,0.515612,-0.830507,0.2123094270314241
1763624006.618801,-0.286704,-0.050085,-0.204212,0.93466,0.007369,-0.000974,-0.004434,-0.003753,0.004005,2e-06,-0.210722,0.515486,-0.830584,0.2123135543240724
1763624006.619114,-0.286649,-0.050118,-0.204275,0.934662,0.004815,0.000642,-0.007861,-0.004633,0.004768,-0.000213,-0.210796,0.515365,-0.830641,0.21238913082134347
1763624006.648051,-0.286606,-0.050129,-0.204422,0.934642,0.005059,0.011737,-0.017186,-0.00537,0.004852,-0.002204,-0.210883,0.515254,-0.830688,0.21247809157899844
1763624006.678487,-0.286503,-0.050061,-0.204681,0.93462,0.012592,0.017575,-0.024917,-0.006494,0.005144,0.001925,-0.21086,0.51505,-0.83082,0.2124546232375672
1763624006.678845,-0.286341,-0.05003,-0.204953,0.934612,0.016719,0.018566,-0.022426,-0.006784,0.010621,-8.2e-05,-0.210889,0.514728,-0.831012,0.2124843212094279
1763624006.708082,-0.286132,-0.049951,-0.205228,0.93462,0.021714,0.020327,-0.017132,-0.007342,0.009841,0.004659,-0.210815,0.514347,-0.831267,0.21240855485335566
1763624006.738535,-0.285856,-0.049904,-0.205441,0.93466,0.030564,0.018986,-0.018011,-0.007277,0.006655,0.005954,-0.21074,0.513851,-0.831592,0.21233195771885915
1763624006.738842,-0.285531,-0.049907,-0.205658,0.934712,0.032912,0.004999,-0.021013,-0.009794,0.006013,0.006873,-0.21074,0.51325,-0.831963,0.2123319694460722
1763624006.765662,-0.285274,-0.049998,-0.205868,0.934739,0.029102,0.014843,-0.020258,-0.006751,0.009366,-0.003795,-0.210928,0.512727,-0.832238,0.21252425557877658
1763624006.792939,-0.285053,-0.049887,-0.206102,0.934761,0.019787,0.036713,-0.013711,-0.006333,0.008153,-0.005061,-0.210764,0.51235,-0.832512,0.21235642679185987
1763624006.796869,-0.284843,-0.049537,-0.206334,0.934792,0.01513,0.053244,-0.009523,-0.007541,0.006496,-0.002823,-0.210159,0.512097,-0.832821,0.21173748568213643
1763624006.825817,-0.284663,-0.049147,-0.206545,0.934821,0.014742,0.047116,-0.005859,-0.007899,0.006426,0.004951,-0.209478,0.511915,-0.833104,0.2110410555873956
1763624006.853101,-0.284453,-0.048815,-0.206715,0.934865,0.020314,0.041564,-0.003884,-0.006671,0.006712,0.004275,-0.208873,0.511668,-0.833407,0.21042247322522206
1763624006.863321,-0.284156,-0.048549,-0.206877,0.934933,0.030498,0.038797,-0.008536,-0.004741,0.006391,0.004942,-0.208351,0.511247,-0.833796,0.20988871880509977
1763624006.885194,-0.283777,-0.048353,-0.20709,0.935011,0.040461,0.034989,-0.013521,-0.002783,0.006671,0.003142,-0.207956,0.510643,-0.834265,0.20948480298388766
1763624006.913854,-0.28338,-0.048215,-0.20724,0.935106,0.043724,0.021944,-0.010223,-0.001281,0.005824,0.000194,-0.207628,0.509996,-0.834743,0.20914936504575474
1763624006.915802,-0.28301,-0.048136,-0.207416,0.935183,0.033538,0.029192,-0.012657,0.00249,0.011845,-0.006659,-0.207434,0.509364,-0.835176,0.20895122587947346
1763624006.946357,-0.282791,-0.047919,-0.207625,0.935214,0.01269,0.040283,-0.015895,0.00446,0.01769,-0.008446,-0.207058,0.509041,-0.835466,0.2085669137720487
1763624006.972655,-0.282714,-0.047601,-0.207924,0.935187,0.000234,0.046362,-0.025403,0.005104,0.021653,-0.005234,-0.206598,0.508985,-0.835614,0.20809674429179179
1763624006.976947,-0.282695,-0.047286,-0.208343,0.935116,-0.001922,0.040914,-0.03411,0.004424,0.027728,0.000412,-0.20623,0.509001,-0.835696,0.207720495680883
1763624007.005687,-0.282587,-0.046972,-0.208794,0.935063,0.013206,0.049496,-0.038462,0.00748,0.025482,0.00303,-0.205848,0.508859,-0.835877,0.2073300562042929
1763624007.032924,-0.282203,-0.046577,-0.209322,0.935081,0.056504,0.05549,-0.051594,0.007337,0.018277,0.014492,-0.205249,0.508267,-0.836384,0.2067180446306145
1763624007.036801,-0.281419,-0.046362,-0.209932,0.935191,0.102265,0.04415,-0.058271,0.004369,0.018283,0.016902,-0.204873,0.506896,-0.837307,0.20633400421492212
1763624007.065714,-0.280331,-0.046401,-0.21044,0.935402,0.140732,0.02209,-0.044233,0.00201,0.023729,0.017967,-0.204793,0.504915,-0.838523,0.20625220441794442
1763624007.09277,-0.279036,-0.046622,-0.210661,0.935728,0.160479,0.008081,-0.017597,0.000964,0.027016,0.013129,-0.204815,0.502561,-0.83993,0.20627478586763365
1763624007.09681,-0.277647,-0.046888,-0.210574,0.936148,0.172266,-0.007956,0.012958,-0.004563,0.021926,0.017654,-0.204719,0.50009,-0.841428,0.20617651850790858
1763624007.125582,-0.276212,-0.047329,-0.210086,0.93666,0.186485,-0.0309,0.044276,-0.010288,0.015134,0.016434,-0.204718,0.497546,-0.842934,0.20617567948286405
1763624007.152659,-0.274705,-0.047863,-0.20937,0.937235,0.203534,-0.033085,0.053012,-0.013902,0.00604,0.009951,-0.204747,0.494885,-0.844492,0.20620530442111307
1763624007.156677,-0.273091,-0.048344,-0.208615,0.937851,0.208774,-0.023747,0.05914,-0.015797,0.003142,0.004224,-0.20462,0.492068,-0.846168,0.20607542047552999
1763624007.185521,-0.271484,-0.048683,-0.207862,0.938467,0.185034,0.003478,0.067428,-0.016572,0.002189,-0.004862,-0.204238,0.489319,-0.847852,0.20568531348124164
1763624007.2126,-0.270132,-0.048765,-0.207118,0.939017,0.152719,0.018326,0.075409,-0.013804,-0.002854,-0.006406,-0.20348,0.487118,-0.849301,0.20491095139339832
1763624007.216738,-0.26904,-0.048605,-0.206466,0.939482,0.106225,0.040463,0.068844,-0.007944,-0.009856,-0.009978,-0.202421,0.485446,-0.85051,0.2038295377203768
1763624007.245554,-0.268269,-0.04829,-0.206031,0.939814,0.06571,0.056237,0.043544,-0.002515,-0.019918,-0.011224,-0.201311,0.484348,-0.851399,0.20269620339750924
1763624007.272861,-0.26784,-0.047808,-0.205914,0.939987,0.014648,0.071935,0.019721,0.002286,-0.024883,-0.009508,-0.200182,0.483843,-0.851953,0.20154359596872426
1763624007.276906,-0.267807,-0.047196,-0.206086,0.93999,-0.036705,0.078148,-0.008374,0.005244,-0.032569,-0.007192,-0.19911,0.484019,-0.852104,0.2004496106341685
1763624007.30569,-0.268189,-0.046559,-0.206523,0.939816,-0.085967,0.059401,-0.031691,0.003367,-0.042152,-0.002507,-0.198289,0.484867,-0.851813,0.19961195684036703
1763624007.332786,-0.268975,-0.046136,-0.207163,0.939472,-0.131239,0.033078,-0.063269,0.001638,-0.04779,-0.011163,-0.198131,0.486274,-0.851047,0.19945082223891838
1763624007.336764,-0.270159,-0.045744,-0.208028,0.93896,-0.176777,0.027088,-0.0733,-0.003528,-0.048088,-0.015107,-0.198304,0.488306,-0.849843,0.19962721739496833
1763624007.365621,-0.271746,-0.045327,-0.208964,0.938314,-0.23198,0.03511,-0.075254,-0.007861,-0.05114,-0.024335,-0.198632,0.491023,-0.848199,0.19996193019629357
1763624007.392715,-0.273805,-0.044717,-0.209875,0.937541,-0.285255,0.025802,-0.062956,-0.009965,-0.054485,-0.018071,-0.198778,0.494637,-0.846062,0.20011094526777704
1763624007.396739,-0.276294,-0.044096,-0.21068,0.936659,-0.33352,0.012067,-0.048347,-0.010032,-0.062288,-0.01594,-0.199026,0.499007,-0.843434,0.20036391178739799
1763624007.425657,-0.279194,-0.043411,-0.211395,0.93567,-0.372373,0.013162,-0.041662,-0.009179,-0.072107,-0.015679,-0.199278,0.504112,-0.840333,0.2006210695961671
1763624007.45193,-0.282295,-0.042829,-0.212041,0.93462,-0.383048,0.000168,-0.044621,-0.008632,-0.082992,-0.01906,-0.199774,0.509513,-0.836951,0.20112725322739092
1763624007.457104,-0.285411,-0.042241,-0.212724,0.933544,-0.38199,0.005188,-0.045595,-0.006629,-0.082863,-0.024416,-0.200295,0.514916,-0.833513,0.20165896253780755
1763624007.485784,-0.288428,-0.041539,-0.21339,0.932496,-0.374412,0.030741,-0.03531,-0.002873,-0.081348,-0.027231,-0.200565,0.520189,-0.830167,0.20193458880668058
1763624007.512887,-0.291334,-0.040644,-0.214035,0.931484,-0.37363,0.036664,-0.026184,-0.003685,-0.082254,-0.02031,-0.200429,0.525347,-0.826945,0.20179585954817836
1763624007.516762,-0.294344,-0.039859,-0.214578,0.930446,-0.398502,0.012358,-0.021526,-0.003343,-0.085301,-0.023145,-0.200492,0.530637,-0.823546,0.20186002216682614
1763624007.545599,-0.297721,-0.039093,-0.215038,0.929297,-0.442563,0.002788,-0.019918,-0.000592,-0.0835,-0.033451,-0.2007,0.536529,-0.819668,0.20207245990092138
1763624007.576074,-0.301476,-0.038307,-0.215479,0.928016,-0.476828,-0.00309,-0.018255,0.004486,-0.082772,-0.03708,-0.201022,0.54304,-0.81529,0.20240109922804622
1763624007.576413,-0.305432,-0.037416,-0.21596,0.926646,-0.496554,0.015114,-0.025426,0.005658,-0.080872,-0.039334,-0.201264,0.549894,-0.810623,0.20264812924053058
1763624007.611619,-0.309492,-0.036379,-0.216541,0.925204,-0.514586,0.016635,-0.028164,0.00302,-0.074543,-0.031404,-0.20135,0.556931,-0.805783,0.20273593201676923
1763624007.635116,-0.313781,-0.035291,-0.217142,0.923659,-0.5485,0.014628,-0.02546,0.000172,-0.069151,-0.023203,-0.201463,0.564327,-0.800592,0.2028513321290509
1763624007.635188,-0.318355,-0.034274,-0.217639,0.922013,-0.567538,-0.02135,-0.022331,-0.00472,-0.069598,-0.010635,-0.201776,0.572137,-0.79495,0.2031708998991676
1763624007.665716,-0.323078,-0.033553,-0.217953,0.920321,-0.57155,-0.051,-0.012572,-0.005915,-0.065259,-0.012119,-0.202591,0.580045,-0.78899,0.2040030109007078
1763624007.692736,-0.327983,-0.033009,-0.218094,0.918571,-0.590687,-0.07541,-0.003332,-0.004376,-0.067251,-0.022385,-0.203704,0.588153,-0.782676,0.20513966550200094
1763624007.696805,-0.333058,-0.032341,-0.218142,0.916756,-0.609312,-0.047177,0.000382,0.001556,-0.065008,-0.03798,-0.204605,0.596556,-0.776053,0.2060600982811453
1763624007.725839,-0.338374,-0.03114,-0.21836,0.914796,-0.660817,0.021981,0.005043,0.004419,-0.051519,-0.038846,-0.204748,0.605487,-0.769067,0.2062062145867187
1763624007.753646,-0.344069,-0.029422,-0.21876,0.912631,-0.723016,0.042189,-0.000764,0.003927,-0.051898,-0.020825,-0.20424,0.615144,-0.761501,0.20568729051083987
1763624007.755495,-0.350232,-0.027496,-0.219367,0.910198,-0.768256,0.053806,-0.017131,0.003565,-0.04715,-0.009206,-0.203713,0.625497,-0.753164,0.20514880599935137
1763624007.787127,-0.356626,-0.025485,-0.220056,0.907603,-0.796784,0.060975,-0.024992,0.00279,-0.037111,-0.008865,-0.203217,0.636134,-0.744336,0.2046423961258267
1763624007.814875,-0.363224,-0.023281,-0.220821,0.904856,-0.819201,0.064975,-0.030795,-0.00054,-0.028441,1.8e-05,-0.202546,0.647049,-0.735053,0.20395709256936304
1763624007.815007,-0.370111,-0.021081,-0.221632,0.901916,-0.842228,0.068679,-0.034684,0.003159,-0.01411,0.001068,-0.202085,0.658274,-0.725147,0.20348625746041626
1763624007.845082,-0.377171,-0.018716,-0.222423,0.898843,-0.852308,0.085795,-0.026958,0.008085,-0.003196,0.004949,-0.20143,0.66971,-0.714783,0.20281759905492133
1763624007.872635,-0.384332,-0.016159,-0.223165,0.89567,-0.858152,0.097872,-0.02008,0.009224,-0.000109,0.009334,-0.200486,0.681257,-0.704056,0.20185390749616378
1763624007.876678,-0.391452,-0.013571,-0.223896,0.892441,-0.837717,0.088969,-0.028545,0.007041,-0.001958,0.017295,-0.199513,0.692619,-0.693162,0.20086089609633928
1763624007.905692,-0.398369,-0.011218,-0.224697,0.889206,-0.814072,0.074447,-0.04285,0.00613,0.007458,0.019882,-0.198975,0.703424,-0.682352,0.2003118324474713
1763624007.932621,-0.405155,-0.008992,-0.225447,0.885969,-0.792509,0.055314,-0.036515,0.006036,0.021315,0.024511,-0.198616,0.713856,-0.671537,0.19994551930439858
1763624007.936764,-0.411794,-0.006809,-0.226022,0.882776,-0.768576,0.063433,-0.024454,0.007973,0.024669,0.023422,-0.19817,0.723966,-0.660758,0.19949061523053466
1763624007.965802,-0.418148,-0.004669,-0.226562,0.879659,-0.735553,0.062739,-0.021824,0.005795,0.020162,0.025538,-0.197688,0.73354,-0.65026,0.1989988574243215
1763624007.992626,-0.424204,-0.002561,-0.22711,0.876622,-0.701145,0.066459,-0.026498,0.003813,0.016485,0.029148,-0.197172,0.74257,-0.640089,0.19847235757276321
1763624007.996677,-0.429978,-0.000636,-0.227625,0.873674,-0.666755,0.042683,-0.032988,0.002588,0.012123,0.034356,-0.196859,0.751031,-0.630237,0.19815322342369443
1763624008.025656,-0.435584,0.00111,-0.228097,0.870768,-0.656972,0.040651,-0.030688,0.003196,0.011089,0.031605,-0.196777,0.759092,-0.62053,0.19806962481799706
1763624008.05203,-0.441118,0.002812,-0.228433,0.867886,-0.64928,0.03448,-0.01859,0.003398,0.010251,0.030021,-0.19665,0.766964,-0.610815,0.1979400305989194
1763624008.055528,-0.446583,0.004571,-0.228635,0.865025,-0.648315,0.025975,-0.003893,0.0023,0.006973,0.034058,-0.1963,0.774701,-0.601086,0.19758309861931933
1763624008.085767,-0.452145,0.006249,-0.228613,0.862126,-0.660281,0.012344,0.020928,0.003048,0.007628,0.032713,-0.195957,0.782469,-0.591052,0.19723334094145503
1763624008.112809,-0.457796,0.007944,-0.2283,0.859208,-0.671707,-0.001408,0.039049,0.002728,0.00192,0.031139,-0.195379,0.790312,-0.580719,0.19664382641753728
1763624008.116746,-0.46358,0.00971,-0.2278,0.856217,-0.695404,0.012969,0.064475,0.003158,0.008382,0.023733,-0.19458,0.798273,-0.569999,0.1958292460560753
1763624008.153517,-0.46956,0.011771,-0.2272,0.853085,-0.7267,0.026204,0.073452,0.003458,0.00407,0.026889,-0.193285,0.806498,-0.558749,0.19450932811111252
1763624008.153856,-0.475724,0.013993,-0.226664,0.849773,-0.750008,0.040178,0.067424,-0.001011,0.008719,0.029613,-0.191877,0.814858,-0.546982,0.1930743612018399
1763624008.175493,-0.481898,0.016266,-0.226184,0.846375,-0.741574,0.035871,0.068978,-0.003852,0.015174,0.034414,-0.190461,0.823091,-0.53502,0.1916316642635452
1763624008.205488,-0.487803,0.018536,-0.225689,0.843071,-0.705748,0.040745,0.06866,-0.003111,0.014383,0.03895,-0.188928,0.830872,-0.523409,0.19007046319210663
1763624008.235999,-0.493411,0.020715,-0.225222,0.839876,-0.677634,0.046086,0.063118,-0.001859,0.016652,0.040506,-0.187458,0.838139,-0.512232,0.18857371323311128
1763624008.236335,-0.498813,0.022901,-0.224842,0.836724,-0.662885,0.05497,0.064831,-0.003335,0.025795,0.044457,-0.185985,0.845036,-0.501323,0.187074162511322
1763624008.265591,-0.504139,0.025056,-0.224404,0.833582,-0.648677,0.039445,0.072551,-0.004707,0.029529,0.053657,-0.18449,0.851728,-0.490432,0.18555286465725981
1763624008.292652,-0.509288,0.02718,-0.223816,0.830538,-0.619816,0.035212,0.087254,-0.003352,0.036744,0.057203,-0.182826,0.858133,-0.479773,0.18386016107452283
1763624008.296719,-0.514173,0.029129,-0.223029,0.827669,-0.574831,0.01748,0.102553,-0.003702,0.04014,0.057752,-0.181133,0.864123,-0.469555,0.1821384208375237
1763624008.32562,-0.518704,0.0309,-0.221965,0.82506,-0.52387,-0.009071,0.124551,-0.005177,0.046216,0.060763,-0.17928,0.86964,-0.459983,0.18025459879665143
1763624008.352684,-0.522929,0.032408,-0.220637,0.822687,-0.473986,-0.030612,0.131511,-0.003432,0.042997,0.057866,-0.177432,0.874715,-0.45099,0.17837639255316612
1763624008.365476,-0.526895,0.033767,-0.21928,0.820462,-0.444557,-0.037471,0.12595,-0.001577,0.04923,0.054409,-0.175666,0.879404,-0.442482,0.17658222427424847
1763624008.385464,-0.530636,0.035031,-0.217887,0.818366,-0.41643,-0.036377,0.131435,-0.001175,0.052432,0.049224,-0.173901,0.883775,-0.434396,0.17478968062360242
1763624008.412349,-0.534153,0.036302,-0.216467,0.816397,-0.381473,-0.030159,0.137009,0.002199,0.04642,0.049095,-0.17198,0.887879,-0.426725,0.17283922472790844
1763624008.412623,-0.537344,0.0376,-0.215173,0.814585,-0.353664,-0.009134,0.120246,0.00454,0.04064,0.040855,-0.169988,0.891605,-0.419696,0.1708174808002236
1763624008.446778,-0.540327,0.038961,-0.214142,0.812817,-0.342293,0.014202,0.108334,0.006692,0.043699,0.041319,-0.168078,0.895061,-0.413057,0.16887956411553548
1763624008.479544,-0.543142,0.040356,-0.213285,0.811096,-0.322054,0.017234,0.09144,0.008197,0.043103,0.04494,-0.166224,0.898296,-0.406736,0.1669991253924262
1763624008.479825,-0.54578,0.041618,-0.212522,0.809461,-0.300878,0.020208,0.077258,0.009991,0.040784,0.042693,-0.164604,0.901264,-0.400784,0.1653565976055993
1763624008.505239,-0.548208,0.042814,-0.2119,0.807919,-0.283812,0.022976,0.061914,0.009972,0.040067,0.043237,-0.16315,0.90396,-0.39527,0.1638825970281228
1763624008.532605,-0.550504,0.043895,-0.211427,0.806422,-0.264957,0.01772,0.045394,0.010309,0.037111,0.0469,-0.161986,0.906439,-0.390036,0.16270296715129545
1763624008.532858,-0.552677,0.044837,-0.21097,0.805003,-0.23959,0.008838,0.04391,0.010472,0.036291,0.045573,-0.161007,0.908731,-0.385076,0.16171097701611928
1763624008.565566,-0.554596,0.045684,-0.210514,0.803754,-0.21231,0.002952,0.041068,0.007936,0.036397,0.043373,-0.160063,0.910752,-0.380672,0.16075443163565326
1763624008.592501,-0.556402,0.046446,-0.210045,0.802584,-0.196526,0.009209,0.038484,0.008033,0.028008,0.03694,-0.159186,0.91263,-0.376519,0.1598660636391613
1763624008.593373,-0.558125,0.047237,-0.209677,0.801437,-0.198103,0.01371,0.031976,0.005607,0.026597,0.03499,-0.158336,0.914413,-0.37253,0.15900516336702508
1763624008.625752,-0.559906,0.048065,-0.209342,0.800232,-0.207839,0.026271,0.024884,0.00594,0.023441,0.028388,-0.157498,0.916233,-0.36839,0.1581565389195979
1763624008.652834,-0.56169,0.048999,-0.209215,0.798957,-0.215914,0.043067,0.010927,0.004767,0.020431,0.030015,-0.156732,0.918035,-0.364206,0.15738094779435977
1763624008.653165,-0.563549,0.049933,-0.209294,0.797568,-0.238836,0.05149,-0.006139,0.002863,0.020077,0.030021,-0.156244,0.919839,-0.359838,0.1568868470556478
1763624008.685453,-0.565583,0.050785,-0.20947,0.796027,-0.261641,0.038122,-0.018523,0.003172,0.024246,0.032024,-0.156093,0.921715,-0.355073,0.15673388899143206
1763624008.712362,-0.567772,0.051571,-0.20963,0.794375,-0.273426,0.031635,-0.019054,0.00465,0.026808,0.030153,-0.156109,0.923669,-0.349952,0.15675005259366476
1763624008.71268,-0.569972,0.052284,-0.209763,0.792716,-0.268297,0.024755,-0.02163,0.004393,0.026028,0.027283,-0.156224,0.925586,-0.344798,0.15686646532601775
1763624008.745542,-0.572124,0.052886,-0.209864,0.791097,-0.258675,0.013416,-0.018657,0.004644,0.026011,0.028189,-0.156461,0.927409,-0.339755,0.15710642259245097
1763624008.772254,-0.57424,0.053428,-0.209927,0.789509,-0.25383,0.013589,-0.027405,0.007123,0.023506,0.024119,-0.156733,0.929167,-0.334788,0.1573819316927975
1763624008.777096,-0.576335,0.053869,-0.210094,0.787907,-0.25069,0.013299,-0.045638,0.007307,0.019755,0.022034,-0.157281,0.930831,-0.329873,0.15793678926757315
1763624008.805238,-0.578402,0.054238,-0.210338,0.7863,-0.25323,0.008456,-0.054328,0.005441,0.020998,0.023622,-0.158026,0.932411,-0.325019,0.15869122550384687
1763624008.838107,-0.580485,0.054527,-0.210596,0.784674,-0.246297,0.001227,-0.057241,0.004595,0.02153,0.028386,-0.158924,0.933949,-0.320129,0.1596006940130609
1763624008.838341,-0.582452,0.054732,-0.210789,0.783149,-0.227656,-0.013895,-0.052104,0.003088,0.024283,0.031277,-0.159823,0.935367,-0.315507,0.16051138735464374
1763624008.865198,-0.584301,0.054844,-0.21087,0.781741,-0.209993,-0.020007,-0.043503,0.002865,0.023565,0.030136,-0.160676,0.936673,-0.311169,0.16137557605098862
1763624008.902292,-0.586006,0.054862,-0.210816,0.780476,-0.18585,-0.035049,-0.033449,0.000828,0.020473,0.031991,-0.161441,0.93786,-0.307173,0.16215064695541126
1763624008.902604,-0.58759,0.054788,-0.210633,0.77934,-0.16697,-0.051102,-0.029117,-0.001427,0.019691,0.027537,-0.162134,0.938944,-0.303474,0.1628529061777237
1763624008.925657,-0.589073,0.054613,-0.210412,0.778292,-0.150397,-0.045944,-0.027401,-0.001488,0.016071,0.021455,-0.162886,0.939923,-0.300022,0.16361499135691684
1763624008.952587,-0.590399,0.054474,-0.210279,0.777331,-0.133821,-0.028968,-0.033406,-0.001443,0.011553,0.016232,-0.16361,0.940781,-0.296922,0.164348877139467
1763624008.952959,-0.591608,0.054431,-0.210323,0.776403,-0.121789,-0.009112,-0.041502,-0.004311,0.01197,0.017289,-0.164337,0.941549,-0.294074,0.16508577821897924
1763624008.985585,-0.592658,0.054392,-0.210516,0.775552,-0.103736,-0.006297,-0.045005,-0.008115,0.012148,0.022304,-0.16516,0.942175,-0.291597,0.16592020631899143
1763624009.011323,-0.593548,0.05426,-0.210774,0.77481,-0.082306,-0.006397,-0.044199,-0.009617,0.016544,0.021631,-0.166127,0.942647,-0.289513,0.1669008395622484
1763624009.011323,-0.594221,0.054119,-0.210971,0.77425,-0.061862,-0.008635,-0.036957,-0.009274,0.019314,0.017705,-0.166923,0.942987,-0.287944,0.16770809524926178
1763624009.045587,-0.594754,0.054012,-0.211122,0.773807,-0.049665,-0.001308,-0.026325,-0.008973,0.016043,0.013857,-0.167542,0.943257,-0.2867,0.16833581272542236
1763624009.071374,-0.595228,0.053972,-0.211317,0.773393,-0.041378,0.00923,-0.026904,-0.007962,0.010944,0.014298,-0.16808,0.9435,-0.285582,0.16888161667290547
1763624009.071467,-0.595689,0.053973,-0.211582,0.772965,-0.047689,0.014092,-0.027814,-0.007784,0.012878,0.016332,-0.168636,0.943733,-0.284484,0.16944558179905156
1763624009.10468,-0.596197,0.053923,-0.211796,0.772518,-0.049831,0.001102,-0.023188,-0.008249,0.014705,0.01869,-0.169232,0.943987,-0.283283,0.17005036154469755
1763624009.131257,-0.596707,0.053854,-0.211864,0.77211,-0.051779,-0.012495,-0.009346,-0.006805,0.016209,0.015242,-0.16968,0.944267,-0.282081,0.17050485163276827
1763624009.134571,-0.597191,0.053866,-0.211796,0.771754,-0.045599,-0.012429,0.002876,-0.006862,0.012662,0.013129,-0.169823,0.944586,-0.280923,0.17065003206565305
1763624009.166117,-0.597614,0.053886,-0.211688,0.771455,-0.035671,-0.008772,0.007898,-0.006828,0.010786,0.011053,-0.169874,0.944878,-0.279908,0.1707018008480199
1763624009.191359,-0.597954,0.053954,-0.211567,0.77122,-0.024309,-0.001895,0.006569,-0.006984,0.007904,0.010723,-0.169793,0.945137,-0.27908,0.1706196792681056
1763624009.191528,-0.598244,0.054029,-0.211511,0.771005,-0.025455,0.005379,0.004098,-0.004162,0.008858,0.008826,-0.169757,0.945353,-0.278371,0.17058307234556405
1763624009.225166,-0.598522,0.054145,-0.211497,0.770784,-0.024374,0.005138,0.002663,-0.003365,0.005838,0.010715,-0.169703,0.945566,-0.277678,0.17052835540400801
1763624009.252623,-0.598752,0.054246,-0.21149,0.770601,-0.022406,0.008909,0.008037,-0.002798,0.006752,0.006762,-0.169656,0.945742,-0.277108,0.17048060423264344
1763624009.252924,-0.598947,0.054418,-0.211498,0.770434,-0.018756,0.016487,0.005246,-0.00134,0.004505,0.00762,-0.169501,0.945918,-0.276601,0.17032335793621423
1763624009.285546,-0.599119,0.054598,-0.211559,0.770272,-0.019029,0.013915,0.003307,-0.0016,0.00257,0.010842,-0.169388,0.94607,-0.276152,0.1702086052563842
1763624009.312696,-0.599299,0.054695,-0.211605,0.770112,-0.01319,0.006514,-0.000459,-0.001288,0.000785,0.011387,-0.169388,0.946202,-0.275698,0.17020867056723565
1763624009.313097,-0.599444,0.054719,-0.211612,0.769996,-0.014494,-0.003142,-0.001322,-0.000935,0.001767,0.00986,-0.169433,0.946296,-0.275346,0.170254401537606
1763624009.346916,-0.599647,0.054736,-0.211593,0.769841,-0.023461,-0.001492,-0.000691,-9e-05,0.000156,0.008617,-0.169486,0.94643,-0.274854,0.17030810284959427
1763624009.377101,-0.599905,0.054751,-0.211581,0.769642,-0.026375,-0.001924,-0.006232,0.001435,-0.003084,0.007167,-0.16958,0.946594,-0.274231,0.17040346218022437
1763624009.377465,-0.600238,0.054727,-0.211594,0.769381,-0.038856,-0.003614,-0.011778,-0.000603,-0.002596,0.006952,-0.169802,0.946784,-0.273437,0.17062870877874603
1763624009.405963,-0.60066,0.054678,-0.211616,0.769049,-0.04638,-0.004291,-0.013509,-0.001069,-0.001189,0.007284,-0.170119,0.947016,-0.272435,0.17095037567916618
1763624009.43273,-0.601114,0.054644,-0.211603,0.7687,-0.053665,-0.008431,-0.011254,-0.001706,0.001288,0.006397,-0.170386,0.947279,-0.271351,0.17122136164880367
1763624009.433187,-0.601613,0.054653,-0.211597,0.768311,-0.062323,-0.006349,-0.006333,-0.004034,0.004723,0.008164,-0.170617,0.94758,-0.27015,0.17145589980947756
1763624009.465637,-0.602151,0.054684,-0.211497,0.767915,-0.061195,-0.015041,0.002732,-0.003735,0.00433,0.009555,-0.170721,0.947932,-0.268848,0.1715613666468618
1763624009.49197,-0.602671,0.054749,-0.211304,0.767555,-0.058992,-0.01103,0.010444,-0.001037,0.00421,0.006222,-0.170649,0.948303,-0.267581,0.17148835765824938
1763624009.496515,-0.603167,0.054887,-0.21115,0.767198,-0.058716,-0.007491,0.013262,-0.001532,0.002452,0.006908,-0.170499,0.948676,-0.266355,0.17133597130075248
1763624009.525345,-0.603631,0.055092,-0.211007,0.766858,-0.055868,0.004555,0.01168,-0.001026,0.002424,0.008105,-0.170245,0.949048,-0.265189,0.17107823529036398
1763624009.552727,-0.604057,0.055271,-0.210925,0.766532,-0.048687,-0.000812,0.008215,-0.003106,0.005397,0.012785,-0.170088,0.949374,-0.26412,0.17091894428565796
1763624009.552987,-0.604436,0.055328,-0.210846,0.766251,-0.04293,-0.011913,0.001773,-0.003201,0.006764,0.010839,-0.170096,0.94963,-0.263192,0.1709271039266292
1763624009.587929,-0.604788,0.055335,-0.210753,0.765998,-0.039397,-0.007712,0.000771,-0.002654,0.007549,0.007157,-0.170149,0.949857,-0.262339,0.17098080691382786
1763624009.616403,-0.605104,0.05538,-0.210715,0.765755,-0.031766,0.004348,-0.000894,-0.001901,0.003647,0.005596,-0.170193,0.950063,-0.261563,0.17102547450981245
1763624009.616874,-0.605356,0.055484,-0.210816,0.765521,-0.022455,0.01674,-0.008691,-0.002126,0.002308,0.008349,-0.17029,0.950219,-0.260931,0.17112397583211322
1763624009.644897,-0.605577,0.05558,-0.210995,0.76529,-0.026652,0.01694,-0.012661,-0.002203,0.004929,0.007962,-0.170478,0.950338,-0.260376,0.17131468731609473
1763624009.671392,-0.605782,0.055663,-0.211165,0.765074,-0.02549,0.011599,-0.010904,-0.003229,0.004023,0.009912,-0.170668,0.950445,-0.259859,0.17150757891654977
1763624009.671565,-0.606002,0.055764,-0.211297,0.764856,-0.027819,0.01047,-0.007249,-0.00246,0.004636,0.009496,-0.170791,0.950575,-0.259303,0.17163237029554612
1763624009.707421,-0.606228,0.055835,-0.211415,0.76464,-0.026873,0.006728,-0.007993,-0.001246,0.003217,0.008264,-0.170944,0.950701,-0.258741,0.1717875926569878
1763624009.738234,-0.606461,0.055886,-0.211502,0.764427,-0.024958,0.007476,-0.005552,-0.000912,0.002716,0.008635,-0.171094,0.950831,-0.258164,0.17193981368488392
1763624009.738534,-0.606703,0.055959,-0.211553,0.764216,-0.0263,0.005748,-0.003972,-0.001716,0.003287,0.008163,-0.171171,0.95098,-0.25756,0.17201812055908383
1763624009.768036,-0.606957,0.056042,-0.211606,0.763993,-0.029411,0.007765,-0.005636,-0.001914,-0.000591,0.006904,-0.17124,0.95114,-0.256925,0.17208804444358317
1763624009.800245,-0.607228,0.056143,-0.211713,0.763741,-0.032587,0.015527,-0.011265,-0.002048,-0.001597,0.007694,-0.171358,0.951302,-0.256245,0.17220784369996836
1763624009.800356,-0.607521,0.056144,-0.211867,0.763465,-0.034565,0.004274,-0.021503,-0.002537,-0.001832,0.00705,-0.171699,0.951432,-0.255533,0.172553977728933
1763624009.826626,-0.607855,0.056143,-0.212058,0.763146,-0.042947,0.007975,-0.018255,-0.002535,0.001184,0.007985,-0.17211,0.951575,-0.254721,0.17297126619499342
1763624009.852298,-0.608222,0.056193,-0.212192,0.762812,-0.048224,0.00101,-0.013448,-0.001917,0.002115,0.011928,-0.17239,0.951766,-0.253817,0.17325549035746848
1763624009.852594,-0.608647,0.056151,-0.212207,0.762472,-0.049257,-0.01556,-0.006429,-0.003242,0.007071,0.012513,-0.172691,0.951984,-0.252792,0.17356110733427502
1763624009.885662,-0.609109,0.056114,-0.212065,0.762146,-0.051691,-0.020229,0.003681,-0.00272,0.00815,0.009002,-0.172807,0.952259,-0.251675,0.17367885557560092
1763624009.917179,-0.609561,0.056082,-0.211859,0.761844,-0.047281,-0.018307,0.006374,-0.00245,0.005353,0.004793,-0.172831,0.952544,-0.25058,0.17370311736946437
1763624009.917538,-0.609978,0.056081,-0.211715,0.76155,-0.040103,-0.012135,0.000965,-0.002073,0.00284,0.006388,-0.172866,0.952804,-0.249563,0.1737387536121713
1763624009.945828,-0.610353,0.056102,-0.211614,0.761276,-0.038058,-0.004135,-0.001448,-0.001134,0.002547,0.003574,-0.1729,0.953038,-0.248643,0.1737733283864109
1763624009.972669,-0.610686,0.056116,-0.211588,0.761015,-0.032519,-0.000901,-0.006891,-0.000937,0.002028,0.006462,-0.173017,0.95323,-0.247827,0.1738919995899625
1763624009.972916,-0.611006,0.056138,-0.211631,0.760745,-0.036854,0.001529,-0.007336,-0.001964,0.004484,0.007678,-0.173202,0.9534,-0.247041,0.17407990471835344
1763624010.00573,-0.611347,0.056178,-0.21164,0.760465,-0.040072,0.001132,-0.000655,-0.001844,0.004776,0.007801,-0.173327,0.953596,-0.246197,0.17420675444282338
1763624010.03308,-0.611656,0.056223,-0.211602,0.760224,-0.032357,-0.00382,0.001682,-0.001403,0.002463,0.008469,-0.173371,0.953785,-0.245432,0.17425146130538613
1763624010.033368,-0.611929,0.056273,-0.211542,0.760017,-0.025537,-0.001481,0.00295,-0.000497,0.002733,0.006573,-0.173361,0.953961,-0.244753,0.1742413550482065
1763624010.065729,-0.612168,0.0563,-0.211509,0.759832,-0.023488,0.000468,0.000647,-0.00088,0.002157,0.004912,-0.173401,0.954106,-0.244161,0.17428187306748594
1763624010.092175,-0.612386,0.056354,-0.211471,0.759663,-0.023883,0.001575,-0.000402,-0.000506,0.002229,0.005685,-0.173384,0.954248,-0.243616,0.17426467741394555
1763624010.09272,-0.612651,0.056376,-0.211455,0.759452,-0.030476,0.003213,0.00081,0.000101,0.002562,0.003819,-0.173466,0.9544,-0.24296,0.17434799522828592
1763624010.128821,-0.612912,0.056466,-0.211444,0.759238,-0.032449,0.000904,0.000588,-0.001672,0.001044,0.007771,-0.173452,0.95457,-0.242302,0.17433374753274192
1763624010.157156,-0.613484,0.056483,-0.211319,0.758809,-0.028282,-0.010219,0.00289,-0.002265,0.005347,0.007337,-0.173562,0.954906,-0.240895,0.1744454507029271
1763624010.156875,-0.613199,0.056492,-0.211413,0.759013,-0.032808,-0.007439,-0.000834,-0.002652,0.003358,0.009032,-0.173519,0.954738,-0.241592,0.1744017398481264
1763624010.188403,-0.613721,0.056466,-0.211193,0.758654,-0.01923,-0.012781,0.004581,-0.003625,0.006114,0.007816,-0.173551,0.955054,-0.240316,0.1744342605141837
1763624010.218312,-0.613926,0.056413,-0.211064,0.758528,-0.016392,-0.010782,0.00587,-0.002339,0.007191,0.006888,-0.173573,0.955173,-0.239826,0.1744566273895663
1763624010.218608,-0.614142,0.056345,-0.210938,0.758393,-0.01997,-0.012226,0.00574,-0.001639,0.006115,0.006214,-0.173629,0.955293,-0.23931,0.1745133616628956
1763624010.245474,-0.614372,0.056311,-0.210831,0.758239,-0.022389,-0.01144,-0.000792,-0.003037,0.004881,0.006204,-0.173662,0.955426,-0.238753,0.17454693197371257
1763624010.277454,-0.6146,0.056261,-0.210754,0.758079,-0.020517,-0.011141,-0.003631,-0.002922,0.003294,0.008139,-0.173759,0.955546,-0.238203,0.174645368505314
1763624010.277758,-0.614813,0.056171,-0.210697,0.757929,-0.018327,-0.013403,-0.002519,-0.003357,0.004743,0.007771,-0.173932,0.955639,-0.2377,0.17482117487653503
1763624010.302216,-0.615017,0.056056,-0.210608,0.757797,-0.013243,-0.014726,0.003045,-0.002355,0.003949,0.00609,-0.174097,0.955728,-0.237223,0.1749886430728863
1763624010.337009,-0.615177,0.056007,-0.210473,0.757708,-0.009656,-0.012061,0.008749,-0.002154,0.005582,0.006261,-0.174083,0.955825,-0.236841,0.17497447426848736
1763624010.3374,-0.615342,0.056006,-0.210288,0.757626,-0.009734,-0.012522,0.016046,-0.003791,0.003002,0.006219,-0.173936,0.955952,-0.236435,0.1748252422074461
1763624010.362714,-0.615467,0.05602,-0.21005,0.757589,-0.006383,-0.01475,0.018387,-0.002601,-0.00132,0.004848,-0.173677,0.956076,-0.236125,0.1745621892647066
1763624010.397507,-0.615586,0.056042,-0.209807,0.757558,-0.008202,-0.008921,0.018431,-0.001344,-0.00127,0.002606,-0.173398,0.9562,-0.235826,0.1742789634873057
1763624010.397899,-0.615731,0.056152,-0.209611,0.757486,-0.018368,-0.008348,0.01616,-0.001862,-0.002808,0.004436,-0.173059,0.956356,-0.235444,0.1739346818325002
1763624010.422688,-0.615942,0.056212,-0.209454,0.757354,-0.027225,-0.007327,0.008193,-0.001175,-0.002708,0.00519,-0.172878,0.95652,-0.234912,0.17375083579550668
1763624010.458397,-0.616212,0.056226,-0.20937,0.757156,-0.031508,-0.005638,-0.001202,-0.002581,0.000696,0.00594,-0.17289,0.956681,-0.234244,0.17376312646403244
1763624010.458687,-0.616497,0.056192,-0.209338,0.756936,-0.032288,-0.008104,-0.006983,-0.003205,0.00524,0.005568,-0.173044,0.956823,-0.233549,0.17391949410956986
1763624010.485474,-0.616772,0.056148,-0.209334,0.756716,-0.027242,-0.006992,-0.004691,-0.00461,0.007245,0.005235,-0.173246,0.95695,-0.23288,0.17412450755123213
1763624010.517346,-0.61698,0.056113,-0.209341,0.756547,-0.016705,-9e-05,-0.002862,-0.00465,0.007799,0.006102,-0.173415,0.957042,-0.232373,0.17429621140339382
1763624010.517651,-0.617087,0.0561,-0.209364,0.756454,-0.002537,-0.000195,-0.005022,-0.004661,0.00563,0.009701,-0.173518,0.957087,-0.232113,0.17440069976149233
1763624010.542686,-0.617133,0.055981,-0.209384,0.75642,0.002825,-0.007917,-0.007157,-0.004284,0.006633,0.008213,-0.173745,0.957067,-0.232027,0.17463114532132606
1763624010.577136,-0.617158,0.055902,-0.209405,0.7564,0.000693,-0.004562,-0.00428,-0.004163,0.006045,0.005917,-0.173902,0.957049,-0.231982,0.1747906387844403
1763624010.57784,-0.61723,0.055901,-0.209413,0.756339,-0.005265,0.003084,0.000158,-0.00262,0.004391,0.005415,-0.173951,0.957083,-0.231804,0.1748404350181412
1763624010.602185,-0.617326,0.055957,-0.209391,0.756263,-0.004615,0.002946,0.004092,-0.001174,0.002561,0.005441,-0.173887,0.957155,-0.231556,0.1747753871508632
1763624010.636309,-0.617422,0.055964,-0.209382,0.756186,0.000782,0.000228,0.001829,-0.000842,0.000552,0.007774,-0.173916,0.957208,-0.231315,0.1748048362379568
1763624010.636781,-0.617423,0.055967,-0.209359,0.756192,0.005198,-0.000616,0.002339,-0.000553,0.001225,0.006259,-0.173882,0.957214,-0.231314,0.17477038092863498
1763624010.662283,-0.617389,0.05593,-0.209329,0.75623,0.013609,-0.005107,0.001952,-0.001659,-0.001473,0.007067,-0.173883,0.957192,-0.231405,0.17477136653406003
1763624010.697431,-0.617347,0.055859,-0.20923,0.756298,0.011715,-0.011734,0.004081,-0.002292,-0.001846,0.005906,-0.173843,0.95717,-0.231526,0.1747307488220929
1763624010.697765,-0.61734,0.055766,-0.209101,0.756345,0.006713,-0.009714,0.006685,-0.001151,-0.001946,0.001586,-0.173816,0.957166,-0.231562,0.1747033643292204
1763624010.722341,-0.617341,0.055753,-0.20899,0.756376,0.001758,-0.003161,0.005877,-0.001319,-0.002751,0.001885,-0.173695,0.957188,-0.231563,0.17458044858228688
1763624010.756039,-0.617406,0.055775,-0.208952,0.756332,-0.006529,-0.000621,0.004574,-0.003029,-0.001521,0.002577,-0.173647,0.957237,-0.231398,0.1745316421561555
1763624010.756339,-0.617523,0.055797,-0.208918,0.756244,-0.01614,-0.002273,-0.001387,-0.00309,-0.001753,0.002469,-0.17363,0.957311,-0.231104,0.17451439781522027
1763624010.783145,-0.617686,0.055787,-0.20893,0.756109,-0.022949,0.003128,-0.003346,-0.002862,5e-06,0.000535,-0.173744,0.957386,-0.230705,0.17463025061448909
1763624010.816294,-0.617882,0.055811,-0.208991,0.755929,-0.023945,0.003573,-0.006508,-0.00267,8.4e-05,0.002224,-0.173886,0.957479,-0.230213,0.17477438599477774
1763624010.816648,-0.618066,0.055849,-0.209064,0.755756,-0.020211,0.005245,-0.004267,-0.00121,0.00205,0.002456,-0.174014,0.957567,-0.229749,0.1749044000417101
1763624010.84231,-0.618197,0.0559,-0.209131,0.755627,-0.012168,0.006439,-0.001571,-0.001029,0.003786,0.002433,-0.174088,0.957633,-0.229415,0.17497965293435722
1763624010.877455,-0.618266,0.055954,-0.209159,0.755558,-0.009156,0.001926,0.004262,-0.00088,0.005789,0.004682,-0.17408,0.957679,-0.229232,0.17497140632013622
1763624010.877865,-0.618342,0.056024,-0.209113,0.755504,-0.008258,-0.003432,0.015678,0.000457,0.006519,0.006102,-0.173954,0.957751,-0.229028,0.17484340345733637
1763624010.904946,-0.618405,0.056115,-0.208942,0.755493,-0.005251,-0.006143,0.01814,0.000254,0.00457,0.006127,-0.173634,0.957851,-0.228852,0.1745184810514623
1763624010.909487,-0.618464,0.056172,-0.208729,0.7555,-0.004486,-0.012773,0.017358,-0.000256,0.002128,0.005227,-0.173307,0.957948,-0.228695,0.17418639898944394
1763624010.940227,-0.618539,0.056183,-0.208531,0.755492,-0.004585,-0.012944,0.015077,-0.00044,0.000345,0.003111,-0.173077,0.958034,-0.228506,0.1739529846980931
1763624010.963289,-0.618644,0.056135,-0.208342,0.755462,-0.002868,-0.015515,0.007256,-0.000829,-0.002568,0.003863,-0.172963,0.958114,-0.228257,0.1738372294490171
1763624010.99981,-0.618737,0.056043,-0.208192,0.755433,-0.003287,-0.012159,0.00241,-0.000798,0.00077,0.003458,-0.172959,0.958165,-0.228047,0.17383312234642215
1763624011.000781,-0.618821,0.055944,-0.208082,0.755403,-0.004873,-0.014445,0.002608,-0.001461,0.002594,0.004584,-0.17301,0.9582,-0.227862,0.1738848701008207
1763624011.02746,-0.618907,0.055875,-0.20796,0.755371,-0.003776,-0.008943,0.005415,-0.00209,0.002854,0.002577,-0.173003,0.958248,-0.227664,0.17387781797588928
1763624011.060591,-0.618939,0.055871,-0.207851,0.755375,-0.002901,-0.008263,0.00929,-0.002795,0.002616,0.00419,-0.172887,0.958288,-0.227586,0.17375995301206307
1763624011.060912,-0.618978,0.055886,-0.207752,0.755369,-0.003123,-0.006888,0.007628,-0.002313,0.000834,0.005388,-0.172759,0.958334,-0.227487,0.17363009676423008
1763624011.090048,-0.61904,0.055852,-0.207618,0.755357,-0.00363,-0.007266,0.007992,-0.001872,0.000154,0.003955,-0.172672,0.958385,-0.22734,0.1735416956800852
1763624011.119632,-0.619082,0.055825,-0.207536,0.755347,0.000829,-0.004041,0.003958,-0.001357,0.001272,0.003943,-0.172629,0.958416,-0.227241,0.17349807786744967
1763624011.11995,-0.619108,0.055758,-0.207454,0.755353,0.003146,-0.008159,0.00396,-0.002672,0.000175,0.005664,-0.17264,0.958425,-0.227192,0.17350935224990638
1763624011.147366,-0.619135,0.055628,-0.207345,0.755371,0.003011,-0.013129,0.002121,-0.001079,0.000613,0.004146,-0.17271,0.958421,-0.227156,0.17358040659023896
1763624011.179175,-0.619146,0.055524,-0.207238,0.755399,0.003402,-0.013919,0.000602,-0.001572,0.001586,0.002981,-0.172736,0.958418,-0.227151,0.17360671919094434
1763624011.179481,-0.619171,0.055394,-0.207164,0.755409,0.002033,-0.006799,-0.001436,-0.002761,0.001759,9e-05,-0.17285,0.958405,-0.227118,0.17372250511960213
1763624011.20731,-0.619182,0.055322,-0.207181,0.7554,0.004644,0.001393,-0.008539,-0.001747,0.003311,0.002125,-0.172984,0.958384,-0.227106,0.1738584984534531
1763624011.238481,-0.619167,0.055245,-0.207264,0.755396,0.006411,0.001775,-0.012461,-0.002239,0.004572,0.00497,-0.173198,0.958332,-0.227162,0.17407579100334047
1763624011.23878,-0.619148,0.055117,-0.207342,0.755399,0.00841,-0.008382,-0.009247,-0.002465,0.005495,0.00728,-0.17348,0.958264,-0.227235,0.17436207207930307
1763624011.264121,-0.619082,0.054958,-0.207338,0.755466,0.016332,-0.013153,-0.004179,-0.00218,0.00617,0.006658,-0.17368,0.95818,-0.227435,0.1745652090809789
1763624011.296846,-0.618987,0.054775,-0.207248,0.755581,0.024885,-0.018675,0.004253,-0.000684,0.003958,0.005848,-0.173795,0.958094,-0.22771,0.17468195631694358
1763624011.29717,-0.618813,0.054544,-0.207088,0.755784,0.036447,-0.024382,0.005706,-0.001495,0.000231,0.003172,-0.17385,0.957969,-0.22819,0.17473794379958457
1763624011.321921,-0.61863,0.054373,-0.206896,0.755999,0.034425,-0.017418,0.007689,-0.001475,-0.001071,0.000458,-0.173772,0.957867,-0.22868,0.17465862025880088
1763624011.35743,-0.618467,0.054239,-0.206768,0.756177,0.02806,-0.003396,0.006868,-0.000412,-0.000858,-0.001238,-0.17373,0.957771,-0.229114,0.17461595513572076
1763624011.35773,-0.61831,0.054231,-0.206777,0.756304,0.020446,0.005961,-0.00113,-0.001228,-0.002382,0.001909,-0.173674,0.957687,-0.229504,0.17455922228255585
1763624011.381912,-0.6182,0.054225,-0.206866,0.75637,0.013419,0.002602,-0.005992,-0.001945,-0.000749,0.005596,-0.17374,0.95761,-0.229778,0.17462612696525698
1763624011.4169,-0.618119,0.054132,-0.206967,0.756415,0.012661,-0.000951,-0.012905,-0.000753,0.000789,0.004574,-0.173968,0.957516,-0.229997,0.1748576574624289
1763624011.417213,-0.617992,0.053985,-0.207087,0.756497,0.021431,0.001839,-0.018694,-0.00124,0.003057,0.0045,-0.174278,0.957376,-0.230344,0.17517250099230733
1763624011.451647,-0.617782,0.053876,-0.207217,0.75664,0.028236,0.002378,-0.011341,-0.004757,0.006393,0.004306,-0.1745,0.957205,-0.230884,0.17539803555584466
1763624011.451995,-0.617532,0.053785,-0.20736,0.756812,0.04406,0.014867,-0.006558,-0.005402,0.009783,0.001817,-0.174692,0.957016,-0.231524,0.17559292444877733
1763624011.475421,-0.617154,0.053815,-0.207544,0.757067,0.054431,0.021034,0.001404,-0.005776,0.010416,0.005318,-0.174689,0.956792,-0.23245,0.1755898865772807
1763624011.503587,-0.616704,0.053904,-0.207651,0.757398,0.057732,0.018009,0.010876,-0.005972,0.010147,0.005964,-0.174464,0.956567,-0.233541,0.17536143679320984
1763624011.536859,-0.616231,0.05397,-0.207732,0.757756,0.067245,0.01921,0.010285,-0.004572,0.006583,0.007524,-0.174229,0.956328,-0.234693,0.17512275673470534
1763624011.537141,-0.6157,0.054035,-0.207795,0.758166,0.075239,0.015936,0.007214,-0.003309,0.007676,0.007553,-0.173943,0.956061,-0.235989,0.1748323378961598
1763624011.562101,-0.615089,0.054013,-0.207937,0.758624,0.088806,0.017221,-0.003686,-0.002755,0.008966,0.008499,-0.173848,0.955705,-0.237497,0.17473583382141689
1763624011.59751,-0.614376,0.053923,-0.208202,0.759136,0.104758,0.02373,-0.013309,-0.001902,0.011643,0.009267,-0.173958,0.955243,-0.23927,0.17484747326377478
1763624011.597838,-0.613477,0.05374,-0.208585,0.75977,0.136647,0.031818,-0.019234,-0.002318,0.016714,0.009192,-0.174265,0.954621,-0.241516,0.17515933992821653
1763624011.62207,-0.612376,0.053548,-0.208994,0.760559,0.157169,0.033834,-0.016558,-0.00169,0.021052,0.01011,-0.174513,0.953878,-0.244257,0.17541120051379053
1763624011.656263,-0.611122,0.053386,-0.209337,0.761484,0.176647,0.033106,-0.010757,-0.000824,0.021177,0.012489,-0.174555,0.953071,-0.247359,0.17545378911484702
1763624011.656433,-0.609727,0.053205,-0.209656,0.762526,0.196457,0.029291,-0.003766,-0.002471,0.021349,0.016306,-0.174525,0.952176,-0.250804,0.17542327685922768
1763624011.682303,-0.608185,0.052942,-0.209946,0.763695,0.219947,0.023341,-0.011252,-0.003089,0.022946,0.016916,-0.174509,0.951166,-0.254616,0.17540714260864396
1763624011.716604,-0.606493,0.052486,-0.210319,0.764969,0.245662,0.013352,-0.027741,-0.003733,0.029125,0.018202,-0.174814,0.949974,-0.258823,0.17571686667534636
1763624011.717063,-0.604622,0.051872,-0.210763,0.766368,0.270609,0.015683,-0.037276,-0.001205,0.032643,0.018455,-0.175357,0.948592,-0.263483,0.17626836180631722
1763624011.742099,-0.602583,0.051202,-0.211309,0.767867,0.292097,0.022906,-0.049083,0.001636,0.030016,0.016127,-0.17603,0.947047,-0.268544,0.17695196804770533
1763624011.778672,-0.600376,0.050482,-0.212039,0.769441,0.310215,0.036451,-0.064127,0.00395,0.030743,0.018467,-0.17692,0.945317,-0.274,0.17785611806567994
1763624011.778869,-0.59803,0.049691,-0.21291,0.771077,0.323183,0.033087,-0.075972,0.004315,0.032589,0.024394,-0.178023,0.943414,-0.279782,0.1789769801587506
1763624011.807281,-0.595611,0.048804,-0.213894,0.772732,0.337287,0.036795,-0.095782,0.006069,0.033114,0.025002,-0.17937,0.941374,-0.285731,0.1803459540672562
1763624011.837108,-0.593079,0.047807,-0.215069,0.774414,0.350706,0.041994,-0.113289,0.005817,0.040121,0.026186,-0.181061,0.939141,-0.291943,0.1820652104881089
1763624011.837371,-0.590448,0.046783,-0.216353,0.776127,0.357441,0.047763,-0.117443,0.00612,0.050243,0.027181,-0.182871,0.936769,-0.298365,0.18390594094999962
1763624011.862036,-0.587741,0.045732,-0.217637,0.777884,0.372481,0.049241,-0.118646,0.005243,0.052109,0.030811,-0.184681,0.934294,-0.304938,0.185747312892035
1763624011.896046,-0.584913,0.044612,-0.218878,0.77973,0.3871,0.040217,-0.111129,0.005986,0.05691,0.034296,-0.18648,0.931677,-0.311773,0.18757814558389313
1763624011.896344,-0.581951,0.043494,-0.220066,0.781673,0.406403,0.036603,-0.112399,0.007305,0.056462,0.038057,-0.18814,0.928933,-0.318883,0.18926802584722546
1763624011.922008,-0.578834,0.042307,-0.221323,0.783695,0.424686,0.047673,-0.119309,0.007699,0.05888,0.035634,-0.189907,0.925985,-0.326323,0.19106746161740737
1763624011.957777,-0.575556,0.041113,-0.222689,0.785783,0.44352,0.05574,-0.130359,0.007777,0.060642,0.032887,-0.191728,0.922835,-0.334089,0.1929225549884329
1763624011.958121,-0.572104,0.039945,-0.224233,0.787922,0.461118,0.079713,-0.135851,0.008443,0.060953,0.032175,-0.193622,0.91946,-0.342204,0.19485269984464
1763624011.981955,-0.568465,0.038872,-0.22589,0.790133,0.482855,0.089561,-0.142958,0.010051,0.057498,0.038254,-0.195393,0.915888,-0.350673,0.1966580778399011
1763624012.017106,-0.564588,0.03775,-0.227674,0.792452,0.507954,0.085269,-0.156615,0.010118,0.054553,0.043049,-0.197254,0.912006,-0.359632,0.19855616827026418
1763624012.017449,-0.560539,0.036433,-0.229573,0.794836,0.530563,0.084069,-0.163272,0.01028,0.060296,0.043672,-0.199453,0.907802,-0.368937,0.20079962414169913
1763624012.041971,-0.556279,0.034968,-0.231445,0.797348,0.564147,0.076805,-0.172607,0.012169,0.059843,0.041782,-0.201732,0.903282,-0.378663,0.20312597243866998
1763624012.077573,-0.551725,0.033357,-0.23337,0.800016,0.605901,0.07535,-0.179397,0.01516,0.061467,0.039042,-0.204141,0.898346,-0.388974,0.20558616345561986
1763624012.07815,-0.546818,0.03163,-0.235355,0.802869,0.656097,0.079777,-0.186695,0.016134,0.063451,0.040648,-0.206603,0.892934,-0.39998,0.20810177984389602
1763624012.108231,-0.541493,0.029778,-0.237368,0.80595,0.7072,0.073069,-0.192754,0.014295,0.060609,0.046906,-0.209067,0.886969,-0.411797,0.21062080109599834
1763624012.108563,-0.535773,0.027526,-0.239272,0.809283,0.759615,0.037978,-0.193069,0.012515,0.058644,0.045138,-0.211839,0.880356,-0.424378,0.21345637707682258
1763624012.137866,-0.529676,0.025011,-0.241051,0.812842,0.815885,0.015095,-0.189217,0.011104,0.056817,0.043062,-0.214698,0.873143,-0.437636,0.2163826968182486
1763624012.161885,-0.523232,0.02232,-0.242589,0.816628,0.85179,0.014302,-0.169494,0.012489,0.056728,0.03278,-0.217406,0.865401,-0.45146,0.2191560711686219
1763624012.206239,-0.516301,0.019524,-0.243854,0.820724,0.892603,-0.001062,-0.155402,0.010718,0.045117,0.038365,-0.219756,0.857003,-0.466104,0.22156437411464117
1763624012.206861,-0.50203,0.013708,-0.246091,0.828986,0.95256,-0.034753,-0.120464,0.006117,0.025539,0.044774,-0.224362,0.839099,-0.495555,0.22628827334968019
1763624012.206589,-0.509332,0.016727,-0.2451,0.824759,0.933416,-0.016426,-0.14131,0.008926,0.033761,0.043805,-0.222084,0.848352,-0.480602,0.2239512477585633
1763624012.25598,-0.494495,0.010475,-0.246737,0.833359,0.973611,-0.071188,-0.109528,0.00344,0.010809,0.044888,-0.226561,0.829352,-0.510731,0.22854532178359563
1763624012.2563,-0.486866,0.00697,-0.247115,0.837763,0.978494,-0.097918,-0.087767,0.00244,0.00459,0.03799,-0.228945,0.819202,-0.525825,0.2309937983656879
1763624012.282097,-0.479158,0.003344,-0.247202,0.842192,0.991364,-0.10629,-0.062736,0.00172,-0.005882,0.025881,-0.231265,0.808739,-0.540794,0.23337768104628395
1763624012.315861,-0.471223,-0.000275,-0.247084,0.846698,1.008364,-0.112086,-0.052351,8.7e-05,-0.024109,0.022957,-0.23333,0.797832,-0.555897,0.23550077712456532
1763624012.316191,-0.463159,-0.003912,-0.246944,0.851168,1.008502,-0.104819,-0.057637,0.000683,-0.029578,0.015265,-0.235408,0.78652,-0.570937,0.23763838145198485
1763624012.342008,-0.455069,-0.007419,-0.246844,0.855526,0.997056,-0.092663,-0.051302,-0.001439,-0.034024,0.016432,-0.237356,0.774984,-0.585714,0.2396432879299499
1763624012.375596,-0.446989,-0.010844,-0.246652,0.859794,0.984679,-0.09567,-0.043553,-0.004516,-0.041264,0.015162,-0.239149,0.763287,-0.600167,0.2414893597125391
1763624012.375822,-0.438978,-0.014259,-0.246411,0.863931,0.966999,-0.097025,-0.038499,-0.00618,-0.049849,0.015517,-0.240976,0.751466,-0.61419,0.24337136839003382
1763624012.403705,-0.431085,-0.017557,-0.246176,0.867902,0.934929,-0.086225,-0.041824,-0.002894,-0.051889,0.007568,-0.242722,0.739635,-0.627715,0.2451707756877131
1763624012.406772,-0.423449,-0.020618,-0.245956,0.871649,0.889115,-0.066706,-0.033022,-0.003227,-0.051507,0.005634,-0.244243,0.728055,-0.640533,0.24673881576190365
1763624012.43529,-0.416178,-0.023374,-0.245738,0.875136,0.835794,-0.050932,-0.020106,-0.006401,-0.049838,0.004038,-0.245453,0.716936,-0.652499,0.247987042680112
1763624012.460884,-0.409348,-0.025882,-0.245504,0.878346,0.77857,-0.033453,-0.016634,-0.009434,-0.04706,-0.001425,-0.24646,0.70639,-0.663529,0.24902586238304544
1763624012.465707,-0.402843,-0.028149,-0.245356,0.881321,0.738042,-0.028838,-0.021526,-0.014779,-0.046916,0.004554,-0.247296,0.696254,-0.673851,0.24988856386476227
1763624012.497127,-0.396614,-0.030359,-0.245214,0.884107,0.707822,-0.045571,-0.025924,-0.017321,-0.044924,0.007448,-0.248192,0.686409,-0.683552,0.2508134197525717
1763624012.523445,-0.390619,-0.032568,-0.245055,0.886738,0.682621,-0.040215,-0.024101,-0.017876,-0.042824,0.001546,-0.249204,0.676792,-0.692712,0.2518582421879094
1763624012.529964,-0.384798,-0.034686,-0.244909,0.889239,0.657735,-0.035935,-0.019368,-0.01864,-0.03939,0.000218,-0.250169,0.667365,-0.701455,0.25285484172894157
1763624012.557422,-0.379109,-0.036719,-0.244709,0.891653,0.654821,-0.022225,-0.006881,-0.019486,-0.040377,-0.000144,-0.251024,0.658097,-0.709856,0.25373794991706844
1763624012.583578,-0.373383,-0.038562,-0.244471,0.894054,0.653579,-0.003468,0.001804,-0.019557,-0.043362,0.002478,-0.251515,0.648795,-0.718196,0.2542452258464293
1763624012.58783,-0.367629,-0.040353,-0.244249,0.896417,0.654199,-0.005144,-0.00564,-0.021921,-0.045512,0.000838,-0.251932,0.639386,-0.726441,0.2546760385467945
1763624012.617676,-0.361917,-0.042044,-0.244075,0.898708,0.633323,0.017448,-0.000716,-0.019304,-0.036471,-0.008824,-0.25224,0.629991,-0.734497,0.25499447309828704
1763624012.643454,-0.356306,-0.043413,-0.243895,0.900931,0.616605,0.046433,0.012131,-0.016629,-0.039009,-0.005707,-0.252027,0.620837,-0.742323,0.25477434812385064
1763624012.64757,-0.350888,-0.044561,-0.243728,0.903044,0.577914,0.051627,0.013494,-0.01544,-0.041451,-0.002146,-0.251523,0.612013,-0.749785,0.2542533569189592
1763624012.675653,-0.345781,-0.04565,-0.243646,0.90498,0.548144,0.055237,0.00662,-0.013553,-0.043153,-0.003489,-0.251121,0.603604,-0.756703,0.25383832519521393
1763624012.702911,-0.340884,-0.046651,-0.243584,0.906801,0.521419,0.048528,0.001259,-0.012408,-0.044358,-9.5e-05,-0.250674,0.595502,-0.763243,0.25337642672071187
1763624012.712459,-0.336235,-0.047672,-0.243542,0.908494,0.49299,0.043153,0.000879,-0.010352,-0.040952,-0.002222,-0.250394,0.587715,-0.769346,0.2530872827915195
1763624012.743636,-0.331759,-0.048638,-0.243469,0.910106,0.479382,0.044875,0.00692,-0.007815,-0.038574,-0.002546,-0.250077,0.580187,-0.775141,0.25275990638377605
1763624012.766971,-0.327365,-0.04953,-0.243289,0.911696,0.47231,0.046482,0.022402,-0.007285,-0.034666,-0.009033,-0.249601,0.572815,-0.780758,0.2522680965111177
1763624012.767305,-0.323039,-0.050296,-0.242949,0.913286,0.462057,0.046452,0.038641,-0.004968,-0.038159,-0.009639,-0.248833,0.565615,-0.786233,0.25147510306583204
1763624012.797533,-0.318771,-0.051002,-0.242514,0.914861,0.448375,0.04363,0.047521,-0.002616,-0.039105,-0.011083,-0.247933,0.558526,-0.791567,0.2505460044166152
1763624012.823115,-0.31461,-0.051628,-0.242031,0.916393,0.437738,0.045274,0.05068,-0.002815,-0.041246,-0.010445,-0.246914,0.551621,-0.79671,0.2494944708414549
1763624012.827487,-0.310593,-0.052259,-0.241514,0.917863,0.42112,0.029737,0.047029,-0.003119,-0.046051,-0.008025,-0.245957,0.544922,-0.801602,0.24850682317696843
1763624012.855637,-0.306763,-0.052932,-0.241013,0.919243,0.400819,0.031126,0.041278,-0.000414,-0.047112,-0.014289,-0.245182,0.538464,-0.80619,0.24770741707340302
1763624012.883535,-0.303022,-0.053537,-0.240581,0.920561,0.382191,0.039226,0.042582,-0.001633,-0.043485,-0.015328,-0.244371,0.53214,-0.810623,0.24687099658660072
1763624012.888275,-0.299479,-0.054003,-0.240142,0.921807,0.358212,0.042268,0.038862,-0.001742,-0.043721,-0.014459,-0.243396,0.526186,-0.814792,0.24586570077675324
1763624012.91636,-0.296111,-0.054519,-0.23977,0.922961,0.337476,0.029412,0.033207,-0.001984,-0.042079,-0.009645,-0.242635,0.520453,-0.818692,0.24508114041288856
1763624012.943367,-0.29292,-0.055083,-0.239452,0.924028,0.313327,0.022676,0.025906,-0.002675,-0.040354,-0.015936,-0.242077,0.514952,-0.822328,0.24450592924151923
1763624012.947483,-0.289959,-0.055572,-0.239136,0.925013,0.289029,0.023791,0.026384,-0.002691,-0.039972,-0.018538,-0.241488,0.509853,-0.825672,0.24389884350613683
1763624012.977498,-0.287189,-0.055964,-0.238854,0.925926,0.268872,0.026587,0.022112,-0.002535,-0.042668,-0.016396,-0.240828,0.505097,-0.828782,0.2432187818266355
1763624013.003725,-0.284575,-0.056357,-0.238662,0.926759,0.25388,0.028425,0.017355,-0.003256,-0.042539,-0.014441,-0.240293,0.500564,-0.831682,0.24266768452981666
1763624013.007792,-0.282078,-0.056702,-0.238525,0.927536,0.235006,0.033941,0.013596,-0.004498,-0.042149,-0.016247,-0.239751,0.496225,-0.834434,0.24210937572591137
1763624013.03743,-0.279733,-0.056963,-0.238419,0.928257,0.219745,0.030056,0.009191,-0.004516,-0.0427,-0.015033,-0.239141,0.492166,-0.837009,0.24148110352124447
1763624013.061857,-0.277499,-0.057283,-0.238308,0.928936,0.204256,0.023115,0.009776,-0.004076,-0.04078,-0.01794,-0.238685,0.488256,-0.839426,0.24101143003132677
1763624013.066502,-0.275349,-0.057534,-0.238197,0.929588,0.196909,0.038014,0.017012,-0.002082,-0.038737,-0.017383,-0.23814,0.484514,-0.841745,0.24045041210617704
1763624013.09755,-0.273255,-0.057764,-0.238056,0.930228,0.193538,0.033346,0.021067,-8e-05,-0.039301,-0.014311,-0.237568,0.480877,-0.843989,0.23986156531689207
1763624013.123382,-0.271263,-0.058027,-0.237833,0.930851,0.182728,0.023391,0.026264,0.000607,-0.037844,-0.016268,-0.237059,0.47741,-0.846099,0.2393373382107792
1763624013.127671,-0.269349,-0.058232,-0.237544,0.931468,0.176321,0.026668,0.03303,0.002307,-0.039106,-0.019613,-0.236447,0.474114,-0.848121,0.23870746609598617
1763624013.157541,-0.267436,-0.058434,-0.237255,0.93208,0.180992,0.010992,0.031113,0.001085,-0.044967,-0.012411,-0.235831,0.470816,-0.850127,0.23807361317052483
1763624013.183363,-0.265536,-0.058765,-0.236909,0.932691,0.186749,0.013445,0.034253,0.006213,-0.043175,-0.022265,-0.235435,0.467482,-0.852074,0.2376662269380059
1763624013.187449,-0.26352,-0.05903,-0.236578,0.933329,0.195087,0.02614,0.036534,0.004891,-0.03856,-0.029484,-0.234876,0.463971,-0.854145,0.23709105721293486
1763624013.217407,-0.261427,-0.059051,-0.236217,0.934008,0.193035,0.054953,0.045853,0.00571,-0.035066,-0.028475,-0.233816,0.460453,-0.856337,0.23600064096962522
1763624013.243563,-0.259385,-0.059027,-0.235865,0.934667,0.174799,0.036519,0.046593,0.000301,-0.037396,-0.015565,-0.232701,0.457032,-0.858471,0.23485394887420394
1763624013.247536,-0.257552,-0.059142,-0.235395,0.935285,0.156412,-0.003264,0.050658,-0.002664,-0.039614,-0.010559,-0.231882,0.453925,-0.860339,0.23401192816147265
1763624013.277858,-0.255913,-0.059454,-0.234823,0.935859,0.148304,-0.013563,0.053222,-0.003227,-0.042403,-0.014615,-0.231471,0.451075,-0.861947,0.23358946337551592
1763624013.303897,-0.254377,-0.059836,-0.234229,0.936402,0.142547,-0.012445,0.0552,-0.002129,-0.044582,-0.016371,-0.231227,0.448368,-0.863423,0.2333387833899415
1763624013.307709,-0.252952,-0.060127,-0.233628,0.936919,0.130247,-0.001812,0.055611,-0.003326,-0.043481,-0.019234,-0.230862,0.445897,-0.8648,0.23296347008639148
1763624013.337539,-0.251638,-0.060391,-0.23306,0.937398,0.115128,-0.000846,0.059252,-0.005658,-0.043659,-0.018044,-0.230514,0.443621,-0.866062,0.23260591294917707
1763624013.363375,-0.250476,-0.060572,-0.232479,0.937841,0.093326,-0.002347,0.060606,-0.006714,-0.045763,-0.018814,-0.230076,0.44165,-0.867185,0.2321558348517951
1763624013.366835,-0.249503,-0.060854,-0.231914,0.938222,0.079097,-0.020881,0.050754,-0.005524,-0.04897,-0.018638,-0.229916,0.439952,-0.86809,0.23199144325420604
1763624013.397579,-0.248656,-0.061132,-0.23143,0.938549,0.059609,-0.009696,0.041981,-0.002011,-0.050785,-0.025579,-0.229844,0.438455,-0.868867,0.23191728037164708
1763624013.423467,-0.247911,-0.061288,-0.23115,0.938804,0.043412,0.01027,0.020052,0.000227,-0.055041,-0.028928,-0.229684,0.437146,-0.869568,0.23175300530190612
1763624013.427489,-0.247245,-0.061242,-0.231118,0.938991,0.031975,0.028681,0.002344,0.001518,-0.052354,-0.027065,-0.229297,0.436013,-0.870239,0.2313553349813404
1763624013.457852,-0.246573,-0.061042,-0.231314,0.939132,0.027523,0.041394,-0.01214,2.2e-05,-0.052277,-0.017166,-0.228724,0.434889,-0.870952,0.230766676069275
1763624013.486835,-0.245938,-0.060949,-0.231708,0.939208,0.013878,0.033905,-0.037415,-0.001001,-0.046967,-0.014735,-0.228458,0.43373,-0.871599,0.23049354827975208
1763624013.487145,-0.245398,-0.060999,-0.232276,0.939205,-0.000742,0.018025,-0.050716,0.001206,-0.036424,-0.019688,-0.228581,0.432621,-0.872118,0.23061984192786847
1763624013.517533,-0.244985,-0.060851,-0.232862,0.939178,-0.009235,0.04098,-0.047171,0.005543,-0.03306,-0.022437,-0.228394,0.43183,-0.872559,0.2304277411300058
1763624013.543369,-0.244577,-0.060543,-0.233496,0.939146,-0.008497,0.058824,-0.046598,0.004892,-0.030628,-0.024476,-0.227933,0.431114,-0.873033,0.2299543483137967
1763624013.547525,-0.244163,-0.060136,-0.234173,0.939112,-0.001345,0.060504,-0.053978,0.003993,-0.029844,-0.015276,-0.227301,0.430429,-0.873536,0.22930523439285508
1763624013.578445,-0.243787,-0.059845,-0.234877,0.939052,-0.00543,0.048049,-0.056946,0.005298,-0.022243,-0.012274,-0.226914,0.429745,-0.873973,0.2289079064104399
1763624013.601875,-0.243514,-0.059474,-0.235554,0.938977,-0.020226,0.046503,-0.04999,0.008209,-0.014052,-0.014253,-0.22641,0.42929,-0.874328,0.22839028606164555
1763624013.603284,-0.243348,-0.05905,-0.236175,0.938891,-0.028707,0.058112,-0.042208,0.010884,-0.007237,-0.016812,-0.225828,0.429062,-0.87459,0.22779289153860804
1763624013.638901,-0.243297,-0.058472,-0.2367,0.938808,-0.041763,0.06438,-0.024913,0.008154,-0.002363,-0.010404,-0.224965,0.429137,-0.874775,0.2269072172461012
1763624013.662078,-0.243446,-0.057797,-0.237073,0.938717,-0.061032,0.057545,-0.007914,0.006166,0.005429,-0.006813,-0.223939,0.42965,-0.874787,0.22585424079574046
1763624013.662979,-0.243833,-0.057143,-0.237268,0.938607,-0.077874,0.045428,0.010818,0.007003,0.003847,-0.00074,-0.222977,0.43061,-0.874561,0.22486721970171328
1763624013.695832,-0.244365,-0.056495,-0.237264,0.938509,-0.081047,0.035783,0.017504,0.008262,0.000863,-0.001319,-0.222,0.43187,-0.874188,0.22386513651114376
1763624013.723592,-0.245017,-0.055905,-0.237218,0.938387,-0.087719,0.039128,0.01666,0.008681,0.001893,-0.008645,-0.221165,0.433318,-0.873683,0.22300884231078977
1763624013.72757,-0.245739,-0.055218,-0.237224,0.938237,-0.087335,0.049544,0.015174,0.009551,0.001849,-0.005688,-0.220205,0.434925,-0.873127,0.22202453884069293
1763624013.757498,-0.246421,-0.054529,-0.23729,0.938081,-0.083442,0.045937,0.000313,0.013207,-0.004484,0.00075,-0.219252,0.436448,-0.872606,0.22104780344251962
1763624013.783306,-0.246978,-0.053867,-0.237501,0.93792,-0.073065,0.044291,-0.01237,0.014556,-0.00488,0.005469,-0.21836,0.437704,-0.872201,0.22013354684920813
1763624013.788679,-0.247415,-0.053297,-0.237825,0.937755,-0.051982,0.039957,-0.02742,0.014256,-0.005346,0.009159,-0.217641,0.438678,-0.871891,0.2193968900478168
1763624013.816517,-0.247682,-0.052991,-0.238229,0.9376,-0.033701,0.018326,-0.036282,0.01055,-0.004809,0.013216,-0.217379,0.439204,-0.871692,0.2191283723381657
1763624013.843497,-0.24783,-0.052978,-0.238622,0.937461,-0.016971,-0.013556,-0.041441,0.006087,0.004029,0.009192,-0.217604,0.439378,-0.871548,0.21935892179191893
1763624013.847656,-0.247974,-0.053163,-0.238918,0.937337,-0.016183,-0.029717,-0.025832,0.004151,0.01487,0.002759,-0.218153,0.439467,-0.871366,0.219921409019331
1763624013.877418,-0.24818,-0.053372,-0.238982,0.937254,-0.014964,-0.025366,-0.003939,0.002192,0.015913,-0.001531,-0.218668,0.439705,-0.871117,0.22044911341021556
1763624013.903389,-0.248369,-0.053541,-0.238867,0.937224,-0.013072,-0.029653,0.00999,-0.001627,0.008592,-0.002011,-0.219015,0.439976,-0.870892,0.22080492213306557
1763624013.907515,-0.248559,-0.053674,-0.238633,0.937226,-0.007412,-0.02651,0.01903,-0.001396,0.00501,-0.002406,-0.219238,0.440295,-0.870675,0.22103340760085805
1763624013.937408,-0.248727,-0.053769,-0.238342,0.93725,-0.008623,-0.021601,0.023646,-0.001943,0.006796,-0.003818,-0.219353,0.440607,-0.870488,0.22115131247505326
1763624013.963272,-0.249005,-0.0538,-0.237987,0.937264,-0.022844,-0.022919,0.033716,0.000179,0.008159,-0.005487,-0.21937,0.44116,-0.870204,0.22116865605034733
1763624013.9676,-0.249404,-0.053712,-0.237585,0.937265,-0.040768,-0.006543,0.03932,0.001708,0.002832,-0.0037,-0.219194,0.441993,-0.869825,0.22098837706239086
1763624013.997489,-0.249876,-0.053525,-0.237286,0.937226,-0.049202,0.006532,0.029151,0.003802,-0.002913,-0.003392,-0.218913,0.442979,-0.869394,0.2207003968738789
1763624014.029746,-0.250333,-0.053286,-0.237138,0.937155,-0.046046,0.00989,0.009894,0.003504,-0.002662,-0.00127,-0.218602,0.44393,-0.868987,0.22038169254778212
1763624014.030032,-0.250755,-0.053028,-0.237102,0.937066,-0.043313,0.016864,0.006062,0.004116,-0.00109,0.003107,-0.218291,0.444801,-0.86862,0.2200629385701286
1763624014.057288,-0.251108,-0.052863,-0.237092,0.936983,-0.030857,-0.002094,0.003654,0.001946,-0.003525,0.00713,-0.218134,0.445501,-0.868301,0.21990199288987164
1763624014.083173,-0.25132,-0.052835,-0.236991,0.936954,-0.015743,-0.012412,0.014449,-0.000519,-0.003323,0.006452,-0.218128,0.445907,-0.868094,0.21989586045341147
1763624014.083541,-0.251464,-0.053012,-0.236777,0.936959,-0.01172,-0.033552,0.022189,0.001093,0.000133,-0.00423,-0.218422,0.44612,-0.867911,0.22019705104008966
1763624014.118698,-0.251579,-0.053054,-0.236421,0.937016,-0.002816,-0.008717,0.042675,0.00314,0.003757,-0.010707,-0.218383,0.44638,-0.867787,0.22015710997134472
1763624014.141957,-0.251624,-0.052956,-0.235987,0.937119,-0.003519,-0.00191,0.045047,0.000561,-0.001027,-0.000288,-0.218012,0.446609,-0.867762,0.2197770389698428
1763624014.142879,-0.251715,-0.052909,-0.235538,0.93721,-0.007925,-0.015644,0.041077,-0.000798,-0.002844,0.005027,-0.217751,0.446895,-0.867681,0.21950947610687366
1763624014.177349,-0.251904,-0.053105,-0.235092,0.93726,-0.015626,-0.045451,0.037221,-0.002938,-0.005514,0.007573,-0.217988,0.447229,-0.867449,0.21975238111596812
1763624014.203909,-0.252179,-0.053435,-0.234614,0.937287,-0.017214,-0.056997,0.035626,-0.002051,-0.004679,0.003087,-0.218497,0.447654,-0.867101,0.22027407997276577
1763624014.204214,-0.252462,-0.053782,-0.234164,0.937303,-0.017462,-0.04857,0.035937,-0.001295,-0.0053,-0.002744,-0.219056,0.44808,-0.86674,0.22084692921221882
1763624014.237486,-0.252756,-0.054083,-0.233685,0.937327,-0.020857,-0.038772,0.041894,-0.004299,-0.001405,-0.00737,-0.219518,0.448553,-0.866379,0.22132033410060373
1763624014.263342,-0.253064,-0.054186,-0.233212,0.937355,-0.024668,-0.021655,0.041761,-0.005278,-0.004683,-0.00867,-0.219619,0.449147,-0.866045,0.22142397781212156
1763624014.263588,-0.253363,-0.054214,-0.232857,0.937361,-0.030634,-0.008394,0.032446,-0.005257,-0.007733,-0.009899,-0.219631,0.449738,-0.865736,0.2214361214796871
1763624014.298944,-0.253617,-0.054054,-0.232587,0.937368,-0.031505,0.011816,0.024161,-0.004989,-0.007792,-0.010683,-0.219314,0.450321,-0.865513,0.22111125351466204
1763624014.322055,-0.253833,-0.053768,-0.232465,0.937357,-0.033196,0.019635,0.009621,-0.004301,-0.008023,-0.005002,-0.218814,0.450866,-0.865355,0.22059896285141428
1763624014.323632,-0.254042,-0.053524,-0.232505,0.937304,-0.035219,0.018071,0.001122,-0.003225,-0.006004,-0.000485,-0.218468,0.45134,-0.865196,0.2202442507207701
1763624014.35751,-0.254291,-0.053313,-0.232592,0.937227,-0.038674,0.015234,0.002668,-0.001377,-0.002611,0.001586,-0.218224,0.451856,-0.864988,0.21999426051182558
1763624014.3832,-0.254531,-0.053144,-0.232621,0.937164,-0.031199,0.008434,0.003357,-0.002637,-0.002062,0.001145,-0.218029,0.45235,-0.864779,0.219794439401453
1763624014.383547,-0.254755,-0.05302,-0.232573,0.937123,-0.034292,-0.002085,0.01131,-0.005196,-0.000588,0.002363,-0.217871,0.452811,-0.864578,0.219632457507643
1763624014.41753,-0.255101,-0.052975,-0.232429,0.937067,-0.041547,-0.007732,0.024551,-0.004229,0.002797,0.000341,-0.217867,0.453468,-0.864234,0.21962847390506657
1763624014.444116,-0.255584,-0.05291,-0.232166,0.937004,-0.059181,-0.01528,0.029328,-0.002079,0.000939,-0.00132,-0.21783,0.454399,-0.863754,0.21959060030772548
1763624014.444454,-0.256188,-0.052822,-0.231931,0.936902,-0.068834,-0.007215,0.026388,-0.000161,0.000704,-0.005421,-0.217814,0.455544,-0.863155,0.2195741513263341
1763624014.477259,-0.256868,-0.052624,-0.231733,0.936776,-0.07129,0.005284,0.021735,0.001074,-0.000242,-0.003066,-0.217643,0.456866,-0.8625,0.21939878765215945
1763624014.503033,-0.257526,-0.052395,-0.231626,0.936635,-0.068752,0.001663,0.01241,0.002944,-0.001566,0.000549,-0.21745,0.458144,-0.86187,0.21920115707405285
1763624014.503387,-0.258142,-0.052233,-0.231571,0.936488,-0.062885,0.000436,0.008184,0.004135,-0.000279,0.004129,-0.217386,0.459302,-0.861269,0.2191357036892332
1763624014.536116,-0.258669,-0.052126,-0.231542,0.936355,-0.055771,-0.009055,0.004217,0.003675,0.000767,0.005181,-0.217402,0.460274,-0.860747,0.2191518850122516
1763624014.564047,-0.259172,-0.05214,-0.231555,0.936212,-0.052276,-0.016268,-0.000479,0.00176,0.002166,0.003274,-0.217654,0.461134,-0.860222,0.2194102304742653
1763624014.56437,-0.259648,-0.052144,-0.23154,0.936084,-0.052636,-0.013543,0.001873,0.001118,0.003117,0.001121,-0.217859,0.461959,-0.859727,0.2196203314054503
1763624014.595513,-0.260159,-0.052135,-0.231486,0.935956,-0.047588,-0.013575,0.001912,0.000915,0.002703,0.00019,-0.218037,0.462858,-0.859199,0.21980255876168933
1763624014.623452,-0.260628,-0.052126,-0.231493,0.935824,-0.045733,-0.006628,-0.000607,0.000259,0.005272,-0.00136,-0.218229,0.463671,-0.858711,0.21999944268138427
1763624014.62369,-0.26108,-0.052012,-0.231492,0.935705,-0.046093,-0.002831,0.00809,-0.001092,0.007936,-0.000166,-0.218212,0.464507,-0.858264,0.21998190551521518
1763624014.65726,-0.261513,-0.051917,-0.231422,0.935606,-0.039683,-0.004362,0.008284,-0.001856,0.007336,0.001169,-0.218188,0.465318,-0.857831,0.21995725197631893
1763624014.682487,-0.261912,-0.051845,-0.231341,0.935519,-0.040707,-0.005141,0.009195,-0.001885,0.007815,0.00196,-0.218187,0.466059,-0.857428,0.2199563989256829
1763624014.682794,-0.262375,-0.051807,-0.231225,0.93542,-0.044768,-0.01008,0.012506,-0.001619,0.008414,0.001517,-0.218259,0.466903,-0.856951,0.22003005572396228
1763624014.733077,-0.262856,-0.051784,-0.231069,0.935325,-0.043177,-0.017746,0.017254,-0.001943,0.00741,0.001444,-0.218346,0.46778,-0.85645,0.22011928558856814
1763624014.73396,-0.263367,-0.051827,-0.230857,0.935231,-0.038727,-0.015479,0.020838,-0.000518,0.003694,0.001248,-0.218541,0.468689,-0.855903,0.22031913543632103
1763624014.74718,-0.263809,-0.051813,-0.230616,0.935166,-0.040624,-0.008114,0.01948,-0.001093,0.000925,-0.003511,-0.218586,0.469512,-0.85544,0.22036531104990414
1763624014.771725,-0.264256,-0.051693,-0.230439,0.935091,-0.04132,0.006693,0.017343,0.00105,0.000353,-0.002142,-0.218465,0.470382,-0.854993,0.2202412849092907
1763624014.799659,-0.264638,-0.051443,-0.230355,0.935017,-0.039859,0.017102,0.013301,0.000179,0.001276,0.001973,-0.218121,0.471182,-0.854641,0.21988864116624618
1763624014.804378,-0.265014,-0.051149,-0.230337,0.934931,-0.044727,0.022888,0.009315,0.000317,0.001945,0.002036,-0.217727,0.471977,-0.854303,0.21948488679278622
1763624014.836107,-0.265409,-0.050843,-0.230313,0.934842,-0.048085,0.014786,0.006378,-0.00021,0.000996,0.0032,-0.217315,0.472811,-0.853946,0.2190629055946509
1763624014.863328,-0.265787,-0.050603,-0.230306,0.934749,-0.043134,0.009252,0.006982,0.000548,0.003659,0.00396,-0.217026,0.47358,-0.853594,0.218766706605883
1763624014.863679,-0.266181,-0.050428,-0.230285,0.934652,-0.045615,0.003307,0.005644,-0.000342,0.005637,0.002654,-0.21686,0.474347,-0.853209,0.21859688833669572
1763624014.893475,-0.266625,-0.050261,-0.230193,0.934556,-0.051887,0.005605,0.015089,0.000705,0.007404,-0.0016,-0.216694,0.475213,-0.85277,0.21842668673860913
1763624014.924147,-0.267129,-0.050011,-0.230072,0.934456,-0.055553,0.009337,0.018296,0.001303,0.003799,-0.001976,-0.216383,0.476229,-0.852282,0.2181081383819385
1763624014.924487,-0.267658,-0.049711,-0.230015,0.934335,-0.059224,0.017156,0.009574,0.001247,0.000827,-0.000738,-0.216024,0.477296,-0.851776,0.21774045022837063
1763624014.953308,-0.268155,-0.049392,-0.230055,0.934199,-0.053551,0.019981,-0.003986,0.002067,0.001982,-0.002301,-0.215664,0.478295,-0.851306,0.2173718942471085
1763624014.98327,-0.268632,-0.049053,-0.230178,0.93405,-0.054357,0.025922,-0.00649,0.001471,0.002383,0.002137,-0.215302,0.47925,-0.850861,0.2170010770081511
1763624014.983552,-0.269066,-0.048783,-0.23035,0.933896,-0.047419,0.019442,-0.010197,0.000749,0.002026,0.005698,-0.215075,0.480085,-0.850448,0.21676855337059026
1763624015.013461,-0.269457,-0.048504,-0.230477,0.933767,-0.04488,0.009248,-0.006428,-0.002153,0.006656,0.005546,-0.214791,0.480862,-0.85008,0.21647789141275012
1763624015.044175,-0.269889,-0.048346,-0.230529,0.933637,-0.051159,0.003745,0.004109,0.000669,0.013126,-0.002082,-0.21471,0.481667,-0.849645,0.2163948832345949
1763624015.04451,-0.270345,-0.048039,-0.230497,0.933529,-0.056783,0.030847,0.014309,0.003118,0.010227,-0.006866,-0.214319,0.482604,-0.849212,0.2159945458802574
1763624015.073582,-0.270808,-0.047565,-0.230504,0.933418,-0.055538,0.037728,0.009864,0.001792,0.003468,0.000362,-0.213641,0.483626,-0.848801,0.2153005302869616
1763624015.102985,-0.271269,-0.047098,-0.230604,0.933283,-0.054833,0.027216,-0.005791,0.000277,0.002971,0.004759,-0.213024,0.484619,-0.84839,0.21466891897190307
1763624015.103733,-0.271836,-0.046807,-0.23074,0.933099,-0.062531,0.015799,-0.013475,0.000923,0.005763,0.005955,-0.212799,0.4857,-0.847828,0.214438657537207
1763624015.138819,-0.272455,-0.04656,-0.230934,0.932883,-0.067964,0.015714,-0.017688,0.001094,0.005487,0.004347,-0.212708,0.486832,-0.847201,0.21434559047068674
1763624015.162273,-0.273072,-0.046311,-0.231171,0.932656,-0.06899,0.010749,-0.015629,0.000537,0.008162,0.007544,-0.212637,0.487953,-0.846574,0.21427286971028184
1763624015.16368,-0.273693,-0.046156,-0.231327,0.932443,-0.063332,0.000557,-0.004275,4.9e-05,0.009922,0.007837,-0.2127,0.489052,-0.845924,0.21433730095851014
1763624015.191419,-0.274281,-0.046026,-0.231331,0.932275,-0.057878,-0.003639,0.006603,-0.000594,0.007818,0.006687,-0.212718,0.490116,-0.845303,0.2143558052122028
1763624015.221823,-0.274816,-0.045957,-0.231244,0.932143,-0.043667,-0.006159,0.010199,-0.000975,0.005743,0.004754,-0.212777,0.491081,-0.844728,0.21441616668893493
1763624015.222163,-0.275255,-0.045902,-0.23111,0.932049,-0.035049,-0.006213,0.01413,-0.001076,0.006763,0.001992,-0.212794,0.491885,-0.844256,0.21443352822621042
1763624015.251205,-0.275636,-0.045819,-0.230951,0.93198,-0.028222,-0.006853,0.011882,-0.000339,0.004735,0.003693,-0.212722,0.492611,-0.84385,0.21435997876741364
1763624015.291687,-0.275974,-0.045783,-0.230878,0.9319,-0.026422,-0.005968,0.008021,-2.6e-05,0.00186,0.00285,-0.212763,0.49322,-0.843485,0.21440172826278064
1763624015.29202,-0.276228,-0.045743,-0.230798,0.931846,-0.015161,-0.001885,0.004132,0.001884,-0.002953,0.004478,-0.212757,0.49369,-0.843211,0.21439568131658332
1763624015.320706,-0.276411,-0.045718,-0.230771,0.9318,-0.011019,0.000266,0.001532,0.000332,0.00024,0.00115,-0.212775,0.494019,-0.843014,0.21441405635020877
1763624015.34687,-0.276572,-0.045834,-0.230735,0.931756,-0.009328,-0.01137,0.003215,-0.001265,0.002381,0.001665,-0.213042,0.494243,-0.842815,0.21468736702823776
1763624015.34728,-0.276746,-0.045923,-0.230625,0.931727,-0.014141,-0.018807,0.010331,-0.00178,0.004668,0.002193,-0.213225,0.494521,-0.842605,0.2148747857907357
1763624015.371951,-0.276963,-0.045999,-0.230471,0.931697,-0.022911,-0.013137,0.01823,-0.001276,0.009251,-0.003415,-0.213378,0.494889,-0.842351,0.2150312376181236
1763624015.408225,-0.277248,-0.045995,-0.230256,0.931666,-0.028397,-0.008412,0.020758,-0.000672,0.001909,-0.001141,-0.21338,0.495422,-0.842036,0.21503349144890113
1763624015.408533,-0.277532,-0.04591,-0.230068,0.931631,-0.028747,-0.002806,0.01838,-3e-05,0.002138,-0.002075,-0.213246,0.49599,-0.841736,0.21489624476974328
1763624015.437435,-0.277875,-0.045831,-0.229921,0.93157,-0.030069,-0.004291,0.010578,0.000569,0.001345,-0.001443,-0.213167,0.496645,-0.84137,0.21481533401757058
1763624015.463153,-0.278195,-0.045747,-0.229832,0.9315,-0.031472,-0.00404,0.00699,0.000231,0.003969,0.000913,-0.213104,0.497249,-0.841029,0.21475087869738255
1763624015.463413,-0.278492,-0.045669,-0.229768,0.931431,-0.028283,-0.001245,0.003231,0.001089,0.003323,-0.0005,-0.213053,0.497806,-0.840713,0.21469856207024898
1763624015.493993,-0.278737,-0.045656,-0.229781,0.931355,-0.018544,0.00242,-0.002138,0.000934,9.5e-05,8.3e-05,-0.21314,0.498224,-0.840443,0.2147876610539983
1763624015.524231,-0.27888,-0.045621,-0.229855,0.931295,-0.013462,0.001495,-0.007036,0.000203,0.000624,0.000617,-0.213177,0.498467,-0.840289,0.214825625558811
1763624015.524552,-0.278971,-0.045594,-0.229973,0.931241,-0.006484,0.001855,-0.011601,0.000225,0.001297,0.001285,-0.21323,0.498607,-0.840193,0.21487977859292476
1763624015.553361,-0.279022,-0.045588,-0.230095,0.931195,-0.003486,0.005042,-0.008156,0.000155,0.006598,0.001085,-0.213305,0.498669,-0.840137,0.21495657494067122
1763624015.60045,-0.279012,-0.045505,-0.23018,0.931182,0.000889,0.006634,-0.007229,-2e-05,0.003311,-2.2e-05,-0.213192,0.498673,-0.840163,0.21484097092325466
1763624015.60056,-0.278961,-0.045497,-0.230261,0.931177,0.008967,0.002952,-0.004516,-0.000413,0.003087,0.002305,-0.213199,0.498571,-0.840222,0.21484809106773342
1763624015.612257,-0.278834,-0.045496,-0.230287,0.931209,0.016372,0.000377,-0.003116,-0.000797,0.003835,0.000572,-0.213157,0.498352,-0.840363,0.2148050233457625
1763624015.640803,-0.278742,-0.045486,-0.230271,0.931241,0.008362,0.004341,0.001758,-0.000117,0.003017,-7.9e-05,-0.213089,0.498204,-0.840468,0.214735423021707
1763624015.640855,-0.278661,-0.045484,-0.230213,0.931279,0.007526,-0.00443,0.006484,-0.00226,0.003668,0.003258,-0.21302,0.498081,-0.840558,0.2146648726996369
1763624015.671529,-0.278645,-0.045468,-0.230097,0.931314,0.005793,-0.004755,0.006675,-0.001047,0.000636,0.00018,-0.212921,0.498087,-0.840579,0.2145636448503189
1763624015.70386,-0.278659,-0.04555,-0.230013,0.931326,-0.001568,-0.003703,0.006799,-0.001564,0.000552,-0.001495,-0.213034,0.498091,-0.840548,0.21467929803813138
1763624015.703871,-0.278724,-0.045478,-0.229949,0.931326,-0.003046,0.003244,0.002556,-0.001804,0.000605,-0.000424,-0.212894,0.498252,-0.840489,0.21453583664680595
1763624015.735753,-0.278798,-0.045431,-0.229942,0.931308,-0.006987,0.007818,-0.001163,-0.000705,0.000896,-0.000798,-0.212836,0.498401,-0.840415,0.21447653916765191
1763624015.763881,-0.27892,-0.045353,-0.22996,0.931271,-0.012816,0.0061,0.004102,-0.001865,0.002666,-0.001114,-0.212752,0.498641,-0.840294,0.21439055119148231
1763624015.76421,-0.279042,-0.045231,-0.229923,0.931249,-0.012357,0.009573,0.005834,-0.001502,-0.001296,-0.000865,-0.212558,0.498916,-0.84018,0.21419198351719043
1763624015.792882,-0.279113,-0.045106,-0.229955,0.931226,-0.007502,0.016241,0.001322,-0.000446,-0.001998,-0.001941,-0.212374,0.49909,-0.840123,0.21400371828015657
1763624015.819826,-0.279104,-0.044946,-0.23003,0.931218,-0.004634,0.016037,-0.003771,-0.000247,-0.001433,-0.001416,-0.212113,0.499135,-0.840162,0.21373667014248254
1763624015.820533,-0.279126,-0.044739,-0.230164,0.931188,-0.013954,0.031179,-0.007726,0.000116,0.001163,-0.003998,-0.211809,0.499243,-0.840175,0.21342551571254068
1763624015.85193,-0.27919,-0.044418,-0.230357,0.931137,-0.020865,0.035869,-0.010455,-0.000531,0.000947,-0.001108,-0.211346,0.499463,-0.84016,0.21295194381941632
1763624015.885015,-0.279262,-0.044064,-0.230612,0.931069,-0.0209,0.034761,-0.016933,-0.001229,-0.002195,0.0024,-0.210855,0.4997,-0.840143,0.21244952258401495
1763624015.885377,-0.279385,-0.043778,-0.230948,0.930962,-0.023625,0.028908,-0.024025,-0.001729,0.002366,-0.002102,-0.210558,0.499973,-0.840055,0.21214571309313981
1763624015.913779,-0.279556,-0.043423,-0.231253,0.930852,-0.028377,0.047306,-0.017258,-0.001419,0.001957,-0.000456,-0.210137,0.500367,-0.839926,0.21171504572804015
1763624015.943498,-0.279706,-0.043027,-0.231517,0.93076,-0.025529,0.034324,-0.007764,-0.001496,-0.002066,0.003723,-0.209608,0.500755,-0.839827,0.21117398582956193
1763624015.943846,-0.279823,-0.042681,-0.231684,0.930699,-0.017857,0.029451,-0.001801,-0.005207,0.00086,0.003972,-0.209107,0.501085,-0.839755,0.2106616423306204
1763624015.973589,-0.279988,-0.042535,-0.231772,0.930634,-0.027047,0.013521,0.003104,-0.001886,0.008633,-0.008094,-0.208955,0.501415,-0.839596,0.21050618060476248
1763624016.003247,-0.280171,-0.04212,-0.231716,0.930611,-0.028415,0.04747,0.019727,0.003126,0.005631,-0.010057,-0.208236,0.50194,-0.83946,0.20977117357292496
1763624016.00354,-0.280352,-0.041521,-0.231742,0.930577,-0.03064,0.054814,0.008772,-0.000614,0.000701,-0.000892,-0.207216,0.502535,-0.839357,0.2087283235194801
1763624016.04701,-0.280538,-0.041015,-0.231832,0.930521,-0.038208,0.036242,0.002586,-0.00218,-0.001267,0.004212,-0.206406,0.503075,-0.839233,0.20790044089193538
1763624016.047495,-0.280868,-0.040708,-0.231894,0.93042,-0.03705,0.016741,0.002003,-0.000722,0.001442,0.006633,-0.206014,0.503771,-0.838912,0.20749978753547238
1763624016.066966,-0.281162,-0.04045,-0.231935,0.930332,-0.032363,0.01652,8e-06,-0.000583,0.002307,0.002224,-0.205686,0.504385,-0.838623,0.2071646972698849
1763624016.093546,-0.281388,-0.040212,-0.232031,0.93025,-0.029379,0.025109,0.001149,-4e-05,0.000158,0.000153,-0.205396,0.504862,-0.838408,0.20686819855725413
1763624016.12448,-0.281571,-0.039888,-0.232073,0.930198,-0.02594,0.025972,0.005625,-0.002031,0.004079,0.002759,-0.204898,0.505319,-0.838254,0.20635946887487525
1763624016.124777,-0.281772,-0.039619,-0.232092,0.930144,-0.022216,0.019423,0.006792,-0.002786,0.001831,0.001656,-0.204498,0.505786,-0.83807,0.20595081743649815
1763624016.155086,-0.281961,-0.039369,-0.232091,0.930098,-0.019833,0.021,0.009716,-0.003282,0.003195,0.00144,-0.204116,0.506227,-0.837896,0.20556073337236633
1763624016.183266,-0.282066,-0.03911,-0.232069,0.930082,-0.014826,0.023577,0.009214,-0.000849,0.001778,0.001224,-0.203669,0.506537,-0.837818,0.20510404057494214
1763624016.183324,-0.282158,-0.03884,-0.232084,0.930062,-0.012188,0.024331,0.008196,0.000662,0.001922,-0.000563,-0.203216,0.50682,-0.837757,0.20464133847712193
1763624016.213032,-0.282226,-0.038575,-0.23212,0.930043,-0.007876,0.028475,0.003305,0.001866,0.000189,0.000901,-0.202774,0.507057,-0.837721,0.2041898860107084
1763624016.241951,-0.282171,-0.038286,-0.232233,0.930044,0.005865,0.035205,-0.005781,0.002945,-0.002309,0.001921,-0.202274,0.507081,-0.837827,0.2036793650936764
1763624016.24198,-0.282077,-0.038057,-0.232409,0.930038,0.007255,0.016185,-0.013169,-0.001052,-0.002474,0.002678,-0.201903,0.506996,-0.837968,0.20330053455777328
1763624016.271144,-0.281968,-0.037846,-0.232569,0.930039,0.003365,0.030174,-0.00702,0.00143,0.005561,-0.003212,-0.201552,0.506879,-0.838123,0.202942212624167
1763624016.300631,-0.281925,-0.037555,-0.23267,0.930039,-0.007443,0.026207,-0.000127,0.000344,0.003655,-0.000961,-0.201046,0.506926,-0.838216,0.20242565523433653
1763624016.303517,-0.281964,-0.037294,-0.232731,0.930023,-0.01647,0.023279,0.00969,0.001153,0.003263,-0.000692,-0.200613,0.507106,-0.838211,0.2019836267319077
1763624016.345677,-0.282074,-0.03702,-0.232731,0.93,-0.019724,0.01991,0.008609,0.000581,0.002063,0.000615,-0.200152,0.507426,-0.838128,0.2015130052021034
1763624016.345995,-0.282232,-0.036734,-0.232689,0.929974,-0.016809,0.018707,0.011738,0.000769,0.003313,0.001979,-0.199669,0.507841,-0.837992,0.2010200272034615
1763624016.370781,-0.282374,-0.036488,-0.232568,0.929971,-0.015861,0.011441,0.016373,0.000362,0.002126,0.002044,-0.199208,0.508227,-0.837867,0.2005496943382397
1763624016.392629,-0.282506,-0.036301,-0.232483,0.929959,-0.010183,0.009217,0.014883,-0.00053,0.002361,0.001899,-0.198872,0.508559,-0.837745,0.20020689565176217
1763624016.427486,-0.282611,-0.036147,-0.232361,0.929964,-0.007556,0.009718,0.013811,0.000394,0.001357,8.6e-05,-0.198566,0.508838,-0.837649,0.19989452678427808
1763624016.427551,-0.282657,-0.035953,-0.232255,0.929984,-0.008429,0.018431,0.013177,0.000217,-7e-06,-0.001301,-0.198168,0.509032,-0.837625,0.1994885220700599
1763624016.454463,-0.282696,-0.035722,-0.232248,0.929983,-0.001218,0.024802,0.00589,0.000319,0.000597,-0.000705,-0.197753,0.509213,-0.837614,0.19906498524084607
1763624016.481157,-0.282643,-0.035128,-0.232418,0.929979,-0.000756,0.033632,-0.003088,0.000897,-0.000299,5.8e-05,-0.19672,0.509376,-0.837757,0.19801147585102394
1763624016.481045,-0.282691,-0.035433,-0.232283,0.929987,-0.001976,0.031008,-0.000236,0.000415,-0.000109,-0.002653,-0.197233,0.509336,-0.837661,0.1985346762072771
1763624016.511764,-0.282545,-0.034791,-0.232536,0.929992,0.001055,0.033134,-0.002887,0.001024,0.000361,0.000812,-0.196114,0.509349,-0.837915,0.1973935172245138
1763624016.539988,-0.282459,-0.034505,-0.232673,0.929994,0.000126,0.023579,-0.003911,0.001562,0.002319,0.0015,-0.195621,0.509313,-0.838053,0.1968906307705171
1763624016.541581,-0.282394,-0.034284,-0.232793,0.929992,-8.8e-05,0.024746,2.6e-05,0.002355,0.001416,0.001011,-0.195247,0.509287,-0.838156,0.1965092789589746
1763624016.581499,-0.282349,-0.034084,-0.232834,0.930003,-0.000644,0.017889,0.001763,0.001694,0.00162,-0.00048,-0.194878,0.509298,-0.838235,0.19613308343742655
1763624016.58157,-0.282326,-0.03388,-0.232852,0.930013,-0.000138,0.014682,0.004766,0.001936,0.00012,0.000955,-0.194498,0.509356,-0.838288,0.195745672833129
1763624016.604698,-0.282326,-0.033739,-0.23285,0.930018,-0.002316,0.015324,0.007201,0.003984,0.001532,-0.002176,-0.194235,0.509425,-0.838307,0.19547756808236894
1763624016.631999,-0.282341,-0.033583,-0.232868,0.930015,-0.001553,0.015075,0.001936,0.000818,0.000509,-0.003379,-0.193963,0.509522,-0.838311,0.1952002993409227
1763624016.660141,-0.282348,-0.03335,-0.232926,0.930007,-0.002692,0.016881,0.000176,0.000912,-0.000288,7.9e-05,-0.193563,0.509635,-0.838335,0.19479253331726878
1763624016.660783,-0.282318,-0.033135,-0.232984,0.930009,-0.00186,0.019488,0.000141,0.001976,0.002196,-0.001179,-0.193183,0.509676,-0.838398,0.1944051774351498
1763624016.690555,-0.282309,-0.032915,-0.233022,0.93001,-0.000495,0.016235,-0.002234,3.6e-05,4e-05,-2.2e-05,-0.192792,0.509761,-0.838436,0.19400673986705677
1763624016.725956,-0.282232,-0.032781,-0.233121,0.930013,0.004925,0.014374,-0.001359,0.002135,0.001433,0.002319,-0.192561,0.509676,-0.838541,0.19377128819724035
1763624016.726264,-0.282195,-0.032662,-0.233121,0.930029,0.000443,0.008694,0.002369,0.002206,0.002168,-0.002495,-0.192324,0.509671,-0.838598,0.19352984423260622
1763624016.754399,-0.282173,-0.032528,-0.233139,0.930036,0.000412,0.011462,0.00781,0.001098,0.002547,-0.001375,-0.192076,0.509695,-0.838641,0.19327700977395398
1763624016.781117,-0.282123,-0.032356,-0.233117,0.930063,-0.00226,0.009513,0.007571,-0.000514,-0.000517,0.002005,-0.191721,0.509699,-0.838719,0.19291541776330193
1763624016.781357,-0.282146,-0.032279,-0.233095,0.930064,-0.001608,0.002063,0.001118,0.000522,0.000542,-0.002004,-0.191578,0.509779,-0.838703,0.19276972594346584
1763624016.816755,-0.282147,-0.032141,-0.233093,0.930069,0.003076,0.013416,0.00814,0.000117,0.000688,0.000661,-0.191319,0.509849,-0.83872,0.19250577461888807
1763624016.842583,-0.282143,-0.032027,-0.233031,0.930089,0.001377,0.008302,0.008191,0.001537,-0.004126,0.001141,-0.191071,0.509911,-0.838739,0.19225308786492418
1763624016.843027,-0.282088,-0.03195,-0.232948,0.930129,0.003121,-0.005357,0.007748,-0.000749,-0.001942,0.000681,-0.190858,0.509872,-0.838811,0.19203612751428598
1763624016.870966,-0.282125,-0.031989,-0.232785,0.930158,-0.001433,0.001901,0.012259,0.004454,0.004337,-0.017662,-0.190859,0.509948,-0.838765,0.19203707628963296
1763624016.901129,-0.282095,-0.031629,-0.232678,0.930206,-0.007982,0.04335,0.021776,0.004033,0.005215,-0.007348,-0.190118,0.510094,-0.838844,0.19128233737519318
1763624016.930845,-0.282144,-0.0312,-0.232632,0.930217,-0.020816,0.025853,0.0137,-0.001179,-0.001795,0.003406,-0.189317,0.510394,-0.838842,0.19046663063299174
1763624016.96092,-0.282369,-0.031108,-0.232633,0.930152,-0.022751,0.010465,0.007164,6.1e-05,-0.001479,0.00288,-0.189246,0.510818,-0.838601,0.19039414500361318
1763624016.961221,-0.282598,-0.031003,-0.232613,0.930091,-0.021487,0.006411,0.00406,0.000765,0.000112,0.001857,-0.189143,0.511259,-0.838355,0.19028932470026352
1763624016.990746,-0.28281,-0.030903,-0.232583,0.930037,-0.0238,0.006827,0.006148,0.001201,0.002339,0.000586,-0.189035,0.511673,-0.838127,0.19017930085221116
1763624016.997901,-0.28305,-0.030727,-0.232516,0.929986,-0.028664,0.007535,0.011513,0.000128,0.003513,0.001508,-0.188779,0.512177,-0.837877,0.18991857836269482
1763624017.025632,-0.283315,-0.03058,-0.232422,0.929934,-0.029113,0.003573,0.012595,-0.000309,0.001503,0.002463,-0.188573,0.512714,-0.837594,0.18970895742309893
1763624017.051818,-0.2836,-0.03044,-0.232325,0.929876,-0.02924,0.000838,0.011075,-0.000211,0.0004,0.000881,-0.188386,0.513281,-0.837289,0.189518505412039
1763624017.081982,-0.28387,-0.030345,-0.232246,0.929816,-0.023627,-0.000945,0.006986,0.000298,-0.000302,0.000172,-0.188286,0.5138,-0.836994,0.18941654191739082
1763624017.082282,-0.284075,-0.030285,-0.232228,0.92976,-0.015792,0.001627,0.00062,0.000311,0.000163,-0.000258,-0.188256,0.514178,-0.836768,0.18938609063700326
1763624017.111433,-0.284191,-0.030239,-0.23224,0.929723,-0.006522,0.003312,-0.00244,0.000943,-0.001287,0.001826,-0.188229,0.514393,-0.836642,0.1893585868937785
1763624017.141985,-0.284232,-0.030214,-0.232277,0.929702,-0.003174,0.003829,-0.003428,-0.000688,0.001217,0.002047,-0.188221,0.514467,-0.836598,0.18935048906928878
1763624017.142318,-0.284285,-0.030281,-0.232317,0.929674,-0.004892,-0.008766,-0.003087,-0.000737,0.003678,9.1e-05,-0.188391,0.514515,-0.83653,0.18952362002061787
1763624017.170977,-0.284358,-0.030303,-0.232296,0.929656,-0.010026,-0.005483,0.003731,0.001107,0.004645,-0.003054,-0.188452,0.514632,-0.836444,0.18958577846290342
1763624017.200991,-0.284465,-0.030262,-0.232223,0.929643,-0.011219,0.001584,0.009871,0.001827,0.003711,-0.003152,-0.188384,0.514847,-0.836327,0.18951653835726437
1763624017.201302,-0.284578,-0.030158,-0.232135,0.929634,-0.01127,0.005637,0.010835,0.001586,0.00234,-0.001476,-0.188192,0.515105,-0.836212,0.18932093779164105
1763624017.230558,-0.284695,-0.030079,-0.232071,0.929617,-0.010323,-0.001538,0.006243,-2.8e-05,0.000312,0.002382,-0.188063,0.515353,-0.836088,0.18918962593150038
