timestamp,quat_x,quat_y,quat_z,quat_w,rot_x,rot_y,rot_z,acc_x,acc_y,acc_z,grav_x,grav_y,grav_z
1760108355.275027,-0.082536,0.272494,-0.000000,0.958611,-0.004364,-0.013552,-0.001983,-0.384435,0.039403,-0.132918,0.522432,0.158240,-0.837870
1760108355.303674,-0.089869,0.162191,-0.044858,0.981634,-0.009691,-0.012345,-0.002526,-0.173110,0.007522,-0.039324,0.310361,0.190988,-0.931235
1760108355.335308,-0.094736,0.076447,-0.078582,0.989447,-0.012201,-0.017107,0.000252,0.000067,0.000044,-0.000310,0.136392,0.199488,-0.970362
1760108355.335615,-0.094834,0.076314,-0.078572,0.989449,-0.011815,-0.012267,-0.000885,0.000574,0.000375,-0.002635,0.136115,0.199658,-0.970365
1760108355.365711,-0.094230,0.076632,-0.078464,0.989491,-0.005493,-0.011152,0.002112,0.000061,0.000634,-0.002401,0.136865,0.198505,-0.970496
1760108355.396228,-0.094207,0.076910,-0.078358,0.989480,0.009145,-0.003053,0.001556,-0.002743,0.000916,-0.000467,0.137437,0.198485,-0.970420
1760108355.426932,-0.094181,0.076822,-0.078377,0.989488,0.010871,-0.000178,0.001204,-0.003429,0.002870,-0.000906,0.137265,0.198423,-0.970457
1760108355.427261,-0.094154,0.076733,-0.078395,0.989495,0.012597,0.002698,0.000852,-0.004114,0.004825,-0.001346,0.137092,0.198361,-0.970494
1760108355.429056,-0.093950,0.076529,-0.078419,0.989529,0.016558,0.000362,-0.000168,-0.006938,0.007999,0.002465,0.136720,0.197936,-0.970633
1760108355.457583,-0.093899,0.076358,-0.078470,0.989543,0.018035,-0.009967,-0.003263,-0.007531,0.012204,0.005169,0.136383,0.197818,-0.970705
1760108355.493203,-0.093956,0.076192,-0.078481,0.989549,0.011645,-0.008022,0.000390,-0.005105,0.013542,0.002416,0.136043,0.197907,-0.970734
1760108355.493518,-0.094012,0.076025,-0.078492,0.989556,0.005256,-0.006078,0.004042,-0.002679,0.014880,-0.000336,0.135703,0.197996,-0.970764
1760108355.557283,-0.094831,0.075887,-0.078274,0.989506,-0.004269,0.013033,0.018831,0.002690,0.011178,-0.006130,0.135336,0.199552,-0.970496
1760108355.557632,-0.095418,0.075958,-0.078063,0.989460,-0.003589,0.010451,0.017706,0.001096,0.008875,-0.001278,0.135417,0.200684,-0.970252
1760108355.558036,-0.096005,0.076028,-0.077853,0.989415,-0.002909,0.007869,0.016580,-0.000499,0.006573,0.003573,0.135499,0.201816,-0.970005
1760108355.586577,-0.096326,0.076068,-0.077772,0.989387,0.000540,0.000116,0.008458,0.001201,0.006081,0.002158,0.135539,0.202440,-0.969870
1760108355.588454,-0.096896,0.076088,-0.077718,0.989334,0.001794,-0.000591,0.000533,0.001641,0.006000,0.002056,0.135492,0.203552,-0.969643
1760108355.618186,-0.097030,0.075999,-0.077745,0.989326,0.015173,-0.007932,-0.003648,-0.000130,0.002271,0.005193,0.135289,0.203805,-0.969619
1760108355.648213,-0.096984,0.075858,-0.077802,0.989337,0.029160,-0.015504,-0.004901,-0.000510,0.002013,0.003893,0.135007,0.203703,-0.969679
1760108355.648562,-0.096938,0.075716,-0.077858,0.989347,0.043147,-0.023076,-0.006154,-0.000890,0.001755,0.002593,0.134724,0.203601,-0.969740
1760108355.695340,-0.096269,0.075401,-0.077788,0.989442,0.050022,-0.014308,0.019748,-0.000064,0.002256,0.002675,0.134234,0.202235,-0.970094
1760108355.695677,-0.096022,0.075312,-0.077662,0.989483,0.047861,-0.016406,0.020423,-0.002963,-0.000535,0.002370,0.134125,0.201722,-0.970216
1760108355.724948,-0.095766,0.075139,-0.077561,0.989529,0.054537,-0.022339,0.014361,-0.001730,-0.002481,-0.001126,0.133849,0.201182,-0.970366
1760108355.754610,-0.095253,0.074797,-0.077530,0.989607,0.047509,-0.016563,-0.002657,-0.001506,-0.002335,-0.001858,0.133269,0.200124,-0.970665
1760108355.754942,-0.095116,0.074635,-0.077559,0.989630,0.035743,-0.017549,-0.001584,-0.001006,-0.002008,-0.004157,0.132967,0.199836,-0.970765
1760108355.783685,-0.095010,0.074455,-0.077576,0.989652,0.028645,-0.021793,-0.001149,-0.002441,-0.003472,-0.002014,0.132628,0.199605,-0.970859
1760108355.824524,-0.094675,0.073992,-0.077568,0.989720,0.008330,-0.025636,0.003621,-0.001664,-0.004028,-0.004251,0.131776,0.198883,-0.971123
1760108355.824823,-0.094654,0.073863,-0.077516,0.989735,0.000767,-0.020179,0.009252,-0.002105,-0.005351,-0.004253,0.131536,0.198817,-0.971170
1760108355.865132,-0.094723,0.073667,-0.077403,0.989752,-0.007413,-0.019151,0.010494,-0.001993,-0.006328,-0.004678,0.131160,0.198909,-0.971202
1760108355.865468,-0.094792,0.073470,-0.077290,0.989769,-0.015593,-0.018122,0.011735,-0.001881,-0.007304,-0.005103,0.130784,0.199001,-0.971233
1760108355.893880,-0.095071,0.073184,-0.077034,0.989783,-0.033131,-0.009199,0.011181,-0.002604,-0.010553,-0.005399,0.130225,0.199476,-0.971211
1760108355.894188,-0.095247,0.073122,-0.076981,0.989775,-0.038157,-0.006502,0.003479,-0.002222,-0.009166,-0.004924,0.130084,0.199804,-0.971162
1760108355.924759,-0.095480,0.073077,-0.076990,0.989755,-0.049770,-0.002450,-0.007215,-0.001736,-0.007104,-0.003732,0.129956,0.200255,-0.971087
1760108355.940145,-0.095905,0.073010,-0.077047,0.989715,-0.065511,-0.007948,-0.008679,-0.000931,-0.003510,-0.001418,0.129741,0.201088,-0.970943
1760108355.973977,-0.096872,0.072840,-0.077139,0.989626,-0.085463,-0.014631,-0.010453,-0.001636,-0.004904,-0.000006,0.129223,0.202972,-0.970620
1760108355.974419,-0.097293,0.072719,-0.077148,0.989593,-0.082460,-0.020492,-0.006901,-0.001053,-0.003156,-0.000004,0.128913,0.203782,-0.970492
1760108356.003469,-0.097747,0.072604,-0.077135,0.989558,-0.081218,-0.020107,-0.007818,-0.001295,-0.003147,-0.002004,0.128612,0.204653,-0.970348
1760108356.032918,-0.098851,0.072349,-0.077026,0.989475,-0.074352,-0.018028,0.002659,-0.001331,-0.001632,-0.001509,0.127948,0.206767,-0.969988
1760108356.033245,-0.099200,0.072248,-0.076962,0.989453,-0.060103,-0.018805,0.001066,-0.001682,-0.001022,0.001749,0.127704,0.207429,-0.969879
1760108356.063069,-0.099484,0.072116,-0.076913,0.989438,-0.048921,-0.019494,0.001480,-0.000794,-0.000834,0.000372,0.127406,0.207959,-0.969804
1760108356.094683,-0.099939,0.071843,-0.076815,0.989419,-0.024269,-0.012578,0.003023,-0.000111,0.000231,0.000560,0.126813,0.208801,-0.969701
1760108356.095002,-0.100028,0.071736,-0.076793,0.989420,-0.011855,-0.007776,-0.001989,0.000640,0.001478,-0.005589,0.126592,0.208957,-0.969697
1760108356.158561,-0.099919,0.071659,-0.076857,0.989431,-0.000271,-0.009552,-0.001947,-0.000471,0.002196,-0.004997,0.126445,0.208742,-0.969762
1760108356.158900,-0.099811,0.071582,-0.076920,0.989443,0.011314,-0.011328,-0.001906,-0.001583,0.002914,-0.004405,0.126298,0.208526,-0.969828
1760108356.159205,-0.099702,0.071505,-0.076984,0.989454,0.022899,-0.013105,-0.001864,-0.002694,0.003632,-0.003813,0.126151,0.208311,-0.969893
1760108356.191624,-0.099305,0.071440,-0.076954,0.989501,0.026806,0.011303,0.014230,0.001959,0.006535,-0.009946,0.126097,0.207520,-0.970070
1760108356.191958,-0.099153,0.071613,-0.076859,0.989512,0.018542,0.038684,0.021457,0.001156,0.003207,-0.007438,0.126482,0.207234,-0.970081
1760108356.221920,-0.099045,0.071845,-0.076724,0.989516,0.013795,0.042109,0.024098,-0.001477,0.002407,-0.003841,0.126986,0.207038,-0.970057
1760108356.270722,-0.098938,0.072318,-0.076591,0.989502,0.008417,0.019433,-0.003040,-0.005277,0.001122,0.003557,0.127962,0.206876,-0.969963
1760108356.270984,-0.098943,0.072347,-0.076641,0.989496,0.004037,0.015273,-0.006508,-0.003358,0.004856,0.004866,0.128008,0.206897,-0.969952
1760108356.271769,-0.098948,0.072376,-0.076692,0.989489,-0.000343,0.011114,-0.009976,-0.001439,0.008589,0.006175,0.128054,0.206917,-0.969942
1760108356.301913,-0.099314,0.072462,-0.076756,0.989442,-0.029019,0.002249,0.002714,-0.000009,0.005289,0.004299,0.128148,0.207655,-0.969772
1760108356.332847,-0.099687,0.072342,-0.076678,0.989419,-0.009559,-0.003790,0.000410,-0.001228,-0.001542,0.001762,0.127865,0.208359,-0.969658
1760108356.333143,-0.099783,0.072256,-0.076697,0.989414,-0.000254,-0.013015,-0.003588,-0.000886,0.003456,-0.003341,0.127676,0.208536,-0.969645
1760108356.363146,-0.099884,0.072228,-0.076671,0.989408,-0.008454,0.001241,0.005522,0.000129,0.006683,-0.001235,0.127609,0.208728,-0.969613
1760108356.396984,-0.100106,0.072242,-0.076520,0.989396,-0.006923,-0.007429,0.008432,-0.000944,0.002878,0.000888,0.127632,0.209146,-0.969519
1760108356.397409,-0.100132,0.072229,-0.076457,0.989399,0.003049,-0.007077,0.004650,0.000801,-0.000458,-0.000443,0.127615,0.209187,-0.969513
1760108356.456988,-0.099969,0.072248,-0.076497,0.989411,0.019329,0.016319,-0.006755,0.001206,-0.002685,-0.003105,0.127672,0.208875,-0.969573
1760108356.457328,-0.099813,0.072337,-0.076564,0.989415,0.024959,0.012883,-0.007217,0.000111,-0.000504,-0.001136,0.127859,0.208590,-0.969609
1760108356.457670,-0.099656,0.072426,-0.076632,0.989419,0.030588,0.009447,-0.007679,-0.000985,0.001677,0.000833,0.128046,0.208304,-0.969646
1760108356.491892,-0.099186,0.072528,-0.076794,0.989447,0.030855,0.002767,-0.004093,0.001398,0.002161,-0.001567,0.128290,0.207419,-0.969804
1760108356.492225,-0.098983,0.072557,-0.076833,0.989462,0.027124,0.013690,-0.001489,0.002463,0.000838,-0.002268,0.128375,0.207030,-0.969876
1760108356.521284,-0.098786,0.072635,-0.076885,0.989472,0.032157,0.014085,-0.006114,0.000927,-0.000072,-0.001323,0.128551,0.206660,-0.969931
1760108356.555558,-0.098320,0.072784,-0.077088,0.989491,0.036032,0.009456,-0.012520,-0.000114,-0.000689,-0.000683,0.128879,0.205796,-0.970071
1760108356.555892,-0.098145,0.072813,-0.077164,0.989501,0.030825,0.008289,-0.008619,-0.000114,-0.000689,-0.000683,0.128950,0.205466,-0.970132
1760108356.585778,-0.097971,0.072842,-0.077240,0.989510,0.029427,0.005868,-0.010010,-0.000114,-0.000689,-0.000683,0.129021,0.205139,-0.970192
1760108356.614267,-0.097535,0.072851,-0.077424,0.989538,0.021523,0.001454,-0.004649,0.002902,-0.001854,-0.001407,0.129074,0.204311,-0.970359
1760108356.614604,-0.097398,0.072852,-0.077460,0.989548,0.015333,0.002490,-0.000731,0.003506,-0.003594,0.000249,0.129093,0.204046,-0.970412
1760108356.651638,-0.097191,0.072829,-0.077517,0.989566,0.013937,0.000497,-0.007383,0.000126,-0.005406,-0.000374,0.129071,0.203645,-0.970500
1760108356.651962,-0.097105,0.072835,-0.077574,0.989570,0.011766,-0.005547,-0.006486,-0.000394,-0.003785,0.001787,0.129085,0.203484,-0.970532
1760108356.691497,-0.096984,0.072711,-0.077626,0.989586,0.007651,-0.015217,0.000350,-0.000575,-0.001676,0.000088,0.128851,0.203238,-0.970614
1760108356.691817,-0.096933,0.072636,-0.077627,0.989597,0.003986,-0.008209,0.003146,-0.000008,-0.000898,-0.001718,0.128711,0.203125,-0.970656
1760108356.722090,-0.096871,0.072600,-0.077584,0.989609,0.003055,-0.003862,0.006471,0.000871,-0.001944,-0.001729,0.128661,0.202995,-0.970690
1760108356.757433,-0.096702,0.072566,-0.077464,0.989637,0.008999,0.003301,0.002621,-0.000463,-0.005304,-0.001554,0.128647,0.202643,-0.970766
1760108356.757746,-0.096638,0.072555,-0.077468,0.989644,0.010211,0.004559,-0.002030,0.000088,-0.004245,-0.002716,0.128635,0.202517,-0.970793
1760108356.791814,-0.096496,0.072639,-0.077631,0.989639,0.004200,0.010317,-0.011734,0.000060,-0.000743,-0.003398,0.128791,0.202271,-0.970824
1760108356.792126,-0.096467,0.072737,-0.077720,0.989628,-0.006371,0.017474,-0.011971,-0.001032,-0.000383,-0.000095,0.128969,0.202240,-0.970807
1760108356.825898,-0.096471,0.072782,-0.077791,0.989618,-0.006927,0.004976,-0.014947,-0.002687,0.000933,0.002143,0.129043,0.202262,-0.970792
1760108356.827862,-0.096543,0.072654,-0.078001,0.989604,-0.014195,-0.014172,-0.005674,0.002642,0.003488,-0.002564,0.128737,0.202413,-0.970802
1760108356.856725,-0.096636,0.072630,-0.077981,0.989599,-0.011663,-0.006950,0.002126,0.001020,0.000494,-0.003151,0.128678,0.202589,-0.970773
1760108356.889384,-0.096730,0.072708,-0.077899,0.989590,-0.006209,0.016219,0.007018,0.000946,0.001348,-0.004610,0.128833,0.202774,-0.970714
1760108356.889738,-0.096781,0.072806,-0.077858,0.989581,-0.008446,0.011920,0.011730,-0.002114,0.004883,-0.000899,0.129024,0.202883,-0.970665
1760108356.919381,-0.096896,0.072907,-0.077741,0.989572,-0.013813,0.008852,0.013952,-0.003179,0.004896,0.000476,0.129227,0.203107,-0.970591
1760108356.954476,-0.097133,0.072919,-0.077593,0.989559,-0.016674,-0.004683,0.002999,-0.000047,0.001049,0.000934,0.129241,0.203554,-0.970496
1760108356.954809,-0.097221,0.072926,-0.077552,0.989553,-0.015224,-0.000757,0.002179,0.001962,-0.000943,0.000071,0.129249,0.203721,-0.970460
1760108356.991372,-0.097365,0.072949,-0.077580,0.989535,0.003927,-0.000374,-0.008234,-0.000496,-0.005045,0.002677,0.129264,0.204012,-0.970397
1760108356.991697,-0.097329,0.072892,-0.077671,0.989536,0.013653,-0.000695,-0.016984,-0.000993,-0.002936,0.001563,0.129138,0.203945,-0.970428
1760108357.020854,-0.097244,0.072793,-0.077825,0.989539,0.016317,-0.007420,-0.018214,-0.000775,0.001165,0.000021,0.128927,0.203783,-0.970490
1760108357.058321,-0.097073,0.072664,-0.078032,0.989549,0.001913,0.001595,0.000865,0.000178,0.007017,-0.001781,0.128659,0.203457,-0.970594
1760108357.058661,-0.097044,0.072685,-0.077993,0.989554,0.003067,-0.005062,0.007393,-0.001910,0.004971,-0.000118,0.128715,0.203398,-0.970599
1760108357.088993,-0.096964,0.072538,-0.077864,0.989582,0.008547,-0.009853,0.006597,-0.000708,-0.000986,-0.005208,0.128464,0.203203,-0.970673
1760108357.089336,-0.096889,0.072472,-0.077840,0.989596,0.010489,0.005890,0.000207,0.002652,0.000458,-0.009192,0.128352,0.203045,-0.970721
1760108357.118673,-0.096847,0.072544,-0.077818,0.989597,0.005554,0.009941,0.004508,-0.000814,0.002163,-0.004955,0.128506,0.202970,-0.970716
1760108357.159963,-0.096819,0.072735,-0.077746,0.989591,0.006619,0.005069,0.000481,-0.003832,-0.004403,0.002849,0.128902,0.202932,-0.970671
1760108357.160986,-0.096746,0.072729,-0.077779,0.989596,0.013114,-0.000749,-0.005968,-0.002607,-0.002614,0.002244,0.128896,0.202793,-0.970701
1760108357.229712,-0.096501,0.072718,-0.077887,0.989613,0.013170,0.009884,-0.002970,0.000225,0.002698,-0.002761,0.128893,0.202325,-0.970799
1760108357.230060,-0.096400,0.072748,-0.077889,0.989620,0.015105,0.008379,0.000685,-0.000233,0.002423,-0.002407,0.128970,0.202131,-0.970829
1760108357.230718,-0.096197,0.072809,-0.077892,0.989635,0.018975,0.005370,0.007996,-0.001148,0.001873,-0.001699,0.129124,0.201742,-0.970890
1760108357.230385,-0.096298,0.072779,-0.077890,0.989628,0.017040,0.006875,0.004341,-0.000690,0.002148,-0.002053,0.129047,0.201937,-0.970860
1760108357.261273,-0.095889,0.072904,-0.077707,0.989673,0.016505,0.006352,0.014808,0.001514,0.001987,-0.001450,0.129401,0.201127,-0.970981
1760108357.272496,-0.095767,0.072973,-0.077537,0.989693,0.007918,0.011395,0.014374,0.000362,-0.000242,-0.001934,0.129590,0.200875,-0.971007
1760108357.310529,-0.095668,0.073116,-0.077443,0.989699,0.008753,0.008793,-0.000619,0.001959,-0.004799,0.000389,0.129908,0.200691,-0.971003
1760108357.310841,-0.095625,0.073183,-0.077486,0.989695,0.009800,0.012277,-0.007981,0.001269,-0.002180,0.001530,0.130038,0.200620,-0.971000
1760108357.340688,-0.095547,0.073251,-0.077580,0.989690,0.011374,0.011160,-0.012531,-0.000032,-0.001564,0.002262,0.130166,0.200489,-0.971010
1760108357.369143,-0.095324,0.073351,-0.077797,0.989687,0.012227,0.005383,-0.006059,0.000640,0.001058,-0.000132,0.130358,0.200095,-0.971066
1760108357.369546,-0.095188,0.073395,-0.077834,0.989694,0.013302,0.002967,0.000133,0.001203,0.000359,-0.000502,0.130460,0.199839,-0.971105
1760108357.415669,-0.094980,0.073455,-0.077847,0.989709,0.017570,0.004453,0.001437,0.001235,-0.000473,-0.001006,0.130609,0.199442,-0.971166
1760108357.415995,-0.094865,0.073518,-0.077831,0.989716,0.015015,0.006268,0.003739,0.002096,-0.001246,0.000558,0.130757,0.199222,-0.971192
1760108357.447452,-0.094660,0.073587,-0.077879,0.989727,0.010860,0.003225,-0.008462,0.001463,-0.002826,-0.001883,0.130918,0.198836,-0.971249
1760108357.478330,-0.094592,0.073586,-0.077990,0.989725,0.009102,0.005725,-0.012671,0.001857,-0.002028,-0.002635,0.130906,0.198717,-0.971275
1760108357.478646,-0.094523,0.073586,-0.078100,0.989723,0.007344,0.008225,-0.016879,0.002251,-0.001231,-0.003387,0.130894,0.198598,-0.971301
1760108357.507396,-0.094495,0.073623,-0.078219,0.989713,0.005984,0.001098,-0.015618,0.000144,0.000080,-0.000803,0.130949,0.198564,-0.971300
1760108357.509518,-0.094431,0.073540,-0.078470,0.989705,0.001799,-0.019214,-0.012941,-0.000557,0.004908,0.001550,0.130746,0.198460,-0.971349
1760108357.544563,-0.094438,0.073441,-0.078467,0.989712,-0.003755,-0.011977,0.001224,0.000297,0.003640,-0.003102,0.130550,0.198458,-0.971376
1760108357.579887,-0.094492,0.073421,-0.078261,0.989725,-0.002011,0.011349,0.020383,0.003690,0.000849,-0.008240,0.130543,0.198534,-0.971361
1760108357.580138,-0.094494,0.073573,-0.078134,0.989724,-0.003604,0.019904,0.023997,0.001264,-0.000132,-0.003421,0.130867,0.198543,-0.971316
1760108357.607645,-0.094629,0.073938,-0.077744,0.989714,-0.010287,0.013750,0.019987,-0.002359,0.000131,0.001240,0.131642,0.198807,-0.971157
1760108357.637441,-0.094655,0.073976,-0.077684,0.989714,-0.007088,0.009694,0.010564,-0.000776,0.000456,0.000252,0.131724,0.198855,-0.971136
1760108357.637954,-0.094681,0.074014,-0.077624,0.989713,-0.003888,0.005637,0.001140,0.000807,0.000782,-0.000736,0.131806,0.198904,-0.971115
1760108357.669484,-0.094695,0.074058,-0.077644,0.989707,0.001869,0.002294,-0.004276,-0.001797,0.000382,0.001563,0.131887,0.198942,-0.971096
1760108357.669901,-0.094669,0.074072,-0.077709,0.989703,0.007168,0.000530,-0.007012,-0.003740,0.000553,0.005347,0.131905,0.198900,-0.971102
1760108357.698838,-0.094587,0.073991,-0.077740,0.989715,0.014925,-0.007691,-0.003806,-0.002951,0.001675,0.002481,0.131754,0.198732,-0.971157
1760108357.732794,-0.094326,0.073766,-0.077761,0.989755,0.020698,-0.012405,0.006915,0.000883,0.004420,-0.001569,0.131351,0.198192,-0.971322
1760108357.733133,-0.094181,0.073739,-0.077676,0.989777,0.018026,-0.004526,0.012833,0.000701,0.002978,0.000875,0.131339,0.197893,-0.971385
1760108357.769984,-0.093783,0.073495,-0.077481,0.989848,0.024569,-0.005323,0.004101,0.004022,-0.000621,-0.006951,0.130964,0.197051,-0.971606
1760108357.795368,-0.093585,0.073580,-0.077476,0.989861,0.025771,0.008746,0.000747,0.001036,-0.001059,-0.001934,0.131167,0.196674,-0.971655
1760108357.797161,-0.093375,0.073709,-0.077454,0.989873,0.016460,0.022096,0.008359,0.000649,0.001228,-0.001365,0.131460,0.196277,-0.971696
1760108357.826600,-0.093215,0.073824,-0.077448,0.989880,0.020778,0.004777,-0.002598,-0.001761,-0.000861,0.002555,0.131716,0.195979,-0.971722
1760108357.857092,-0.092956,0.073880,-0.077466,0.989899,0.020604,0.006226,0.001449,0.002793,0.001250,-0.001726,0.131865,0.195480,-0.971802
1760108357.888351,-0.092746,0.074008,-0.077445,0.989911,0.019377,0.016823,0.004933,0.001447,0.000248,-0.001889,0.132158,0.195083,-0.971842
1760108357.919521,-0.092492,0.074087,-0.077444,0.989929,0.020680,0.009825,0.001977,0.000827,0.000089,-0.001625,0.132356,0.194595,-0.971913
1760108357.921635,-0.092268,0.074157,-0.077470,0.989942,0.018098,0.008870,-0.000123,0.001654,0.000361,-0.001337,0.132526,0.194169,-0.971975
1760108357.952608,-0.092084,0.074216,-0.077517,0.989951,0.014953,0.007555,-0.004225,0.002010,0.000151,-0.001536,0.132664,0.193824,-0.972025
1760108357.957347,-0.091933,0.074273,-0.077565,0.989957,0.012046,0.007343,-0.003681,0.002139,0.000427,-0.000605,0.132792,0.193541,-0.972064
1760108357.986240,-0.091786,0.074325,-0.077624,0.989962,0.014610,0.006634,-0.003470,0.002443,-0.000250,-0.000065,0.132908,0.193267,-0.972102
1760108358.016942,-0.091622,0.074392,-0.077689,0.989967,0.018749,0.004593,-0.004957,0.001970,-0.000745,0.000468,0.133055,0.192965,-0.972142
1760108358.019025,-0.091419,0.074419,-0.077769,0.989978,0.022052,0.003900,-0.006226,0.001899,-0.000677,0.000389,0.133127,0.192580,-0.972209
1760108358.049543,-0.091188,0.074416,-0.077846,0.989993,0.023307,0.000735,-0.003943,0.001507,-0.000524,-0.000418,0.133145,0.192137,-0.972294
1760108358.079232,-0.090956,0.074401,-0.077910,0.990011,0.025337,-0.002777,-0.002500,0.000744,-0.000258,-0.000206,0.133143,0.191687,-0.972383
1760108358.080939,-0.090700,0.074350,-0.077940,0.990036,0.024989,-0.004065,0.000821,0.001564,-0.000157,-0.000980,0.133080,0.191182,-0.972491
1760108358.110161,-0.090446,0.074314,-0.077943,0.990062,0.025630,-0.005710,0.001925,0.001525,-0.001436,-0.001364,0.133052,0.190678,-0.972594
1760108358.117780,-0.090192,0.074287,-0.077932,0.990088,0.023717,-0.003558,0.002691,0.001971,-0.002223,-0.001474,0.133043,0.190175,-0.972694
1760108358.148174,-0.089946,0.074242,-0.077924,0.990114,0.021942,-0.002958,0.000827,0.001667,-0.002805,-0.001955,0.132999,0.189683,-0.972796
1760108358.178251,-0.089732,0.074231,-0.077956,0.990132,0.016252,0.001171,-0.001734,0.001274,-0.002268,-0.002270,0.133007,0.189267,-0.972876
1760108358.178592,-0.089585,0.074236,-0.077995,0.990142,0.010527,-0.001767,-0.001766,0.000120,-0.002799,-0.001462,0.133034,0.188984,-0.972927
1760108358.207102,-0.089494,0.074180,-0.078043,0.990150,0.004747,-0.011137,-0.006130,-0.001780,-0.001501,0.000439,0.132930,0.188804,-0.972976
1760108358.236283,-0.089473,0.074053,-0.078072,0.990159,-0.002491,-0.009794,-0.002084,-0.000218,-0.000202,-0.002575,0.132678,0.188747,-0.973022
1760108358.237493,-0.089528,0.074032,-0.078013,0.990161,-0.011113,0.005224,0.007712,0.000528,-0.001049,-0.006843,0.132638,0.188845,-0.973008
1760108358.272575,-0.089636,0.074159,-0.077904,0.990150,-0.016518,0.015943,0.013580,-0.000856,-0.001258,-0.004544,0.132891,0.189060,-0.972932
1760108358.276776,-0.089790,0.074348,-0.077719,0.990136,-0.022146,0.019178,0.017519,-0.002412,-0.000693,-0.003231,0.133272,0.189366,-0.972820
1760108358.305024,-0.089995,0.074515,-0.077532,0.990120,-0.024510,0.012401,0.013439,-0.001953,-0.002322,-0.000871,0.133603,0.189766,-0.972697
1760108358.337623,-0.090210,0.074617,-0.077435,0.990100,-0.025074,0.010417,0.004276,-0.000486,-0.002029,-0.001747,0.133786,0.190190,-0.972589
1760108358.337901,-0.090422,0.074733,-0.077423,0.990073,-0.024624,0.012970,-0.003845,-0.000077,-0.003289,0.000014,0.133980,0.190622,-0.972478
1760108358.367099,-0.090616,0.074827,-0.077483,0.990044,-0.015319,0.008922,-0.008292,-0.001097,-0.003870,0.001763,0.134121,0.191023,-0.972380
1760108358.396326,-0.090704,0.074859,-0.077612,0.990023,-0.006456,0.001752,-0.014579,-0.000530,-0.001870,0.000852,0.134145,0.191219,-0.972338
1760108358.398392,-0.090734,0.074851,-0.077765,0.990009,-0.005624,0.006211,-0.013479,0.001082,0.001669,-0.002408,0.134094,0.191297,-0.972329
1760108358.427574,-0.090793,0.074923,-0.077869,0.989990,-0.009956,0.006167,-0.008490,0.000639,0.001518,-0.000453,0.134207,0.191436,-0.972286
1760108358.458283,-0.090891,0.075028,-0.077957,0.989966,-0.014063,0.006065,-0.007115,-0.000245,0.000157,0.001904,0.134379,0.191655,-0.972219
1760108358.459574,-0.090980,0.075047,-0.078056,0.989948,-0.012523,0.010144,-0.012659,0.003187,-0.000643,-0.003993,0.134383,0.191848,-0.972181
1760108358.494456,-0.091100,0.075161,-0.078204,0.989917,-0.011839,0.009851,-0.013040,0.002033,0.000661,-0.002978,0.134558,0.192118,-0.972103
1760108358.496599,-0.091243,0.075307,-0.078333,0.989883,-0.014391,0.015219,-0.011025,0.001093,0.001034,-0.000716,0.134796,0.192437,-0.972007
1760108358.525038,-0.091344,0.075405,-0.078464,0.989855,-0.005414,0.004522,-0.012937,0.000017,-0.000477,0.000723,0.134946,0.192668,-0.971941
1760108358.556086,-0.091364,0.075407,-0.078599,0.989843,-0.000715,-0.001498,-0.011556,0.000992,0.000586,-0.000640,0.134920,0.192726,-0.971933
1760108358.557321,-0.091337,0.075397,-0.078696,0.989838,0.000335,0.000584,-0.006937,0.001219,0.002695,0.000054,0.134887,0.192685,-0.971945
1760108358.589847,-0.091302,0.075393,-0.078713,0.989840,0.002813,-0.000610,-0.001388,0.000809,0.001970,0.000027,0.134881,0.192618,-0.971960
1760108358.620811,-0.091251,0.075387,-0.078703,0.989846,0.004335,-0.000528,0.000545,0.001993,0.000782,-0.000099,0.134880,0.192516,-0.971980
1760108358.621144,-0.091196,0.075399,-0.078710,0.989850,0.006297,0.001396,-0.002110,0.002447,0.000253,0.000556,0.134911,0.192410,-0.971997
1760108358.648874,-0.091140,0.075404,-0.078757,0.989851,0.006369,0.001836,-0.005688,0.002462,0.000452,-0.000288,0.134923,0.192307,-0.972015
1760108358.662959,-0.091100,0.075429,-0.078842,0.989846,0.005765,-0.002343,-0.005794,0.002189,0.000255,0.000387,0.134960,0.192243,-0.972023
1760108358.698594,-0.091070,0.075422,-0.078923,0.989843,0.001240,-0.000608,-0.005943,0.001999,-0.000201,0.000347,0.134938,0.192195,-0.972035
1760108358.699415,-0.091060,0.075391,-0.079022,0.989838,0.003101,-0.004962,-0.007355,0.001287,-0.001365,0.002126,0.134859,0.192185,-0.972048
1760108358.729602,-0.091032,0.075324,-0.079120,0.989838,0.003279,-0.009863,-0.009468,0.001150,-0.000441,0.001445,0.134712,0.192133,-0.972079
1760108358.736485,-0.091020,0.075200,-0.079225,0.989840,0.003732,-0.020006,-0.008537,0.000672,0.001287,0.002847,0.134449,0.192106,-0.972121
1760108358.766484,-0.091025,0.075002,-0.079290,0.989850,-0.000418,-0.020250,-0.006029,0.000174,0.001425,0.000534,0.134047,0.192096,-0.972178
1760108358.796948,-0.091068,0.074803,-0.079295,0.989860,-0.003622,-0.022269,-0.001235,-0.000778,0.000957,-0.000638,0.133646,0.192152,-0.972222
1760108358.797252,-0.091129,0.074601,-0.079270,0.989872,-0.005979,-0.022162,0.001579,-0.000850,0.000611,-0.000381,0.133244,0.192240,-0.972260
1760108358.831804,-0.091232,0.074418,-0.079220,0.989880,-0.009288,-0.018286,0.003851,-0.000631,-0.000409,-0.000180,0.132875,0.192408,-0.972278
1760108358.835592,-0.091346,0.074231,-0.079148,0.989890,-0.009728,-0.020703,0.003072,-0.000639,-0.000851,0.000639,0.132502,0.192595,-0.972291
1760108358.863726,-0.091487,0.074043,-0.079095,0.989895,-0.012896,-0.017750,0.002047,0.000035,-0.000507,-0.001877,0.132118,0.192839,-0.972295
1760108358.897285,-0.091644,0.073919,-0.079052,0.989893,-0.017002,-0.011612,0.000182,-0.001445,0.000251,-0.001126,0.131854,0.193123,-0.972275
1760108358.897575,-0.091834,0.073785,-0.079023,0.989888,-0.020055,-0.016126,-0.001988,-0.002625,0.000768,-0.000857,0.131564,0.193473,-0.972244
1760108358.925539,-0.092051,0.073586,-0.078987,0.989885,-0.021376,-0.022941,0.000238,-0.002688,0.000847,-0.000649,0.131141,0.193864,-0.972224
1760108358.955863,-0.092266,0.073431,-0.078929,0.989881,-0.020448,-0.019632,0.004930,-0.000854,0.000653,-0.002124,0.130811,0.194257,-0.972190
1760108358.957240,-0.092454,0.073351,-0.078824,0.989878,-0.020767,0.003987,0.008895,0.001509,0.000846,-0.007838,0.130642,0.194599,-0.972144
1760108358.987184,-0.092646,0.073472,-0.078690,0.989862,-0.017461,0.012258,0.011405,-0.000598,0.001217,-0.004251,0.130873,0.194976,-0.972037
1760108359.016353,-0.092819,0.073639,-0.078542,0.989845,-0.019219,0.016416,0.012801,-0.001576,0.001388,-0.002585,0.131202,0.195320,-0.971924
1760108359.018352,-0.092973,0.073763,-0.078460,0.989828,-0.013803,0.009232,0.005083,-0.000780,0.001049,-0.000095,0.131436,0.195629,-0.971830
1760108359.050856,-0.093073,0.073846,-0.078431,0.989814,-0.009327,0.005249,0.001844,-0.000002,0.001931,0.000692,0.131588,0.195833,-0.971769
1760108359.055717,-0.093133,0.073920,-0.078408,0.989805,-0.003338,0.006803,0.003795,-0.000637,-0.000077,0.002155,0.131728,0.195958,-0.971724
1760108359.088187,-0.093098,0.073911,-0.078400,0.989810,0.010063,-0.002310,0.002289,-0.000991,-0.001376,0.002462,0.131718,0.195889,-0.971740
1760108359.118539,-0.092952,0.073842,-0.078392,0.989829,0.021427,-0.006671,0.003912,-0.000455,-0.000632,0.001131,0.131609,0.195591,-0.971814
1760108359.118782,-0.092740,0.073757,-0.078364,0.989858,0.021458,-0.002221,0.008080,0.001128,0.002025,-0.002797,0.131482,0.195158,-0.971919
1760108359.146454,-0.092567,0.073739,-0.078251,0.989884,0.017863,-0.002133,0.014086,-0.000504,0.000084,-0.000259,0.131499,0.194801,-0.971988
1760108359.177168,-0.092405,0.073694,-0.078119,0.989913,0.014253,-0.006174,0.013709,-0.001127,-0.003215,-0.001232,0.131465,0.194460,-0.972061
1760108359.178330,-0.092209,0.073641,-0.077981,0.989946,0.019359,0.000796,0.011094,0.002500,-0.007607,-0.007013,0.131420,0.194049,-0.972149
1760108359.210701,-0.091998,0.073709,-0.077897,0.989967,0.019636,0.012587,0.012196,0.001226,-0.007850,-0.005630,0.131605,0.193633,-0.972207
1760108359.216565,-0.091792,0.073882,-0.077795,0.989982,0.019307,0.018119,0.015670,-0.001636,-0.009584,-0.001457,0.132002,0.193240,-0.972231
1760108359.245574,-0.091533,0.074038,-0.077699,0.990002,0.021676,0.011868,0.011975,-0.002152,-0.010240,-0.000585,0.132372,0.192741,-0.972280
1760108359.273637,-0.091274,0.074161,-0.077580,0.990026,0.015700,0.015342,0.017298,-0.001835,-0.011118,-0.001220,0.132680,0.192235,-0.972338
1760108359.274938,-0.091043,0.074308,-0.077430,0.990048,0.013545,0.015944,0.014497,-0.003409,-0.013333,-0.001682,0.133038,0.191780,-0.972379
1760108359.305931,-0.090838,0.074456,-0.077286,0.990067,0.008626,0.015935,0.015700,-0.003891,-0.016410,-0.000604,0.133391,0.191380,-0.972410
1760108359.335367,-0.090673,0.074644,-0.077123,0.990080,0.006454,0.024688,0.019651,-0.003834,-0.023086,0.001341,0.133821,0.191060,-0.972414
1760108359.337071,-0.090470,0.074898,-0.076934,0.990094,0.015698,0.028432,0.021483,-0.005494,-0.035940,0.006293,0.134391,0.190673,-0.972411
1760108359.366335,-0.090039,0.075168,-0.076823,0.990122,0.049418,0.029887,0.009939,-0.005598,-0.050766,0.010617,0.135016,0.189847,-0.972486
1760108359.397055,-0.089203,0.075364,-0.076891,0.990177,0.094222,0.035914,-0.010240,-0.003779,-0.058466,0.006359,0.135529,0.188243,-0.972726
1760108359.399071,-0.087966,0.075626,-0.077176,0.990246,0.127257,0.042370,-0.026788,-0.002585,-0.057643,0.003902,0.136199,0.185888,-0.973085
1760108359.428189,-0.086460,0.075990,-0.077643,0.990314,0.137672,0.065234,-0.036674,-0.000665,-0.051302,-0.000376,0.137082,0.183045,-0.973500
1760108359.458285,-0.084841,0.076490,-0.078173,0.990374,0.129797,0.076459,-0.039991,-0.000037,-0.046365,-0.003594,0.138242,0.180007,-0.973903
1760108359.460459,-0.083339,0.077135,-0.078723,0.990408,0.104595,0.085495,-0.041908,0.001358,-0.040091,-0.007003,0.139669,0.177224,-0.974210
1760108359.495677,-0.082081,0.077871,-0.079250,0.990413,0.076247,0.093611,-0.036288,0.003830,-0.038306,-0.007806,0.141239,0.174932,-0.974397
1760108359.497720,-0.081085,0.078700,-0.079650,0.990398,0.056576,0.095522,-0.023127,0.006962,-0.038187,-0.007820,0.142972,0.173149,-0.974463
1760108359.526318,-0.080266,0.079548,-0.079989,0.990369,0.042005,0.100743,-0.022256,0.009203,-0.035988,-0.008581,0.144723,0.171711,-0.974459
1760108359.556950,-0.079646,0.080435,-0.080315,0.990321,0.023040,0.099941,-0.022851,0.011396,-0.031767,-0.006174,0.146519,0.170671,-0.974373
1760108359.558449,-0.079275,0.081380,-0.080615,0.990249,-0.001786,0.095324,-0.023862,0.012666,-0.028374,-0.000459,0.148392,0.170126,-0.974185
1760108359.588633,-0.079144,0.082253,-0.080903,0.990164,-0.028027,0.086174,-0.023953,0.015512,-0.024785,-0.000410,0.150082,0.170041,-0.973941
1760108359.622061,-0.079268,0.083106,-0.081121,0.990065,-0.053644,0.081094,-0.019058,0.017728,-0.021885,-0.003433,0.151700,0.170445,-0.973620
1760108359.624082,-0.079672,0.084018,-0.081266,0.989944,-0.080801,0.084935,-0.007891,0.014976,-0.017328,-0.000419,0.153396,0.171397,-0.973187
1760108359.663498,-0.080291,0.084922,-0.081242,0.989819,-0.097655,0.069486,0.005763,0.009537,-0.013507,0.005266,0.155069,0.172746,-0.972683
1760108359.664523,-0.081135,0.085679,-0.081053,0.989700,-0.124109,0.055137,0.019433,0.008561,-0.010253,0.005948,0.156441,0.174487,-0.972153
1760108359.698182,-0.082234,0.086381,-0.080650,0.989581,-0.146966,0.042744,0.038167,0.008070,-0.011259,0.008718,0.157699,0.176688,-0.971552
1760108359.698699,-0.083545,0.087062,-0.080081,0.989458,-0.162749,0.049047,0.048068,0.010619,-0.012617,0.005683,0.158908,0.179273,-0.970881
1760108359.728812,-0.084946,0.087773,-0.079464,0.989326,-0.167451,0.046973,0.050623,0.007570,-0.007319,0.009329,0.160172,0.182028,-0.970160
1760108359.760310,-0.086459,0.088409,-0.078807,0.989191,-0.181554,0.039407,0.054169,0.001025,-0.001629,0.017057,0.161279,0.184984,-0.969417
1760108359.760536,-0.088115,0.088905,-0.078113,0.989055,-0.192425,0.008906,0.050820,-0.005802,0.003403,0.027990,0.162099,0.188191,-0.968663
1760108359.789013,-0.089933,0.089062,-0.077419,0.988932,-0.209841,-0.018272,0.048107,-0.005483,0.007792,0.031570,0.162228,0.191665,-0.967960
1760108359.796564,-0.091956,0.089019,-0.076760,0.988801,-0.220558,-0.043054,0.039961,-0.004317,0.006472,0.034636,0.161926,0.195518,-0.967240
1760108359.816903,-0.094089,0.088701,-0.076176,0.988674,-0.217716,-0.058780,0.024335,-0.001488,0.003487,0.024545,0.161059,0.199560,-0.966559
1760108359.846872,-0.096190,0.088252,-0.075783,0.988542,-0.202882,-0.062679,0.006000,0.001051,0.007965,0.013332,0.159902,0.203552,-0.965918
1760108359.875840,-0.098231,0.087848,-0.075559,0.988395,-0.201240,-0.048693,-0.005837,0.002384,0.015207,0.007057,0.158813,0.207458,-0.965267
1760108359.876030,-0.100299,0.087571,-0.075420,0.988222,-0.208143,-0.044257,-0.011242,-0.001922,0.019959,0.008296,0.157950,0.211446,-0.964543
1760108359.907954,-0.102439,0.087241,-0.075301,0.988041,-0.210306,-0.064262,-0.012359,-0.003849,0.021619,0.008442,0.156967,0.215566,-0.963791
1760108359.940959,-0.104580,0.086788,-0.075223,0.987862,-0.212684,-0.059838,-0.020921,0.002030,0.023446,-0.004142,0.155735,0.219678,-0.963062
1760108359.943077,-0.106767,0.086438,-0.075223,0.987659,-0.217535,-0.044974,-0.025820,0.002458,0.025757,-0.008319,0.154679,0.223904,-0.962259
1760108359.972457,-0.109060,0.086202,-0.075221,0.987429,-0.225774,-0.039920,-0.022367,-0.000816,0.028725,-0.003500,0.153830,0.228347,-0.961350
1760108359.974510,-0.111423,0.085900,-0.075225,0.987192,-0.226211,-0.049670,-0.027070,-0.004766,0.032096,0.000068,0.152836,0.232916,-0.960412
1760108360.007010,-0.113780,0.085514,-0.075244,0.986955,-0.228762,-0.058904,-0.025152,-0.005958,0.039659,0.000147,0.151674,0.237460,-0.959483
1760108360.036167,-0.116196,0.085100,-0.075145,0.986717,-0.239578,-0.061281,-0.006541,-0.005421,0.045039,0.001847,0.150476,0.242094,-0.958513
1760108360.036501,-0.118732,0.084715,-0.074825,0.986472,-0.252987,-0.057677,0.012691,-0.005443,0.044455,0.005501,0.149369,0.246929,-0.957452
1760108360.065115,-0.121371,0.084365,-0.074333,0.986218,-0.261169,-0.055327,0.030110,-0.004413,0.040072,0.007008,0.148361,0.251938,-0.956303
1760108360.104952,-0.124117,0.084084,-0.073801,0.985940,-0.257408,-0.046508,0.020378,-0.002197,0.037450,0.004461,0.147483,0.257154,-0.955050
1760108360.105216,-0.126862,0.083801,-0.073268,0.985655,-0.253647,-0.037688,0.010646,0.000015,0.034835,0.001885,0.146609,0.262364,-0.953767
1760108360.136897,-0.129582,0.083590,-0.072920,0.985345,-0.254239,-0.032393,-0.006051,0.002549,0.032783,-0.003375,0.145831,0.267556,-0.952443
1760108360.137173,-0.132271,0.083448,-0.072834,0.985006,-0.251567,-0.024351,-0.025924,0.003421,0.033683,-0.008142,0.145125,0.272731,-0.951082
1760108360.165080,-0.134876,0.083393,-0.072945,0.984649,-0.242196,-0.016934,-0.046224,0.002916,0.037746,-0.012086,0.144549,0.277777,-0.949708
1760108360.172753,-0.137395,0.083328,-0.073253,0.984283,-0.235434,-0.016474,-0.062301,0.003333,0.046457,-0.014397,0.143908,0.282680,-0.948358
1760108360.203651,-0.139878,0.083318,-0.073704,0.983900,-0.237628,-0.010352,-0.070889,0.003760,0.054256,-0.012259,0.143333,0.287534,-0.946985
1760108360.234399,-0.142373,0.083331,-0.074193,0.983505,-0.240859,-0.008742,-0.069859,-0.000889,0.057398,-0.004736,0.142786,0.292414,-0.945572
1760108360.236440,-0.144827,0.083274,-0.074606,0.983120,-0.228190,-0.018736,-0.057727,-0.001310,0.056491,-0.000450,0.142126,0.297189,-0.944182
1760108360.275794,-0.147138,0.083133,-0.074914,0.982765,-0.206054,-0.025099,-0.048354,-0.002577,0.052635,0.000921,0.141355,0.301660,-0.942879
1760108360.277143,-0.149256,0.082956,-0.075149,0.982443,-0.185611,-0.028079,-0.039437,-0.003042,0.048451,0.003270,0.140567,0.305739,-0.941682
1760108360.307090,-0.151253,0.082776,-0.075301,0.982141,-0.176457,-0.028696,-0.031558,-0.002906,0.042328,0.004508,0.139817,0.309570,-0.940541
1760108360.311784,-0.153228,0.082598,-0.075394,0.981842,-0.173206,-0.023635,-0.022060,-0.005619,0.035146,0.008537,0.139091,0.313347,-0.939398
1760108360.340277,-0.155084,0.082418,-0.075469,0.981560,-0.151033,-0.032796,-0.025136,-0.004415,0.029279,0.005324,0.138388,0.316888,-0.938313
1760108360.373614,-0.156730,0.082218,-0.075566,0.981308,-0.128031,-0.019670,-0.024277,-0.006072,0.025010,0.002114,0.137675,0.320026,-0.937352
1760108360.373895,-0.158112,0.082117,-0.075704,0.981084,-0.102756,-0.016139,-0.026370,-0.008677,0.022174,0.006357,0.137187,0.322675,-0.936515
1760108360.401694,-0.159271,0.081951,-0.075862,0.980898,-0.089652,-0.020808,-0.026492,-0.009042,0.022081,0.006069,0.136606,0.324891,-0.935834
1760108360.431143,-0.160276,0.081672,-0.076003,0.980747,-0.078082,-0.032576,-0.024261,-0.006240,0.024531,-0.002862,0.135837,0.326795,-0.935283
1760108360.433159,-0.161277,0.081464,-0.076094,0.980593,-0.091365,-0.015781,-0.013876,-0.004570,0.026655,-0.011045,0.135222,0.328692,-0.934707
1760108360.465821,-0.162402,0.081395,-0.076024,0.980419,-0.110238,-0.001893,0.010419,-0.004118,0.025854,-0.012649,0.134910,0.330819,-0.934001
1760108360.472770,-0.163581,0.081499,-0.075709,0.980239,-0.103369,-0.000265,0.036871,-0.007238,0.020976,-0.006482,0.135008,0.333036,-0.933199
1760108360.502730,-0.164457,0.081539,-0.075289,0.980121,-0.053718,-0.008267,0.033447,-0.007220,0.015968,-0.002808,0.135072,0.334653,-0.932611
1760108360.532668,-0.164815,0.081469,-0.074942,0.980093,-0.001242,-0.012735,0.029578,-0.005127,0.013692,-0.003089,0.134992,0.335279,-0.932397
1760108360.533005,-0.164740,0.081389,-0.074692,0.980132,0.033163,-0.007617,0.022173,-0.004046,0.013130,-0.000248,0.134934,0.335091,-0.932473
1760108360.561284,-0.164403,0.081303,-0.074519,0.980208,0.049046,-0.005388,0.022033,-0.003782,0.010775,0.001393,0.134887,0.334416,-0.932723
1760108360.592238,-0.163930,0.081191,-0.074365,0.980309,0.060332,-0.011385,0.016348,-0.001658,0.006096,0.001284,0.134803,0.333479,-0.933070
1760108360.594244,-0.163397,0.081024,-0.074277,0.980418,0.061098,-0.009902,0.014153,-0.000167,0.002697,0.001837,0.134602,0.332432,-0.933473
1760108360.625537,-0.162888,0.080798,-0.074153,0.980531,0.066147,-0.024066,0.015586,-0.001167,-0.000761,0.003605,0.134293,0.331416,-0.933878
1760108360.660735,-0.162351,0.080479,-0.074019,0.980656,0.062139,-0.021431,0.012718,0.002762,-0.002183,-0.000822,0.133810,0.330334,-0.934331
1760108360.661075,-0.161814,0.080159,-0.073884,0.980781,0.058132,-0.018796,0.009850,0.006692,-0.003605,-0.005251,0.133326,0.329252,-0.934782
1760108360.690408,-0.161322,0.079967,-0.073768,0.980887,0.048256,-0.009703,0.013821,0.008051,-0.004544,-0.006591,0.133076,0.328276,-0.935161
1760108360.692224,-0.160917,0.079921,-0.073625,0.980968,0.043502,-0.005825,0.013545,0.004407,-0.007942,-0.003367,0.133104,0.327478,-0.935436
1760108360.722115,-0.160438,0.079812,-0.073577,0.981059,0.050404,-0.008983,0.004816,0.005320,-0.007847,-0.005634,0.132992,0.326543,-0.935779
1760108360.754603,-0.159921,0.079757,-0.073523,0.981152,0.050215,-0.004833,0.006632,0.007024,-0.008704,-0.004996,0.132992,0.325541,-0.936128
1760108360.754919,-0.159377,0.079740,-0.073514,0.981242,0.055245,0.000426,-0.000581,0.006543,-0.009989,-0.003596,0.133055,0.324500,-0.936481
1760108360.787276,-0.158781,0.079729,-0.073561,0.981336,0.057607,0.003241,-0.004233,0.005087,-0.008292,-0.002499,0.133121,0.323365,-0.936864
1760108360.789658,-0.158180,0.079759,-0.073617,0.981427,0.053871,0.004107,-0.001230,0.005567,-0.008424,-0.002298,0.133266,0.322227,-0.937235
1760108360.819172,-0.157614,0.079823,-0.073666,0.981509,0.046750,0.003658,0.001679,0.004576,-0.007638,-0.001158,0.133473,0.321159,-0.937572
1760108360.834289,-0.157104,0.079872,-0.073672,0.981586,0.038895,0.000715,0.004738,0.004810,-0.007984,-0.001874,0.133653,0.320190,-0.937878
1760108360.864145,-0.156718,0.079917,-0.073611,0.981649,0.023780,0.000912,0.011736,0.004046,-0.006939,-0.002342,0.133829,0.319450,-0.938105
1760108360.893786,-0.156499,0.079968,-0.073460,0.981691,0.008541,0.003229,0.013746,0.002158,-0.007347,-0.002297,0.134015,0.319015,-0.938227
1760108360.894095,-0.156400,0.080009,-0.073320,0.981714,0.000491,-0.004117,0.011149,0.000410,-0.007615,-0.000276,0.134157,0.318813,-0.938275
1760108360.925435,-0.156412,0.079971,-0.073238,0.981721,-0.008414,-0.009467,0.001634,-0.000309,-0.007697,-0.002954,0.134107,0.318820,-0.938280
1760108360.955581,-0.156487,0.079910,-0.073238,0.981714,-0.013956,-0.009922,-0.001570,-0.001221,-0.004378,-0.001230,0.133975,0.318956,-0.938253
1760108360.955908,-0.156604,0.079850,-0.073198,0.981703,-0.017191,-0.007933,0.000378,-0.001572,-0.003104,-0.000569,0.133852,0.319167,-0.938199
1760108360.983767,-0.156739,0.079774,-0.073177,0.981689,-0.014304,-0.009451,0.002737,-0.000529,-0.000758,0.000205,0.133688,0.319413,-0.938138
1760108360.991558,-0.156838,0.079708,-0.073106,0.981684,-0.015936,-0.012730,0.006819,-0.000697,0.000328,0.000405,0.133564,0.319585,-0.938097
1760108361.021567,-0.156963,0.079609,-0.073037,0.981677,-0.017606,-0.004589,0.002538,0.000100,0.001813,-0.002479,0.133372,0.319803,-0.938050
1760108361.053219,-0.157144,0.079580,-0.072934,0.981659,-0.021646,-0.004890,0.006642,-0.003098,0.000372,0.001639,0.133319,0.320131,-0.937946
1760108361.055327,-0.157352,0.079516,-0.072827,0.981638,-0.021258,-0.005638,0.003301,-0.002022,-0.000034,0.005285,0.133192,0.320508,-0.937835
1760108361.084087,-0.157543,0.079432,-0.072745,0.981621,-0.013030,-0.015878,0.003775,-0.001936,-0.000984,0.003167,0.133023,0.320850,-0.937742
1760108361.091607,-0.157666,0.079292,-0.072720,0.981614,-0.008578,-0.012001,-0.004086,0.001065,0.001314,-0.006042,0.132737,0.321066,-0.937708
1760108361.122074,-0.157809,0.079244,-0.072743,0.981593,-0.016794,0.000944,-0.003013,0.000905,0.007616,-0.010414,0.132612,0.321337,-0.937634
1760108361.151213,-0.158071,0.079300,-0.072711,0.981549,-0.036288,0.007621,0.005291,-0.000719,0.012324,-0.009784,0.132688,0.321842,-0.937450
1760108361.151509,-0.158432,0.079379,-0.072630,0.981490,-0.039520,0.001464,0.005947,-0.004729,0.012020,-0.005142,0.132805,0.322529,-0.937197
1760108361.180470,-0.158767,0.079378,-0.072579,0.981440,-0.030416,-0.001522,-0.001856,-0.003692,0.012892,-0.004826,0.132764,0.323163,-0.936984
1760108361.209973,-0.159002,0.079348,-0.072579,0.981404,-0.011592,-0.004118,-0.005839,-0.002931,0.010339,-0.000987,0.132664,0.323609,-0.936845
1760108361.219082,-0.159046,0.079274,-0.072652,0.981398,0.009029,-0.002284,-0.012417,-0.002107,0.007832,0.001922,0.132488,0.323694,-0.936840
1760108361.248587,-0.158930,0.079221,-0.072793,0.981411,0.025657,0.001827,-0.014528,-0.000203,0.006368,0.004155,0.132358,0.323484,-0.936931
1760108361.248901,-0.158680,0.079161,-0.073024,0.981439,0.039360,0.005428,-0.016904,0.000898,0.005698,0.002395,0.132209,0.323030,-0.937109
1760108361.278376,-0.158375,0.079200,-0.073278,0.981466,0.040641,0.018152,-0.019813,0.000353,0.003922,0.004333,0.132254,0.322486,-0.937289
1760108361.310907,-0.158002,0.079285,-0.073544,0.981499,0.042033,0.016987,-0.022223,-0.001850,0.000248,0.003115,0.132395,0.321820,-0.937498
1760108361.311190,-0.157654,0.079322,-0.073847,0.981530,0.045738,0.013646,-0.024247,0.003993,-0.001002,-0.001200,0.132429,0.321199,-0.937707
1760108361.339030,-0.157337,0.079518,-0.074193,0.981538,0.033343,0.032757,-0.029003,0.005440,-0.003081,-0.001913,0.132754,0.320664,-0.937844
1760108361.387195,-0.157203,0.079829,-0.074523,0.981510,0.019382,0.032808,-0.025035,0.003455,-0.001076,-0.000370,0.133275,0.320491,-0.937829
1760108361.387483,-0.157069,0.080139,-0.074854,0.981481,0.005421,0.032860,-0.021066,0.001469,0.000929,0.001172,0.133796,0.320318,-0.937814
1760108361.388278,-0.157092,0.080434,-0.075101,0.981434,-0.007915,0.030991,-0.021697,0.002940,-0.000004,0.001257,0.134286,0.320432,-0.937705
1760108361.417388,-0.157185,0.080744,-0.075269,0.981381,-0.017999,0.026460,-0.006426,0.003618,0.000540,0.002162,0.134818,0.320671,-0.937547
1760108361.448178,-0.157333,0.081064,-0.075382,0.981322,-0.017493,0.032786,-0.009646,0.003643,-0.000589,0.001175,0.135379,0.321009,-0.937350
1760108361.450391,-0.157426,0.081411,-0.075541,0.981266,-0.012200,0.034290,-0.010879,0.001915,0.001450,0.004024,0.135988,0.321254,-0.937178
1760108361.478807,-0.157524,0.081745,-0.075716,0.981209,-0.010618,0.031199,-0.016585,0.000011,0.000736,0.005820,0.136565,0.321507,-0.937008
1760108361.509592,-0.157590,0.081992,-0.075919,0.981162,-0.001728,0.017943,-0.020344,-0.000365,0.001790,0.003291,0.136966,0.321693,-0.936885
1760108361.510955,-0.157582,0.082117,-0.076182,0.981132,0.004001,0.009544,-0.020207,0.000027,0.004810,0.000533,0.137126,0.321730,-0.936849
1760108361.540071,-0.157539,0.082213,-0.076354,0.981118,0.005250,0.008688,-0.011349,-0.000709,0.007591,-0.003830,0.137264,0.321684,-0.936845
1760108361.570671,-0.157467,0.082243,-0.076404,0.981123,0.011291,0.005564,0.000939,0.000484,0.008094,-0.006940,0.137319,0.321556,-0.936881
1760108361.572802,-0.157317,0.082328,-0.076354,0.981144,0.019054,0.008234,0.011398,0.000278,0.007064,-0.006716,0.137528,0.321273,-0.936947
1760108361.610984,-0.157097,0.082432,-0.076244,0.981179,0.026781,0.013177,0.017468,0.000863,0.003644,-0.004568,0.137805,0.320850,-0.937051
1760108361.612287,-0.156784,0.082595,-0.076156,0.981222,0.039129,0.015497,0.011957,0.000686,0.000673,-0.001054,0.138207,0.320261,-0.937193
1760108361.644113,-0.156365,0.082707,-0.076176,0.981278,0.049411,0.011497,-0.002483,-0.000119,-0.001067,-0.000813,0.138495,0.319475,-0.937419
1760108361.648169,-0.155876,0.082771,-0.076362,0.981336,0.052999,0.014857,-0.014153,0.000057,0.000549,-0.003050,0.138646,0.318575,-0.937703
1760108361.679459,-0.155380,0.082859,-0.076594,0.981389,0.052982,0.013593,-0.015551,-0.002955,0.002132,0.000216,0.138831,0.317669,-0.937983
1760108361.709382,-0.154886,0.082850,-0.076851,0.981448,0.052136,0.003917,-0.021197,-0.004950,0.004906,-0.000736,0.138820,0.316760,-0.938292
1760108361.709579,-0.154440,0.082817,-0.077077,0.981503,0.044353,0.004004,-0.012556,-0.003643,0.004726,-0.002994,0.138763,0.315934,-0.938579
1760108361.737894,-0.154026,0.082874,-0.077244,0.981551,0.039478,0.021012,-0.011674,0.000496,0.003439,-0.007738,0.138895,0.315171,-0.938816
1760108361.768359,-0.153670,0.083120,-0.077420,0.981571,0.033058,0.038972,-0.008104,0.002357,0.004763,-0.008472,0.139383,0.314547,-0.938953
1760108361.769726,-0.153434,0.083551,-0.077561,0.981561,0.014769,0.057205,-0.001661,-0.000150,0.003866,-0.004994,0.140219,0.314171,-0.938954
1760108361.799005,-0.153298,0.084048,-0.077701,0.981529,0.015357,0.046767,-0.007723,-0.002023,0.001489,0.002141,0.141169,0.313993,-0.938872
1760108361.831405,-0.153122,0.084408,-0.077914,0.981508,0.018483,0.033580,-0.013481,-0.000587,0.002871,0.004782,0.141833,0.313735,-0.938858
1760108361.832260,-0.152965,0.084656,-0.078060,0.981500,0.016426,0.024347,-0.006424,-0.000060,0.002362,0.007587,0.142300,0.313487,-0.938870
1760108361.863394,-0.152785,0.084829,-0.078143,0.981506,0.022777,0.015002,-0.000786,-0.000600,0.000499,0.009438,0.142643,0.313177,-0.938921
1760108361.868454,-0.152527,0.084881,-0.078179,0.981539,0.029126,0.005606,0.004861,0.000861,0.000288,0.009366,0.142779,0.312693,-0.939062
1760108361.896234,-0.152244,0.084900,-0.078134,0.981585,0.032103,-0.002680,0.008077,0.002479,0.000817,0.003904,0.142881,0.312149,-0.939227
1760108361.926647,-0.151972,0.084892,-0.078086,0.981631,0.024826,0.003117,0.009321,0.002640,0.002574,0.003331,0.142932,0.311620,-0.939395
1760108361.927395,-0.151763,0.084868,-0.077945,0.981677,0.020725,-0.007026,0.020350,0.001871,-0.000929,-0.000049,0.142967,0.311194,-0.939531
1760108361.958347,-0.151566,0.084806,-0.077797,0.981725,0.027352,-0.015983,0.015252,0.005089,-0.003254,-0.003389,0.142930,0.310788,-0.939671
1760108361.990241,-0.151344,0.084766,-0.077675,0.981772,0.023955,0.001430,0.012615,0.007805,-0.004572,-0.007030,0.142931,0.310340,-0.939819
1760108361.990548,-0.151096,0.084859,-0.077607,0.981807,0.021318,0.012587,0.006550,0.005676,-0.004977,-0.006825,0.143178,0.309866,-0.939938
1760108362.019585,-0.150903,0.085023,-0.077606,0.981823,0.019911,0.015477,-0.002072,0.003146,-0.005974,-0.001827,0.143532,0.309517,-0.939999
1760108362.054492,-0.150702,0.085167,-0.077733,0.981831,0.015499,0.016777,-0.014002,0.004454,-0.006037,0.000132,0.143811,0.309169,-0.940071
1760108362.056555,-0.150492,0.085315,-0.077928,0.981835,0.017880,0.014948,-0.020040,0.003831,-0.006689,0.001587,0.144076,0.308814,-0.940147
1760108362.085289,-0.150266,0.085443,-0.078198,0.981837,0.019530,0.016028,-0.023851,0.002365,-0.004514,0.001749,0.144281,0.308437,-0.940239
1760108362.087311,-0.150049,0.085527,-0.078477,0.981841,0.017857,0.010224,-0.024177,0.000547,-0.001882,0.001027,0.144396,0.308073,-0.940341
1760108362.116438,-0.149872,0.085553,-0.078703,0.981848,0.009786,0.000985,-0.019386,-0.001644,0.001482,-0.001474,0.144409,0.307770,-0.940438
1760108362.149634,-0.149835,0.085488,-0.078839,0.981848,-0.006487,-0.009306,-0.010079,-0.002161,0.004975,-0.002847,0.144247,0.307709,-0.940483
1760108362.149925,-0.149970,0.085421,-0.078835,0.981834,-0.022630,-0.006028,0.003275,0.000471,0.003190,-0.004616,0.144092,0.307959,-0.940425
1760108362.177518,-0.150235,0.085419,-0.078747,0.981800,-0.031986,-0.004575,0.007852,0.000215,0.000503,-0.002867,0.144067,0.308455,-0.940266
1760108362.208263,-0.150552,0.085410,-0.078642,0.981761,-0.030876,-0.002495,0.005095,-0.000164,-0.001250,-0.002308,0.144025,0.309045,-0.940079
1760108362.210405,-0.150855,0.085374,-0.078600,0.981721,-0.024667,-0.003779,-0.000521,-0.000168,-0.002348,0.000304,0.143912,0.309615,-0.939908
1760108362.238802,-0.151101,0.085370,-0.078647,0.981680,-0.017464,0.003044,-0.010476,0.002543,-0.004097,-0.000774,0.143844,0.310094,-0.939761
1760108362.278639,-0.151193,0.085409,-0.078822,0.981648,-0.008531,0.007136,-0.016448,0.002952,-0.004691,0.001584,0.143849,0.310300,-0.939692
1760108362.278938,-0.151284,0.085449,-0.078996,0.981617,0.000402,0.011228,-0.022420,0.003361,-0.005286,0.003942,0.143854,0.310506,-0.939623
1760108362.308209,-0.151262,0.085456,-0.079267,0.981598,0.008455,-0.000243,-0.029587,0.002085,-0.002498,0.001913,0.143787,0.310504,-0.939634
1760108362.310356,-0.151151,0.085421,-0.079569,0.981593,0.007402,0.002364,-0.024014,0.004059,0.000093,-0.000852,0.143643,0.310331,-0.939713
1760108362.338960,-0.151047,0.085447,-0.079748,0.981592,0.005341,0.003739,-0.010987,0.001048,0.000598,0.002089,0.143657,0.310162,-0.939767
1760108362.368771,-0.150961,0.085381,-0.079803,0.981607,0.009589,-0.018600,-0.004089,-0.001088,0.004675,0.005039,0.143528,0.309996,-0.939842
1760108362.370714,-0.150905,0.085148,-0.079746,0.981641,0.000224,-0.024989,0.010908,0.001626,0.006833,0.000613,0.143100,0.309849,-0.939955
1760108362.400154,-0.150942,0.084988,-0.079480,0.981670,-0.006131,-0.013700,0.027918,0.007709,0.002224,-0.007928,0.142867,0.309861,-0.939987
1760108362.417845,-0.151041,0.085034,-0.079155,0.981677,-0.014634,0.010155,0.035004,0.007393,0.002544,-0.007085,0.143040,0.310008,-0.939912
1760108362.448192,-0.151237,0.085293,-0.078774,0.981655,-0.023301,0.014403,0.041259,0.001811,0.000916,0.000692,0.143629,0.310363,-0.939705
1760108362.448477,-0.151437,0.085398,-0.078450,0.981641,-0.012782,-0.007949,0.021984,-0.000724,-0.001840,0.003533,0.143899,0.310713,-0.939548
1760108362.476406,-0.151558,0.085277,-0.078289,0.981646,-0.010730,-0.023487,0.005653,0.000805,0.000628,0.001652,0.143692,0.310905,-0.939516
1760108362.507024,-0.151657,0.085069,-0.078218,0.981654,-0.007129,-0.022052,0.003804,0.002199,0.001065,-0.000714,0.143291,0.311057,-0.939527
1760108362.508341,-0.151715,0.084887,-0.078165,0.981665,0.001664,-0.017049,0.001263,0.000898,0.001767,0.001221,0.142945,0.311138,-0.939553
1760108362.537956,-0.151654,0.084709,-0.078079,0.981697,0.009544,-0.017309,0.009250,0.000347,0.001010,0.000843,0.142634,0.310984,-0.939651
1760108362.567541,-0.151520,0.084542,-0.077972,0.981741,0.016958,-0.017024,0.008459,-0.000313,0.000951,-0.000338,0.142368,0.310690,-0.939789
1760108362.568631,-0.151351,0.084460,-0.077876,0.981781,0.013307,-0.006785,0.010759,-0.001368,0.001730,0.001603,0.142270,0.310342,-0.939919
1760108362.598987,-0.151184,0.084383,-0.077727,0.981826,0.016418,-0.003100,0.014026,-0.001745,-0.001610,-0.000122,0.142197,0.309991,-0.940046
1760108362.617362,-0.150995,0.084314,-0.077604,0.981870,0.026764,-0.010290,0.003995,0.002993,-0.006270,-0.001680,0.142135,0.309602,-0.940183
1760108362.666402,-0.150780,0.084330,-0.077680,0.981896,0.018182,0.000391,0.000083,0.002485,-0.003308,-0.002049,0.142181,0.309202,-0.940308
1760108362.666747,-0.150565,0.084346,-0.077756,0.981922,0.009600,0.011071,-0.003829,0.001978,-0.000346,-0.002418,0.142227,0.308803,-0.940432
1760108362.671218,-0.150467,0.084377,-0.077877,0.981924,0.003912,0.006975,-0.009075,0.001872,-0.000534,-0.000479,0.142267,0.308637,-0.940480
1760108362.707263,-0.150456,0.084404,-0.078009,0.981913,-0.006495,0.004568,-0.013871,0.002913,-0.001465,0.000790,0.142280,0.308638,-0.940478
1760108362.707558,-0.150570,0.084422,-0.078168,0.981882,-0.016748,-0.000973,-0.017124,0.003187,-0.002249,0.004669,0.142246,0.308881,-0.940403
1760108362.735445,-0.150769,0.084344,-0.078329,0.981845,-0.020940,-0.014619,-0.025643,0.003214,-0.005056,0.005405,0.142007,0.309277,-0.940309
1760108362.765041,-0.151014,0.084162,-0.078556,0.981805,-0.021319,-0.021921,-0.030789,0.003642,-0.003912,0.002580,0.141535,0.309756,-0.940223
1760108362.766217,-0.151265,0.083916,-0.078830,0.981765,-0.020280,-0.025427,-0.033011,0.002642,-0.001643,-0.001000,0.140923,0.310244,-0.940154
1760108362.798467,-0.151524,0.083642,-0.079089,0.981728,-0.022527,-0.027669,-0.029951,0.001905,0.001766,-0.002726,0.140260,0.310740,-0.940089
1760108362.833473,-0.151762,0.083395,-0.079275,0.981697,-0.020943,-0.025913,-0.019809,0.002162,0.003623,-0.004193,0.139675,0.311191,-0.940027
1760108362.835500,-0.151979,0.083180,-0.079344,0.981676,-0.017285,-0.025452,-0.009405,0.000382,0.004235,-0.002375,0.139195,0.311587,-0.939967
1760108362.864097,-0.152125,0.082970,-0.079369,0.981669,-0.011446,-0.027983,-0.004612,0.000146,0.002743,-0.002247,0.138750,0.311843,-0.939948
1760108362.865659,-0.152192,0.082702,-0.079339,0.981684,0.001032,-0.025996,0.000279,0.000577,0.001110,-0.003086,0.138225,0.311933,-0.939996
1760108362.898135,-0.152155,0.082473,-0.079258,0.981715,0.012246,-0.022763,0.005732,0.000627,0.001206,-0.001837,0.137812,0.311820,-0.940094
1760108362.928198,-0.152035,0.082264,-0.079164,0.981759,0.016776,-0.017068,0.008234,0.000172,0.000331,-0.000504,0.137455,0.311549,-0.940236
1760108362.928492,-0.151857,0.082115,-0.079056,0.981808,0.022645,-0.014930,0.009602,-0.001128,-0.002167,0.002337,0.137233,0.311173,-0.940393
1760108362.960839,-0.151606,0.081906,-0.078944,0.981873,0.028444,-0.021043,0.007898,-0.001331,-0.002900,0.002122,0.136905,0.310648,-0.940614
1760108362.965532,-0.151331,0.081670,-0.078901,0.981939,0.030939,-0.023005,0.001465,-0.001110,-0.001064,-0.000038,0.136509,0.310084,-0.940858
1760108362.996220,-0.151102,0.081437,-0.078833,0.981999,0.016076,-0.020491,0.007411,-0.003474,0.001837,0.000419,0.136119,0.309603,-0.941073
1760108363.023786,-0.151042,0.081155,-0.078707,0.982041,-0.001834,-0.039693,0.006847,-0.006301,0.002810,0.004806,0.135618,0.309435,-0.941200
1760108363.024863,-0.151168,0.080716,-0.078527,0.982073,-0.016024,-0.047059,0.012548,-0.003468,0.000815,-0.001563,0.134796,0.309593,-0.941266
1760108363.056156,-0.151353,0.080312,-0.078306,0.982095,-0.017250,-0.035928,0.006598,0.004045,-0.002503,-0.007763,0.134043,0.309864,-0.941284
1760108363.086069,-0.151589,0.080127,-0.078194,0.982083,-0.025302,-0.004617,0.006559,0.008017,0.000801,-0.012915,0.133676,0.310276,-0.941201
1760108363.088124,-0.151913,0.080315,-0.078134,0.982022,-0.039297,0.030168,0.010643,0.002830,0.002121,-0.008516,0.134003,0.310914,-0.940944
1760108363.116426,-0.152245,0.080642,-0.078103,0.981946,-0.032066,0.025914,-0.005660,-0.004731,0.000752,-0.001497,0.134590,0.311589,-0.940637
1760108363.147040,-0.152455,0.080826,-0.078224,0.981889,-0.020537,0.011872,-0.019186,-0.003964,0.003273,-0.000961,0.134874,0.312033,-0.940449
1760108363.149146,-0.152602,0.080947,-0.078456,0.981837,-0.015755,0.015226,-0.019622,-0.003116,0.005872,-0.000820,0.135008,0.312363,-0.940320
1760108363.178206,-0.152692,0.081083,-0.078662,0.981796,-0.004646,0.014955,-0.016074,-0.003777,0.005201,0.001755,0.135192,0.312581,-0.940221
1760108363.185736,-0.152679,0.081191,-0.078820,0.981776,0.006724,0.014209,-0.011735,-0.003946,0.005030,0.002412,0.135354,0.312593,-0.940194
1760108363.215660,-0.152583,0.081255,-0.078967,0.981774,0.013399,0.012750,-0.007895,-0.001623,0.004199,0.000888,0.135450,0.312438,-0.940232
1760108363.244938,-0.152472,0.081363,-0.079040,0.981777,0.009252,0.020870,-0.001953,-0.000665,0.003863,0.002664,0.135658,0.312248,-0.940265
1760108363.245233,-0.152419,0.081507,-0.079063,0.981771,0.007561,0.015459,0.007164,-0.000408,0.000495,0.001174,0.135941,0.312170,-0.940250
1760108363.279576,-0.152349,0.081617,-0.079030,0.981775,0.015342,0.007000,0.002630,0.000648,-0.004510,0.000637,0.136179,0.312046,-0.940257
1760108363.291565,-0.152147,0.081684,-0.079162,0.981790,0.018871,0.012070,-0.012318,0.002959,-0.000396,-0.001031,0.136304,0.311686,-0.940358
1760108363.321533,-0.152034,0.081801,-0.079304,0.981787,0.007191,0.020800,-0.010906,0.003240,0.001267,-0.003104,0.136508,0.311505,-0.940389
1760108363.325932,-0.152020,0.082015,-0.079433,0.981761,0.004389,0.018511,-0.010329,0.001235,-0.000393,-0.000122,0.136887,0.311523,-0.940327
1760108363.354060,-0.151969,0.082126,-0.079556,0.981749,0.005155,0.013054,-0.009722,0.002986,-0.001543,-0.000075,0.137074,0.311458,-0.940322
1760108363.388713,-0.151900,0.082243,-0.079666,0.981741,0.002885,0.007014,-0.004402,0.002280,0.000212,0.001256,0.137281,0.311356,-0.940325
1760108363.389790,-0.151855,0.082299,-0.079694,0.981741,0.002746,0.003204,-0.000811,0.002560,-0.000070,0.002213,0.137389,0.311283,-0.940334
1760108363.420850,-0.151816,0.082294,-0.079701,0.981747,0.001061,-0.001600,0.002122,0.002787,-0.000190,0.001402,0.137384,0.311207,-0.940359
1760108363.425669,-0.151813,0.082282,-0.079673,0.981751,-0.001754,-0.006384,0.000493,0.002958,-0.001927,0.001847,0.137371,0.311197,-0.940365
1760108363.454188,-0.151868,0.082224,-0.079662,0.981748,-0.003994,-0.008102,-0.001176,0.003320,-0.002442,-0.000136,0.137251,0.311292,-0.940351
1760108363.484418,-0.151946,0.082124,-0.079669,0.981744,-0.010244,-0.012178,-0.003337,0.002497,-0.001141,-0.001885,0.137040,0.311429,-0.940336
1760108363.485934,-0.152115,0.082023,-0.079677,0.981725,-0.024615,-0.013297,-0.003664,0.001778,0.000456,-0.001363,0.136809,0.311741,-0.940266
1760108363.517051,-0.152399,0.081920,-0.079651,0.981692,-0.028619,-0.015575,-0.003743,0.003828,-0.002715,-0.002341,0.136562,0.312268,-0.940127
1760108363.546492,-0.152695,0.081791,-0.079677,0.981655,-0.031809,-0.013084,-0.012896,0.003008,-0.004700,-0.002162,0.136249,0.312820,-0.939989
1760108363.557754,-0.152990,0.081693,-0.079792,0.981608,-0.025411,-0.013758,-0.021405,0.001849,-0.006516,-0.003825,0.135966,0.313390,-0.939840
1760108363.587747,-0.153235,0.081570,-0.080019,0.981561,-0.020953,-0.008138,-0.029668,0.000064,-0.003604,-0.002977,0.135608,0.313873,-0.939731
1760108363.588034,-0.153405,0.081507,-0.080306,0.981516,-0.015186,-0.007327,-0.031865,-0.001494,-0.000868,-0.001438,0.135363,0.314230,-0.939647
1760108363.619157,-0.153524,0.081415,-0.080561,0.981484,-0.008825,-0.006583,-0.022905,-0.001415,0.001301,-0.000560,0.135078,0.314481,-0.939604
1760108363.647539,-0.153538,0.081348,-0.080723,0.981474,-0.004650,-0.001682,-0.008730,-0.001234,0.001731,-0.001427,0.134895,0.314521,-0.939617
1760108363.649616,-0.153543,0.081380,-0.080761,0.981468,-0.004443,0.004183,-0.001574,-0.000807,0.001694,0.000632,0.134944,0.314540,-0.939604
1760108363.678841,-0.153534,0.081419,-0.080755,0.981467,-0.001295,0.001017,0.001791,-0.002560,0.001731,0.002439,0.135024,0.314527,-0.939596
1760108363.686512,-0.153590,0.081418,-0.080751,0.981458,-0.003326,0.000097,-0.001171,0.000192,0.000701,-0.003213,0.135012,0.314634,-0.939562
1760108363.725044,-0.153672,0.081423,-0.080763,0.981444,-0.007210,0.004477,-0.001471,-0.000513,0.000337,-0.001882,0.135002,0.314793,-0.939510
1760108363.725305,-0.153781,0.081527,-0.080766,0.981418,-0.006784,0.003853,-0.002365,-0.002895,-0.001296,0.003643,0.135184,0.315016,-0.939410
1760108363.753756,-0.153856,0.081435,-0.080837,0.981408,-0.004250,-0.012012,-0.009118,-0.002718,0.003299,0.000820,0.134967,0.315156,-0.939394
1760108363.784545,-0.153910,0.081355,-0.080864,0.981404,-0.004327,0.004371,0.002742,0.003490,0.003376,-0.008734,0.134792,0.315253,-0.939386
1760108363.786740,-0.153899,0.081556,-0.080878,0.981388,-0.002523,0.032569,0.004280,0.004565,0.008078,-0.009905,0.135181,0.315261,-0.939328
1760108363.818516,-0.153955,0.082020,-0.080831,0.981344,-0.017361,0.059680,0.018963,0.003475,0.008917,-0.007569,0.136092,0.315425,-0.939141
1760108363.825536,-0.154074,0.082563,-0.080756,0.981287,-0.010397,0.044602,0.010121,-0.002347,0.004003,0.001206,0.137151,0.315716,-0.938889
1760108363.866040,-0.154090,0.082887,-0.080810,0.981252,0.002003,0.016990,-0.006617,-0.002317,0.007221,0.004100,0.137761,0.315799,-0.938772
1760108363.867994,-0.154064,0.082950,-0.080946,0.981240,0.004842,0.003121,-0.008455,-0.001963,0.008923,0.004692,0.137845,0.315777,-0.938767
1760108363.896330,-0.153991,0.082936,-0.081007,0.981247,0.015597,-0.004258,0.000797,-0.001036,0.007235,0.005604,0.137813,0.315643,-0.938817
1760108363.903979,-0.153812,0.082823,-0.081006,0.981285,0.026460,-0.012150,0.007673,-0.003555,0.010717,0.004620,0.137627,0.315286,-0.938964
1760108363.945830,-0.153542,0.082600,-0.080898,0.981355,0.037227,-0.025950,0.013219,-0.003800,0.014837,-0.000201,0.137278,0.314723,-0.939204
1760108363.947196,-0.153252,0.082307,-0.080768,0.981436,0.036747,-0.027801,0.011619,-0.001206,0.025327,-0.012486,0.136802,0.314109,-0.939479
1760108363.977518,-0.153051,0.081987,-0.080677,0.981501,0.025933,-0.029271,0.002948,-0.003073,0.038163,-0.024253,0.136245,0.313668,-0.939707
1760108363.982334,-0.152983,0.081750,-0.080623,0.981536,0.011521,-0.024277,0.004762,-0.003194,0.047636,-0.029110,0.135813,0.313499,-0.939826
1760108364.012307,-0.152940,0.081566,-0.080656,0.981555,0.016311,0.002466,-0.008605,-0.000429,0.051478,-0.032548,0.135453,0.313395,-0.939913
1760108364.041359,-0.152776,0.081640,-0.080704,0.981571,0.039493,0.027283,0.006033,-0.002836,0.052590,-0.025162,0.135612,0.313099,-0.939989
1760108364.043374,-0.152217,0.081927,-0.080711,0.981633,0.094912,0.029149,0.012230,-0.009898,0.050252,-0.009868,0.136273,0.312067,-0.940236
1760108364.072614,-0.151040,0.082017,-0.080741,0.981805,0.159485,0.020904,0.017581,-0.008760,0.054927,-0.011436,0.136660,0.309828,-0.940920
1760108364.103393,-0.149368,0.082086,-0.080728,0.982056,0.199099,0.014901,0.027607,-0.008291,0.064029,-0.012098,0.137109,0.306628,-0.941903
1760108364.105346,-0.147465,0.082123,-0.080650,0.982347,0.212154,0.017822,0.033569,-0.011824,0.072866,-0.011989,0.137562,0.302970,-0.943020
1760108364.134989,-0.145538,0.082151,-0.080449,0.982648,0.205106,0.019096,0.051442,-0.008844,0.076232,-0.009787,0.138035,0.299244,-0.944140
1760108364.176237,-0.143739,0.082159,-0.080016,0.982948,0.206221,0.005498,0.054219,-0.007943,0.063907,-0.007573,0.138512,0.295723,-0.945178
1760108364.176552,-0.141939,0.082166,-0.079584,0.983244,0.207336,-0.008101,0.056996,-0.007037,0.051586,-0.005371,0.138986,0.292199,-0.946204
1760108364.180060,-0.140176,0.081971,-0.079275,0.983538,0.201994,-0.006291,0.038050,-0.002521,0.042539,-0.013730,0.139019,0.288734,-0.947263
1760108364.213047,-0.138613,0.081731,-0.079205,0.983785,0.177281,-0.015999,0.023452,0.000083,0.051097,-0.010855,0.138855,0.285677,-0.948213
1760108364.243248,-0.137372,0.081585,-0.079008,0.983987,0.125981,0.012309,0.042153,0.007777,0.043001,-0.011062,0.138850,0.283236,-0.948946
1760108364.243611,-0.136587,0.081783,-0.078638,0.984110,0.089806,0.016699,0.062105,0.003333,0.033250,0.016747,0.139485,0.281696,-0.949311
1760108364.280988,-0.135864,0.081931,-0.078041,0.984245,0.095373,0.011082,0.074668,0.006205,0.008032,0.025059,0.140075,0.280235,-0.949656
1760108364.282203,-0.134949,0.082020,-0.077477,0.984408,0.144652,0.008519,0.054156,0.016358,-0.021884,0.026349,0.140572,0.278399,-0.950123
1760108364.312160,-0.133420,0.082187,-0.077386,0.984610,0.219916,0.034265,-0.005515,0.027733,-0.047146,0.022078,0.141194,0.275453,-0.950889
1760108364.341698,-0.131207,0.082412,-0.078151,0.984828,0.285606,0.052569,-0.085077,0.023712,-0.039719,0.012869,0.141815,0.271313,-0.951986
1760108364.342581,-0.128487,0.082566,-0.079534,0.985063,0.313739,0.042666,-0.132477,0.013577,-0.015253,-0.000041,0.142226,0.266268,-0.953348
1760108364.375627,-0.125610,0.082633,-0.081188,0.985293,0.292128,0.022992,-0.134101,0.006754,0.009993,0.002994,0.142440,0.260942,-0.954788
1760108364.405764,-0.122869,0.082548,-0.082502,0.985537,0.251864,-0.002213,-0.084973,0.005105,0.017359,0.002663,0.142434,0.255804,-0.956178
1760108364.406093,-0.120494,0.082321,-0.083266,0.985785,0.220491,-0.017632,-0.035607,0.005886,0.005984,-0.002478,0.142236,0.251272,-0.957409
1760108364.434184,-0.118317,0.081996,-0.083605,0.986047,0.222836,-0.026267,-0.010938,0.007095,-0.010901,-0.008272,0.141919,0.247042,-0.958556
1760108364.465727,-0.116249,0.081619,-0.083807,0.986307,0.224782,-0.025713,-0.002157,0.003769,-0.013628,-0.014449,0.141518,0.242994,-0.959649
1760108364.466945,-0.114384,0.081281,-0.083929,0.986542,0.199278,-0.031800,0.014482,-0.000636,-0.007237,-0.005124,0.141173,0.239334,-0.960619
1760108364.501890,-0.112816,0.080825,-0.083824,0.986769,0.148264,-0.041717,0.026873,-0.001093,-0.007556,-0.002392,0.140599,0.236196,-0.961480
1760108364.503948,-0.111712,0.080474,-0.083449,0.986955,0.087192,-0.034150,0.047451,0.001504,-0.028269,0.004216,0.140205,0.233940,-0.962089
1760108364.532985,-0.110944,0.080251,-0.082990,0.987099,0.058988,-0.010561,0.028702,0.005998,-0.057530,-0.002365,0.140016,0.232346,-0.962502
1760108364.565340,-0.110367,0.080263,-0.082965,0.987165,0.055966,0.016205,-0.019191,-0.001355,-0.068556,0.004687,0.140152,0.231218,-0.962754
1760108364.565707,-0.109803,0.080207,-0.083519,0.987185,0.053711,-0.009002,-0.072893,-0.010497,-0.045128,0.008023,0.140017,0.230189,-0.963020
1760108364.594824,-0.109476,0.080032,-0.084208,0.987177,-0.003330,-0.011256,-0.048833,-0.010666,-0.014065,0.013896,0.139574,0.229624,-0.963220
1760108364.601644,-0.109568,0.079866,-0.084228,0.987179,-0.078260,-0.019392,0.026370,-0.008115,-0.005430,0.007737,0.139227,0.229781,-0.963232
1760108364.629998,-0.110183,0.079916,-0.083430,0.987174,-0.127613,-0.012746,0.100507,-0.007854,-0.017299,0.008096,0.139396,0.230874,-0.962946
1760108364.663104,-0.111107,0.079960,-0.082114,0.987177,-0.133782,-0.013344,0.124410,-0.006082,-0.038349,0.002153,0.139623,0.232496,-0.962523
1760108364.663419,-0.112105,0.079937,-0.080857,0.987170,-0.103901,-0.028668,0.097003,-0.007607,-0.045089,0.004261,0.139693,0.234261,-0.962085
1760108364.691366,-0.112932,0.079619,-0.079996,0.987172,-0.081839,-0.043014,0.059103,-0.003789,-0.036650,-0.000742,0.139127,0.235704,-0.961815
1760108364.724518,-0.113665,0.079348,-0.079366,0.987160,-0.087894,-0.044465,0.054978,-0.005292,-0.022867,0.014005,0.138617,0.237006,-0.961568
1760108364.726588,-0.114328,0.078934,-0.078647,0.987174,-0.098425,-0.049010,0.060440,-0.001494,-0.018555,0.007963,0.137860,0.238139,-0.961397
1760108364.758091,-0.115004,0.078591,-0.077766,0.987193,-0.096694,-0.048152,0.088351,-0.001799,-0.025328,0.013497,0.137282,0.239286,-0.961195
1760108364.761555,-0.115569,0.078153,-0.076715,0.987244,-0.064491,-0.073940,0.088421,-0.004641,-0.032256,0.013477,0.136581,0.240181,-0.961072
1760108364.791649,-0.115969,0.077456,-0.075760,0.987326,-0.051037,-0.086707,0.079331,-0.002816,-0.023688,0.008449,0.135377,0.240735,-0.961103
1760108364.821274,-0.116391,0.076544,-0.074607,0.987435,-0.064418,-0.122873,0.120476,-0.005104,-0.021773,0.013512,0.133798,0.241278,-0.961188
1760108364.821566,-0.117009,0.075412,-0.073191,0.987555,-0.076058,-0.161081,0.107327,-0.002613,-0.022458,0.012158,0.131819,0.242144,-0.961244
1760108364.850210,-0.117778,0.073981,-0.072053,0.987656,-0.107321,-0.149380,0.086781,0.003665,-0.014279,0.003883,0.129164,0.243309,-0.961310
1760108364.882471,-0.118868,0.072746,-0.070805,0.987707,-0.136882,-0.141961,0.107175,0.004076,-0.020242,0.007495,0.126871,0.245115,-0.961157
1760108364.883648,-0.120199,0.071666,-0.069538,0.987715,-0.137711,-0.127812,0.098222,0.003444,-0.032295,0.005914,0.124854,0.247412,-0.960832
1760108364.915055,-0.121182,0.070665,-0.068497,0.987740,-0.075366,-0.113427,0.059063,0.004189,-0.047505,0.000970,0.122996,0.249073,-0.960643
1760108364.920766,-0.121343,0.069788,-0.068043,0.987813,0.032904,-0.101517,0.002549,0.002417,-0.050574,0.003285,0.121362,0.249227,-0.960811
1760108364.949179,-0.120351,0.068795,-0.068311,0.987986,0.150693,-0.080934,-0.063229,0.007315,-0.030605,-0.002904,0.119494,0.247210,-0.961566
1760108364.979394,-0.118355,0.067962,-0.069058,0.988233,0.230288,-0.056730,-0.068892,0.007316,-0.005508,0.000795,0.117977,0.243312,-0.962746
1760108364.981471,-0.115663,0.067443,-0.069814,0.988534,0.274284,-0.006083,-0.051491,0.006696,0.007186,0.002481,0.117189,0.238090,-0.964147
1760108365.010053,-0.112509,0.067315,-0.070380,0.988866,0.325977,0.007094,-0.025271,0.001975,0.010095,0.005626,0.117294,0.231989,-0.965621
1760108365.060166,-0.108844,0.067508,-0.070681,0.989242,0.361905,0.029857,-0.006594,0.003336,0.010747,0.003073,0.118178,0.224890,-0.967191
1760108365.060512,-0.105177,0.067701,-0.070980,0.989604,0.397832,0.052619,0.012083,0.004695,0.011410,0.000467,0.119063,0.217779,-0.968709
1760108365.060760,-0.101402,0.068156,-0.071137,0.989955,0.387693,0.079172,0.032076,0.004677,0.014145,0.006349,0.120516,0.210464,-0.970145
1760108365.089502,-0.097817,0.068636,-0.071132,0.990283,0.368639,0.068107,0.035763,0.003439,0.012203,0.004326,0.122023,0.203497,-0.971442
1760108365.118470,-0.094527,0.069198,-0.071082,0.990567,0.329179,0.068971,0.037889,0.002212,0.009723,0.011708,0.123653,0.197108,-0.972552
1760108365.120069,-0.091570,0.069567,-0.070989,0.990826,0.293811,0.049125,0.040571,0.003510,0.003731,0.003952,0.124857,0.191336,-0.973551
1760108365.154797,-0.089017,0.069938,-0.070730,0.991051,0.260855,0.047981,0.060485,0.002692,-0.005799,0.002293,0.126032,0.186334,-0.974369
1760108365.159341,-0.086622,0.070251,-0.070290,0.991272,0.258018,0.030546,0.061793,-0.003507,-0.021247,0.003860,0.127099,0.181608,-0.975123
1760108365.202545,-0.084193,0.070293,-0.069920,0.991505,0.255560,0.003096,0.057724,-0.006201,-0.019150,0.000921,0.127618,0.176786,-0.975941
1760108365.202850,-0.081889,0.070151,-0.069491,0.991738,0.232629,-0.013017,0.062311,-0.007585,-0.011892,-0.001140,0.127761,0.172175,-0.976746
1760108365.235825,-0.079833,0.069918,-0.068898,0.991963,0.186404,-0.018332,0.089599,-0.008316,-0.005060,-0.002358,0.127712,0.168018,-0.977476
1760108365.238128,-0.078164,0.069724,-0.067966,0.992174,0.136494,-0.001986,0.113520,-0.004002,-0.013378,-0.005865,0.127731,0.164582,-0.978058
1760108365.268033,-0.076850,0.069723,-0.066812,0.992355,0.105946,0.009520,0.122384,-0.001708,-0.025446,-0.011737,0.128112,0.161841,-0.978465
1760108365.298417,-0.075772,0.069899,-0.065866,0.992489,0.093934,0.035302,0.081344,-0.003423,-0.034496,-0.011405,0.128767,0.159613,-0.978746
1760108365.303016,-0.074827,0.070158,-0.065325,0.992578,0.084884,0.030451,0.044932,-0.001972,-0.032290,-0.009330,0.129499,0.157709,-0.978958
1760108365.331928,-0.074025,0.070525,-0.065133,0.992625,0.053926,0.060640,0.006207,0.001554,-0.028525,-0.010796,0.130367,0.156146,-0.979093
1760108365.362003,-0.073389,0.070974,-0.065408,0.992622,0.044710,0.050160,-0.047874,-0.002325,-0.018735,-0.008082,0.131299,0.154980,-0.979154
1760108365.364043,-0.072914,0.071447,-0.065960,0.992587,0.021132,0.044849,-0.040301,-0.004671,-0.008557,0.011611,0.132216,0.154172,-0.979158
1760108365.392950,-0.072458,0.071564,-0.066354,0.992585,0.025050,0.029028,-0.032964,0.000628,-0.004236,-0.006188,0.132451,0.153340,-0.979257
1760108365.400223,-0.071897,0.071857,-0.066643,0.992586,0.058592,0.029260,-0.018246,0.003534,-0.004833,-0.006840,0.133066,0.152306,-0.979335
1760108365.430356,-0.071000,0.072170,-0.066785,0.992618,0.084490,0.052835,0.015468,0.005480,0.000041,-0.013448,0.133790,0.150591,-0.979501
1760108365.460692,-0.069937,0.072751,-0.066481,0.992671,0.103963,0.072886,0.064183,0.000282,-0.001365,-0.003314,0.135137,0.148522,-0.979632
1760108365.460986,-0.068635,0.073343,-0.065947,0.992754,0.147749,0.047318,0.065462,-0.004238,-0.007626,0.004190,0.136571,0.145949,-0.979820
1760108365.489128,-0.066983,0.073650,-0.065455,0.992877,0.162685,0.036228,0.065298,0.000443,-0.005446,0.003886,0.137483,0.142653,-0.980178
1760108365.519469,-0.065352,0.073942,-0.065018,0.992993,0.158947,0.024703,0.058489,-0.001259,-0.008163,0.009707,0.138349,0.139404,-0.980523
1760108365.521715,-0.063765,0.074009,-0.064741,0.993109,0.156700,0.010994,0.021123,0.000843,-0.011798,0.007828,0.138741,0.136233,-0.980914
1760108365.550920,-0.062305,0.073962,-0.064737,0.993205,0.142574,0.001142,0.001660,0.003127,-0.015477,0.005576,0.138852,0.133340,-0.981295
1760108365.581133,-0.060924,0.073785,-0.064942,0.993291,0.147217,-0.005205,-0.018204,0.007005,-0.015489,-0.004678,0.138668,0.130613,-0.981688
1760108365.582907,-0.059550,0.073740,-0.065309,0.993353,0.138277,0.017175,-0.026937,0.008860,-0.005559,-0.007355,0.138721,0.127940,-0.982032
1760108365.615001,-0.058256,0.073927,-0.065684,0.993391,0.127831,0.027021,-0.021192,0.001869,-0.002120,-0.001286,0.139223,0.125454,-0.982282
1760108365.616148,-0.057051,0.074115,-0.065923,0.993432,0.101561,0.020547,-0.012457,-0.002109,0.004169,-0.002616,0.139735,0.123123,-0.982504
1760108365.647112,-0.056060,0.074315,-0.066085,0.993462,0.082881,0.024834,-0.005631,0.002121,0.004341,-0.004696,0.140249,0.121209,-0.982669
1760108365.676531,-0.055323,0.074581,-0.066115,0.993482,0.052117,0.039251,0.009602,0.000206,0.005037,-0.009185,0.140874,0.119787,-0.982754
1760108365.678000,-0.054903,0.075008,-0.065990,0.993481,0.028496,0.033083,0.023227,-0.005015,0.002524,-0.001824,0.141792,0.118989,-0.982719
1760108365.708283,-0.054684,0.075219,-0.065915,0.993482,0.011654,0.026991,-0.000402,-0.000592,-0.000477,-0.010317,0.142249,0.118572,-0.982703
1760108365.740751,-0.054643,0.075506,-0.065963,0.993460,0.001848,0.027127,-0.005190,-0.001352,-0.002406,-0.003057,0.142816,0.118531,-0.982626
1760108365.741071,-0.054678,0.075791,-0.066007,0.993433,-0.002558,0.029942,0.000768,-0.000175,-0.003557,-0.006076,0.143368,0.118644,-0.982532
1760108365.771344,-0.054639,0.076105,-0.066002,0.993411,0.012941,0.036227,0.005721,-0.001626,-0.005953,-0.002126,0.143994,0.118604,-0.982445
1760108365.801226,-0.054374,0.076455,-0.065957,0.993402,0.026308,0.037695,0.016013,0.000278,-0.004496,0.001609,0.144728,0.118117,-0.982396
1760108365.801470,-0.054009,0.076779,-0.065785,0.993408,0.035506,0.036135,0.032816,-0.000540,-0.002033,-0.000653,0.145441,0.117407,-0.982376
1760108365.837215,-0.053631,0.077239,-0.065444,0.993416,0.029145,0.048337,0.046655,-0.002599,-0.007795,-0.000018,0.146441,0.116666,-0.982316
1760108365.839219,-0.053181,0.077595,-0.065007,0.993441,0.041844,0.038438,0.049271,0.000079,-0.010201,-0.002252,0.147257,0.115753,-0.982302
1760108365.870601,-0.052597,0.077977,-0.064600,0.993469,0.060201,0.033719,0.042597,-0.000405,-0.015116,-0.002801,0.148140,0.114582,-0.982306
1760108365.900023,-0.051851,0.078259,-0.064241,0.993509,0.076217,0.034179,0.047757,0.002017,-0.011604,-0.004002,0.148841,0.113083,-0.982374
1760108365.900310,-0.050967,0.078630,-0.063703,0.993560,0.087641,0.049289,0.047371,-0.005285,-0.023689,-0.003129,0.149755,0.111295,-0.982439
1760108365.958967,-0.049753,0.078874,-0.063304,0.993628,0.120138,0.016634,0.049791,-0.003456,-0.013406,0.000138,0.150444,0.108858,-0.982607
1760108365.962799,-0.048585,0.079009,-0.062685,0.993714,0.093944,0.019511,0.068064,-0.003215,-0.006919,-0.000847,0.150933,0.106465,-0.982794
1760108365.992783,-0.047682,0.079160,-0.061958,0.993791,0.061938,0.019957,0.075737,-0.001268,-0.005018,-0.002396,0.151429,0.104580,-0.982920
1760108366.022366,-0.047116,0.079376,-0.061367,0.993838,0.032323,0.020385,0.049342,0.000776,-0.004791,-0.004727,0.151990,0.103393,-0.982959
1760108366.022692,-0.046939,0.079614,-0.061001,0.993850,-0.005990,0.029935,0.026479,0.004000,-0.005775,-0.008662,0.152522,0.103014,-0.982917
1760108366.062084,-0.047168,0.080016,-0.060890,0.993813,-0.040451,0.043520,-0.006727,0.004493,-0.009200,-0.006768,0.153297,0.103496,-0.982745
1760108366.062392,-0.047713,0.080530,-0.061132,0.993731,-0.063572,0.050828,-0.042519,0.004068,-0.012519,-0.001969,0.154216,0.104673,-0.982477
1760108366.090706,-0.048326,0.081049,-0.061643,0.993627,-0.062489,0.056149,-0.062678,0.003346,-0.013629,0.001368,0.155108,0.106029,-0.982191
1760108366.097862,-0.048841,0.081531,-0.062298,0.993522,-0.045739,0.038647,-0.064932,0.001368,-0.010324,0.001520,0.155921,0.107207,-0.981934
1760108366.126124,-0.049157,0.081910,-0.062857,0.993440,-0.033848,0.041292,-0.052605,0.001483,-0.004258,-0.002353,0.156565,0.107966,-0.981749
1760108366.157307,-0.049358,0.082246,-0.063242,0.993378,-0.028665,0.024354,-0.022309,-0.000264,0.000076,-0.000358,0.157160,0.108466,-0.981599
1760108366.157675,-0.049576,0.082492,-0.063298,0.993343,-0.035130,0.014551,0.005535,-0.000449,0.000141,0.001899,0.157610,0.108935,-0.981474
1760108366.186351,-0.049833,0.082553,-0.063155,0.993334,-0.034612,-0.002613,0.016897,0.001059,-0.004052,-0.002217,0.157711,0.109428,-0.981403
1760108366.217581,-0.050105,0.082559,-0.062935,0.993334,-0.035783,0.002015,0.006689,-0.000576,-0.010498,-0.005099,0.157710,0.109933,-0.981347
1760108366.219313,-0.050364,0.082579,-0.062728,0.993332,-0.028666,0.006891,0.017657,0.001589,-0.009107,-0.008781,0.157738,0.110417,-0.981288
1760108366.247683,-0.050555,0.082687,-0.062497,0.993328,-0.018944,0.016858,0.020068,0.002401,-0.007231,-0.006772,0.157951,0.110770,-0.981214
1760108366.257658,-0.050654,0.082918,-0.062153,0.993326,-0.015857,0.023784,0.035159,-0.000775,-0.004378,-0.002863,0.158432,0.110938,-0.981118
1760108366.287927,-0.050686,0.083134,-0.061752,0.993331,-0.013458,0.012776,0.034133,-0.002245,-0.003382,0.000874,0.158899,0.110964,-0.981039
1760108366.318154,-0.050782,0.083291,-0.061423,0.993333,-0.023914,0.014255,0.021489,-0.001114,-0.004996,0.000234,0.159233,0.111120,-0.980968
1760108366.318470,-0.050979,0.083429,-0.061272,0.993321,-0.030043,0.009370,0.003970,-0.002508,-0.008861,-0.000941,0.159497,0.111501,-0.980881
1760108366.346984,-0.051248,0.083528,-0.061344,0.993294,-0.028570,0.007002,-0.018246,-0.004176,-0.010050,-0.000626,0.159649,0.112058,-0.980793
1760108366.377049,-0.051468,0.083552,-0.061599,0.993265,-0.018781,0.001333,-0.034650,-0.005657,-0.008161,-0.004287,0.159638,0.112536,-0.980740
1760108366.378365,-0.051661,0.083638,-0.061968,0.993225,-0.029289,0.023851,-0.035476,-0.005272,0.003233,-0.004628,0.159740,0.112988,-0.980672
1760108366.410656,-0.051986,0.083916,-0.062207,0.993170,-0.050541,0.027445,-0.018560,-0.005541,0.004813,-0.003586,0.160219,0.113702,-0.980511
1760108366.440687,-0.052437,0.084208,-0.062305,0.993115,-0.053617,0.028271,-0.010615,-0.004038,-0.001714,-0.001744,0.160722,0.114645,-0.980319
1760108366.441026,-0.052818,0.084470,-0.062405,0.993066,-0.037495,0.030318,-0.018561,-0.001678,-0.005426,-0.002015,0.161177,0.115447,-0.980150
1760108366.468831,-0.053118,0.084716,-0.062627,0.993015,-0.027826,0.027694,-0.027727,-0.001593,0.002898,-0.001370,0.161596,0.116105,-0.980003
1760108366.504539,-0.053490,0.084930,-0.062871,0.992962,-0.039811,0.017662,-0.014765,-0.001385,0.008372,0.003958,0.161939,0.116907,-0.979851
1760108366.505937,-0.053880,0.084945,-0.062969,0.992933,-0.039716,-0.010249,-0.012232,0.000997,0.005740,0.004977,0.161905,0.117695,-0.979763
1760108366.534948,-0.054242,0.084747,-0.063166,0.992918,-0.032820,-0.030514,-0.032815,0.002136,0.006734,0.006804,0.161440,0.118422,-0.979752
1760108366.536077,-0.054634,0.084341,-0.063494,0.992910,-0.033795,-0.048670,-0.046616,0.004307,0.005167,0.003682,0.160547,0.119203,-0.979804
1760108366.567076,-0.055045,0.083820,-0.064026,0.992897,-0.013985,-0.058108,-0.071919,0.004740,0.003479,0.003947,0.159400,0.120041,-0.979889
1760108366.599959,-0.055141,0.083205,-0.064770,0.992895,0.017499,-0.062398,-0.085100,0.000291,0.003467,0.001137,0.158084,0.120277,-0.980073
1760108366.600249,-0.054907,0.082456,-0.065597,0.992917,0.051916,-0.098207,-0.079502,-0.001865,0.003085,0.002353,0.156540,0.119853,-0.980373
1760108366.628018,-0.054252,0.081399,-0.066557,0.992976,0.111188,-0.112921,-0.099552,0.005608,-0.004866,-0.001569,0.154433,0.118577,-0.980862
1760108366.658283,-0.053132,0.080168,-0.067400,0.993080,0.153329,-0.112426,-0.085515,0.012843,-0.016350,-0.007980,0.152064,0.116336,-0.981500
1760108366.660444,-0.051638,0.078982,-0.068204,0.993199,0.180978,-0.106321,-0.072823,0.014722,-0.006486,-0.003645,0.149846,0.113347,-0.982191
1760108366.691633,-0.050136,0.077891,-0.068756,0.993324,0.147815,-0.092562,-0.023165,0.012796,0.014410,-0.001351,0.147847,0.110314,-0.982839
1760108366.728972,-0.049090,0.077249,-0.068519,0.993442,0.133562,-0.080949,-0.008561,0.008526,0.004642,0.001547,0.146757,0.108121,-0.983246
1760108366.729146,-0.048043,0.076607,-0.068282,0.993560,0.119310,-0.069336,0.006044,0.004257,-0.005125,0.004439,0.145666,0.105929,-0.983647
1760108366.758681,-0.047005,0.075957,-0.068202,0.993665,0.111652,-0.071917,0.002239,0.003817,0.004231,0.004625,0.144540,0.103775,-0.984042
1760108366.759011,-0.046286,0.075400,-0.068143,0.993745,0.071027,-0.053152,0.005529,0.004029,0.008155,0.004435,0.143548,0.102268,-0.984345
1760108366.790680,-0.045945,0.074943,-0.068038,0.993802,0.029418,-0.043704,0.010266,0.002417,0.004841,0.001024,0.142705,0.101518,-0.984545
1760108366.805374,-0.045853,0.074603,-0.068000,0.993835,0.002925,-0.036939,-0.007825,-0.001697,-0.000993,0.004270,0.142050,0.101287,-0.984664
1760108366.838555,-0.046012,0.074296,-0.068165,0.993839,-0.017679,-0.034106,-0.027949,-0.004482,-0.000014,0.005121,0.141403,0.101585,-0.984726
1760108366.840265,-0.046417,0.073996,-0.068457,0.993823,-0.039840,-0.036322,-0.036230,-0.005740,0.002742,0.003199,0.140723,0.102391,-0.984740
1760108366.868915,-0.047023,0.073722,-0.068783,0.993792,-0.063992,-0.032806,-0.035062,-0.004863,0.007020,0.002740,0.140060,0.103603,-0.984708
1760108366.876640,-0.047780,0.073442,-0.069007,0.993761,-0.077514,-0.028896,-0.030504,-0.003004,0.003549,-0.006991,0.139374,0.105099,-0.984647
1760108366.906504,-0.048633,0.073315,-0.069268,0.993711,-0.088402,-0.004682,-0.029428,-0.002634,0.001695,-0.009037,0.138971,0.106811,-0.984519
1760108366.936869,-0.049499,0.073319,-0.069531,0.993650,-0.084852,0.003810,-0.033395,-0.004465,0.002260,-0.005174,0.138823,0.108565,-0.984348
1760108366.937151,-0.050398,0.073377,-0.069803,0.993581,-0.090867,0.005706,-0.033354,-0.005689,0.003420,-0.002718,0.138777,0.110392,-0.984152
1760108366.969584,-0.051362,0.073477,-0.070034,0.993508,-0.100364,0.013459,-0.019796,-0.003330,0.002603,-0.005148,0.138806,0.112349,-0.983926
1760108366.976535,-0.052354,0.073722,-0.070075,0.993435,-0.101724,0.026137,-0.000745,0.000055,-0.004361,-0.009711,0.139139,0.114353,-0.983648
1760108367.006513,-0.053206,0.074158,-0.070073,0.993358,-0.072968,0.040950,-0.016172,-0.000564,-0.017001,-0.004239,0.139874,0.116098,-0.983339
1760108367.036788,-0.053713,0.074498,-0.070296,0.993289,-0.037013,0.034898,-0.030483,0.000323,-0.013556,-0.000103,0.140445,0.117178,-0.983130
1760108367.037116,-0.054004,0.074747,-0.070554,0.993236,-0.029291,0.019468,-0.015430,0.002463,-0.002395,0.003859,0.140863,0.117825,-0.982993
1760108367.065166,-0.054272,0.074940,-0.070625,0.993202,-0.035144,0.024022,-0.002213,0.005232,0.004944,-0.000510,0.141195,0.118392,-0.982877
1760108367.095975,-0.054552,0.075207,-0.070526,0.993174,-0.046676,0.026723,0.010804,0.003342,0.004715,0.002413,0.141692,0.118968,-0.982736
1760108367.097888,-0.054882,0.075467,-0.070324,0.993150,-0.048292,0.022035,0.016206,0.003030,0.002465,0.002834,0.142181,0.119626,-0.982586
1760108367.126324,-0.055328,0.075676,-0.070085,0.993126,-0.053770,0.010467,0.021462,0.000496,0.003395,0.004446,0.142557,0.120502,-0.982424
1760108367.184792,-0.056120,0.075752,-0.069806,0.993096,-0.079016,-0.002488,0.022833,-0.000018,0.003591,0.005466,0.142623,0.122041,-0.982224
1760108367.185144,-0.056912,0.075828,-0.069528,0.993064,-0.104262,-0.015444,0.024205,-0.000533,0.003787,0.006482,0.142690,0.123579,-0.982022
1760108367.185425,-0.058063,0.075752,-0.069232,0.993024,-0.142043,-0.018977,0.017678,0.000436,-0.000451,0.001305,0.142407,0.125805,-0.981781
1760108367.214460,-0.059560,0.075635,-0.068967,0.992963,-0.164375,-0.025247,0.008091,0.002503,-0.007665,-0.004349,0.141991,0.128715,-0.981464
1760108367.216571,-0.061238,0.075539,-0.068886,0.992874,-0.170043,-0.018598,-0.011244,0.003537,-0.012192,-0.006493,0.141564,0.132010,-0.981088
1760108367.247154,-0.062888,0.075513,-0.068993,0.992765,-0.159036,-0.005063,-0.032969,0.001788,-0.014317,-0.007816,0.141255,0.135285,-0.980686
1760108367.285408,-0.064312,0.075571,-0.069301,0.992648,-0.130550,0.002041,-0.052303,-0.000121,-0.014923,-0.007852,0.141117,0.138153,-0.980306
1760108367.285734,-0.065384,0.075670,-0.069825,0.992534,-0.097961,0.007480,-0.065096,0.001315,-0.011215,-0.006953,0.141079,0.140360,-0.979998
1760108367.315858,-0.066127,0.075851,-0.070450,0.992427,-0.072635,0.019957,-0.066014,0.001284,-0.007313,-0.004853,0.141235,0.141940,-0.979748
1760108367.317842,-0.066649,0.076093,-0.071087,0.992328,-0.052739,0.025231,-0.062837,-0.002901,-0.001366,-0.001309,0.141542,0.143094,-0.979536
1760108367.346821,-0.067014,0.076283,-0.071656,0.992248,-0.045513,0.017879,-0.049718,-0.003632,0.006517,0.000224,0.141778,0.143922,-0.979380
1760108367.377005,-0.067398,0.076464,-0.072029,0.992181,-0.051191,0.012729,-0.028203,-0.002828,0.011309,0.003331,0.142023,0.144756,-0.979222
1760108367.378381,-0.067886,0.076587,-0.072187,0.992127,-0.061296,0.006511,-0.008680,-0.000657,0.010886,0.002463,0.142166,0.145761,-0.979052
1760108367.408313,-0.068519,0.076655,-0.072176,0.992078,-0.073125,0.006117,0.000458,0.001447,0.007131,-0.001417,0.142205,0.147018,-0.978858
1760108367.437570,-0.069277,0.076785,-0.072108,0.992021,-0.077344,0.010368,-0.000072,0.001594,0.002499,-0.000842,0.142353,0.148521,-0.978610
1760108367.439645,-0.070078,0.076950,-0.072112,0.991952,-0.073760,0.014471,-0.008044,0.000887,-0.001337,0.000541,0.142554,0.150126,-0.978336
1760108367.469220,-0.070812,0.077062,-0.072206,0.991884,-0.062738,0.005973,-0.019693,0.001565,-0.004198,-0.000168,0.142648,0.151604,-0.978094
1760108367.476589,-0.071406,0.077143,-0.072423,0.991819,-0.047465,0.002732,-0.030322,0.002920,-0.003827,-0.000023,0.142681,0.152817,-0.977900
1760108367.505750,-0.071828,0.077206,-0.072724,0.991762,-0.033098,0.003595,-0.034057,0.002666,-0.004178,0.000708,0.142694,0.153701,-0.977760
1760108367.538536,-0.072073,0.077212,-0.073048,0.991720,-0.018521,-0.001956,-0.034185,0.001845,-0.002892,0.001242,0.142616,0.154232,-0.977688
1760108367.538827,-0.072209,0.077165,-0.073372,0.991689,-0.012775,-0.008218,-0.030299,0.001645,0.000449,0.002530,0.142451,0.154542,-0.977663
1760108367.566867,-0.072337,0.077046,-0.073605,0.991672,-0.015483,-0.015734,-0.013620,0.001977,0.003012,0.002730,0.142160,0.154811,-0.977663
1760108367.597332,-0.072530,0.076894,-0.073632,0.991668,-0.022948,-0.022671,0.003136,-0.000273,0.001315,0.004534,0.141826,0.155176,-0.977653
1760108367.599318,-0.072752,0.076634,-0.073509,0.991681,-0.026669,-0.033724,0.010934,0.000430,-0.000811,-0.000556,0.141297,0.155561,-0.977669
1760108367.627636,-0.073071,0.076353,-0.073315,0.991693,-0.032633,-0.030722,0.021133,0.000107,-0.002354,-0.003665,0.140724,0.156123,-0.977662
1760108367.636493,-0.073470,0.076089,-0.073023,0.991706,-0.037762,-0.033432,0.025479,-0.001755,-0.005714,-0.003615,0.140187,0.156833,-0.977625
1760108367.664747,-0.073855,0.075776,-0.072710,0.991724,-0.039883,-0.038746,0.025290,-0.002005,-0.006988,-0.003124,0.139557,0.157507,-0.977607
1760108367.679012,-0.074247,0.075470,-0.072431,0.991738,-0.042323,-0.025938,0.022655,-0.001264,-0.008645,-0.006633,0.138938,0.158199,-0.977583
1760108367.708993,-0.074633,0.075334,-0.072185,0.991738,-0.038157,-0.017137,0.017440,-0.001940,-0.007416,-0.005301,0.138649,0.158908,-0.977509
1760108367.740261,-0.074981,0.075280,-0.072020,0.991728,-0.043420,-0.002720,0.008820,-0.000352,-0.002195,-0.006619,0.138515,0.159564,-0.977422
1760108367.740553,-0.075407,0.075370,-0.071900,0.991697,-0.058981,0.013762,0.006415,-0.001783,0.002855,-0.006485,0.138644,0.160399,-0.977266
1760108367.783911,-0.075961,0.075558,-0.071841,0.991645,-0.059693,0.012466,-0.000961,-0.002617,0.003890,-0.002462,0.138939,0.161510,-0.977042
1760108367.784203,-0.076516,0.075747,-0.071782,0.991592,-0.060405,0.011170,-0.008337,-0.003451,0.004925,0.001559,0.139235,0.162620,-0.976816
1760108367.813778,-0.077038,0.075864,-0.071804,0.991541,-0.053971,0.008347,-0.007262,-0.001487,0.005835,0.000894,0.139381,0.163667,-0.976620
1760108367.814866,-0.077531,0.075961,-0.071840,0.991493,-0.042711,0.007582,-0.007098,-0.000778,0.005047,0.002614,0.139490,0.164656,-0.976438
1760108367.845138,-0.077893,0.076009,-0.071846,0.991460,-0.024103,0.004320,-0.003196,-0.000274,0.002584,0.001522,0.139527,0.165377,-0.976311
1760108367.875879,-0.078064,0.075950,-0.071867,0.991450,-0.006057,-0.004534,-0.005142,-0.000111,0.004004,-0.000670,0.139381,0.165709,-0.976275
1760108367.877277,-0.078111,0.075917,-0.071900,0.991446,0.003512,-0.008138,-0.001770,-0.000504,0.005596,0.003015,0.139303,0.165804,-0.976270
1760108367.911974,-0.078084,0.075818,-0.071882,0.991457,0.003166,-0.007378,0.002856,-0.001118,0.006440,0.000568,0.139115,0.165735,-0.976309
1760108367.914082,-0.078060,0.075710,-0.071829,0.991471,0.005094,-0.007744,0.005213,0.001820,0.006566,-0.002373,0.138914,0.165664,-0.976349
1760108367.951965,-0.078084,0.075682,-0.071793,0.991474,-0.001626,0.003737,0.003695,0.001497,0.005908,-0.002659,0.138862,0.165704,-0.976350
1760108367.954059,-0.078175,0.075755,-0.071764,0.991463,-0.009302,0.009452,0.004661,-0.000141,0.006539,-0.002660,0.138997,0.165888,-0.976300
1760108367.982640,-0.078350,0.075907,-0.071723,0.991441,-0.012084,0.008418,0.002138,-0.000876,0.003491,0.001494,0.139275,0.166248,-0.976199
1760108368.013287,-0.078506,0.075973,-0.071723,0.991424,-0.011693,0.009948,-0.004398,0.002139,0.001075,-0.000952,0.139382,0.166563,-0.976130
1760108368.014649,-0.078614,0.076060,-0.071777,0.991404,-0.004505,0.009929,-0.007693,0.002910,0.000213,-0.002090,0.139528,0.166796,-0.976069
1760108368.044086,-0.078665,0.076214,-0.071892,0.991380,0.000140,0.016912,-0.011617,0.001328,0.002144,0.002626,0.139804,0.166932,-0.976006
1760108368.073747,-0.078671,0.076303,-0.072010,0.991364,0.001413,0.009266,-0.008859,0.002159,0.004141,0.001604,0.139959,0.166973,-0.975977
1760108368.075786,-0.078726,0.076385,-0.072070,0.991349,-0.006689,0.004697,-0.001709,0.001442,0.004929,0.003820,0.140100,0.167101,-0.975935
1760108368.108192,-0.078855,0.076443,-0.072055,0.991336,-0.018383,0.002988,0.000864,0.002550,0.004796,0.002590,0.140198,0.167360,-0.975877
1760108368.111942,-0.079081,0.076455,-0.072037,0.991318,-0.026994,-0.003232,-0.001552,0.003593,0.003294,-0.000596,0.140188,0.167804,-0.975802
1760108368.140533,-0.079430,0.076482,-0.072035,0.991288,-0.036523,0.001132,-0.003829,0.003444,0.000330,0.000501,0.140188,0.168495,-0.975683
1760108368.174193,-0.079836,0.076485,-0.072106,0.991250,-0.036152,-0.003524,-0.015111,0.003381,-0.000926,0.000965,0.140119,0.169306,-0.975552
1760108368.180355,-0.080207,0.076471,-0.072279,0.991209,-0.031541,-0.008659,-0.023895,0.002670,-0.000384,0.000193,0.140003,0.170058,-0.975438
1760108368.211112,-0.080557,0.076422,-0.072517,0.991167,-0.029906,-0.009031,-0.029359,0.000790,0.001213,0.001178,0.139811,0.170774,-0.975341
1760108368.211458,-0.080866,0.076331,-0.072773,0.991130,-0.029767,-0.011547,-0.025943,0.000948,0.004528,0.001200,0.139538,0.171408,-0.975268
1760108368.242084,-0.081177,0.076268,-0.072969,0.991095,-0.029048,-0.008599,-0.020541,0.000318,0.004036,0.001603,0.139331,0.172039,-0.975187
1760108368.301257,-0.081421,0.076165,-0.073122,0.991071,-0.020240,-0.013909,-0.018510,0.001062,0.004139,0.001324,0.139062,0.172528,-0.975139
1760108368.301588,-0.081666,0.076062,-0.073274,0.991048,-0.011432,-0.019219,-0.016480,0.001807,0.004241,0.001044,0.138794,0.173016,-0.975091
1760108368.314822,-0.081858,0.075946,-0.073398,0.991032,-0.015010,-0.007128,-0.009295,0.001794,0.005246,-0.002437,0.138513,0.173396,-0.975063
1760108368.333428,-0.082045,0.075835,-0.073440,0.991022,-0.008821,-0.018280,-0.004307,-0.002167,0.003995,0.001727,0.138258,0.173756,-0.975035
1760108368.333743,-0.082169,0.075621,-0.073461,0.991026,-0.004619,-0.025163,-0.001873,0.000374,0.004645,-0.000879,0.137812,0.173974,-0.975059
1760108368.362010,-0.082249,0.075390,-0.073417,0.991041,-0.003460,-0.025269,0.007943,0.000667,0.003456,-0.000361,0.137352,0.174093,-0.975103
1760108368.395817,-0.082277,0.075175,-0.073304,0.991063,0.006152,-0.020655,0.010705,0.002693,0.001051,-0.004282,0.136943,0.174105,-0.975158
1760108368.397899,-0.082207,0.075021,-0.073182,0.991089,0.014846,-0.011756,0.012222,0.001981,0.001003,-0.005774,0.136674,0.173930,-0.975227
1760108368.426725,-0.082082,0.074941,-0.073034,0.991117,0.012896,-0.000244,0.017379,0.001731,0.003115,-0.006075,0.136560,0.173652,-0.975293
1760108368.432759,-0.081985,0.074949,-0.072852,0.991138,0.012819,-0.001768,0.017444,-0.000113,0.002410,-0.002671,0.136625,0.173437,-0.975322
1760108368.463149,-0.081879,0.074963,-0.072690,0.991157,0.006929,0.000426,0.013949,-0.000046,0.000985,-0.001091,0.136697,0.173208,-0.975353
1760108368.492450,-0.081825,0.074972,-0.072579,0.991169,0.003526,-0.000923,0.006679,-0.001326,-0.000889,0.001076,0.136743,0.173087,-0.975368
1760108368.492799,-0.081818,0.074929,-0.072554,0.991175,0.001844,-0.004824,-0.001145,-0.002199,-0.001104,0.001464,0.136663,0.173064,-0.975383
1760108368.521241,-0.081845,0.074816,-0.072585,0.991179,-0.000285,-0.011982,-0.006771,-0.002874,0.000646,-0.000179,0.136431,0.173107,-0.975408
1760108368.551931,-0.081881,0.074683,-0.072662,0.991180,-0.003170,-0.011627,-0.005371,-0.002243,0.003655,-0.001656,0.136150,0.173171,-0.975436
1760108368.554027,-0.081997,0.074590,-0.072674,0.991177,-0.010352,-0.012085,0.000138,-0.003427,0.003618,0.000087,0.135945,0.173388,-0.975426
1760108368.582881,-0.082133,0.074480,-0.072612,0.991178,-0.013326,-0.014858,0.004991,-0.004803,0.000868,-0.002964,0.135718,0.173633,-0.975414
1760108368.619690,-0.082243,0.074327,-0.072569,0.991184,-0.006457,-0.005616,0.001823,0.000671,0.000361,-0.009152,0.135408,0.173823,-0.975423
1760108368.620931,-0.082310,0.074370,-0.072518,0.991179,-0.004110,0.013924,0.004714,0.000441,-0.001214,-0.007348,0.135490,0.173954,-0.975388
1760108368.653377,-0.082366,0.074585,-0.072502,0.991159,-0.004494,0.028337,0.004508,-0.001637,-0.002063,-0.002726,0.135908,0.174090,-0.975306
1760108368.653787,-0.082360,0.074817,-0.072549,0.991139,0.005326,0.021197,-0.005991,-0.001236,-0.001943,0.000136,0.136357,0.174115,-0.975239
1760108368.681705,-0.082272,0.075039,-0.072671,0.991120,0.008014,0.029254,-0.010932,-0.000299,-0.000402,-0.000355,0.136788,0.173989,-0.975201
1760108368.713324,-0.082139,0.075290,-0.072836,0.991100,0.014570,0.028895,-0.015254,0.000018,0.000669,0.000680,0.137274,0.173783,-0.975169
1760108368.742711,-0.081931,0.075481,-0.072995,0.991091,0.017455,0.023449,-0.011131,0.000067,0.003139,0.000824,0.137655,0.173422,-0.975180
1760108368.743047,-0.081724,0.075671,-0.073154,0.991082,0.020340,0.018002,-0.007008,0.000115,0.005608,0.000967,0.138036,0.173061,-0.975190
1760108368.773131,-0.081532,0.075848,-0.073228,0.991079,0.016813,0.012989,0.001666,0.001114,0.006260,0.002036,0.138401,0.172718,-0.975199
1760108368.775190,-0.081385,0.075973,-0.073193,0.991084,0.010022,0.009269,0.011135,0.001591,0.004288,0.001313,0.138678,0.172439,-0.975209
1760108368.804168,-0.081304,0.076029,-0.073087,0.991094,0.007063,0.006128,0.013221,0.002323,0.002447,-0.000533,0.138820,0.172273,-0.975218
1760108368.811462,-0.081275,0.076059,-0.072987,0.991102,0.004741,0.001748,0.007226,0.003029,0.000699,-0.001995,0.138901,0.172206,-0.975219
1760108368.851049,-0.081279,0.076112,-0.072936,0.991101,0.004426,0.004256,0.002196,0.003342,-0.000888,-0.000818,0.139013,0.172214,-0.975201
1760108368.852203,-0.081240,0.076194,-0.072956,0.991096,0.005690,0.010991,-0.004112,0.004707,-0.001924,-0.000997,0.139177,0.172152,-0.975189
1760108368.882174,-0.081143,0.076312,-0.073043,0.991089,0.013784,0.011984,-0.009599,0.004067,-0.001495,-0.000009,0.139410,0.171988,-0.975185
1760108368.911243,-0.080972,0.076456,-0.073184,0.991081,0.019714,0.013227,-0.011360,0.003397,-0.000299,0.001116,0.139696,0.171690,-0.975196
1760108368.913231,-0.080730,0.076568,-0.073324,0.991082,0.025620,0.006273,-0.010267,0.001959,0.001004,0.002616,0.139932,0.171249,-0.975240
1760108368.953177,-0.080465,0.076586,-0.073436,0.991094,0.025935,-0.000235,-0.005670,0.002881,0.002804,0.000790,0.139991,0.170744,-0.975320
1760108368.955180,-0.080216,0.076592,-0.073478,0.991111,0.023956,-0.005641,0.002803,0.001124,0.001970,0.001980,0.140034,0.170261,-0.975398
1760108368.984521,-0.079961,0.076468,-0.073477,0.991141,0.027832,-0.015539,0.001163,0.000433,0.000759,0.000763,0.139831,0.169742,-0.975518
1760108368.991436,-0.079702,0.076258,-0.073459,0.991179,0.028581,-0.024489,0.002395,0.001326,0.001251,-0.000868,0.139461,0.169202,-0.975665
1760108369.021649,-0.079509,0.076043,-0.073394,0.991216,0.023957,-0.020021,0.009482,0.001695,-0.000364,-0.001402,0.139079,0.168783,-0.975792
1760108369.064615,-0.079329,0.075989,-0.073261,0.991244,0.021499,-0.012389,0.013303,0.000698,-0.000108,-0.000926,0.139024,0.168404,-0.975865
1760108369.064893,-0.079150,0.075935,-0.073129,0.991273,0.019042,-0.004758,0.017123,-0.000299,0.000148,-0.000449,0.138969,0.168024,-0.975938
1760108369.069330,-0.079010,0.075941,-0.072952,0.991296,0.010223,-0.002818,0.017422,-0.002273,0.000323,0.001650,0.139033,0.167725,-0.975981
1760108369.097618,-0.078931,0.075876,-0.072788,0.991320,0.007649,-0.014075,0.012181,-0.002198,0.000116,0.000856,0.138944,0.167537,-0.976025
1760108369.128265,-0.078891,0.075733,-0.072650,0.991344,0.000136,-0.014367,0.010724,-0.001994,0.002241,0.000036,0.138693,0.167421,-0.976081
1760108369.129760,-0.078905,0.075583,-0.072508,0.991365,-0.002782,-0.017176,0.012907,-0.001750,0.002084,0.000669,0.138418,0.167407,-0.976123
1760108369.160812,-0.078961,0.075408,-0.072363,0.991384,-0.001085,-0.019170,0.010723,-0.002795,0.000132,0.003880,0.138089,0.167475,-0.976158
1760108369.189914,-0.078964,0.075157,-0.072255,0.991411,0.004098,-0.023252,0.007269,-0.001300,-0.000317,-0.001618,0.137612,0.167433,-0.976232
1760108369.191954,-0.078950,0.074953,-0.072163,0.991434,0.005972,-0.015665,0.009000,-0.000857,0.000460,-0.001129,0.137227,0.167366,-0.976298
1760108369.221678,-0.078922,0.074791,-0.072067,0.991455,0.004385,-0.012052,0.009260,-0.002408,0.001325,-0.001238,0.136928,0.167275,-0.976355
1760108369.252662,-0.078910,0.074624,-0.071967,0.991476,0.006305,-0.019752,0.007564,-0.001746,-0.000136,-0.000560,0.136619,0.167216,-0.976409
1760108369.253302,-0.078870,0.074456,-0.071917,0.991496,0.002894,-0.005702,0.002816,0.000785,-0.000066,-0.004820,0.136301,0.167109,-0.976472
1760108369.289900,-0.078858,0.074469,-0.071900,0.991497,-0.001305,0.007832,0.003703,0.000123,0.000949,-0.002743,0.136333,0.167084,-0.976471
1760108369.291807,-0.078864,0.074618,-0.071873,0.991487,0.000517,0.013571,0.000991,-0.000540,-0.002666,0.000368,0.136629,0.167112,-0.976425
1760108369.320643,-0.078804,0.074741,-0.071943,0.991478,0.008547,0.013257,-0.009355,-0.000487,-0.002723,-0.001587,0.136870,0.167019,-0.976407
1760108369.350424,-0.078676,0.074880,-0.072090,0.991467,0.013989,0.019678,-0.014894,-0.000191,-0.001916,-0.002308,0.137139,0.166806,-0.976406
1760108369.352225,-0.078527,0.075047,-0.072301,0.991451,0.016525,0.021872,-0.020387,-0.000010,-0.001182,-0.002142,0.137455,0.166563,-0.976403
1760108369.384799,-0.078340,0.075214,-0.072564,0.991433,0.017919,0.019758,-0.023077,0.000069,0.000004,-0.000351,0.137771,0.166254,-0.976411
1760108369.415080,-0.078161,0.075362,-0.072844,0.991416,0.014784,0.019268,-0.025536,0.000644,0.001191,-0.001431,0.138044,0.165960,-0.976423
1760108369.415197,-0.078011,0.075520,-0.073129,0.991395,0.011944,0.019654,-0.023139,0.001230,0.001028,-0.001287,0.138330,0.165725,-0.976422
1760108369.453708,-0.077901,0.075689,-0.073388,0.991371,0.011064,0.020677,-0.021399,0.001541,-0.000463,-0.000700,0.138638,0.165567,-0.976405
1760108369.455528,-0.077773,0.075871,-0.073628,0.991349,0.015365,0.021376,-0.023670,0.001410,-0.002789,0.001358,0.138976,0.165373,-0.976390
1760108369.486843,-0.077601,0.076018,-0.073913,0.991330,0.019874,0.018766,-0.023887,0.000261,-0.002789,0.002336,0.139247,0.165094,-0.976399
1760108369.490325,-0.077388,0.076096,-0.074213,0.991319,0.022154,0.011986,-0.023571,0.000374,-0.000150,0.000833,0.139385,0.164727,-0.976441
1760108369.520415,-0.077178,0.076162,-0.074444,0.991313,0.018133,0.007414,-0.015072,0.000462,0.003122,0.000639,0.139510,0.164355,-0.976486
1760108369.550583,-0.077011,0.076215,-0.074570,0.991312,0.014021,0.005730,-0.004325,0.000655,0.002353,-0.000212,0.139620,0.164052,-0.976521
1760108369.550925,-0.076840,0.076293,-0.074600,0.991317,0.014658,0.004431,0.001654,0.000849,-0.001260,0.000124,0.139796,0.163728,-0.976550
1760108369.581863,-0.076665,0.076340,-0.074594,0.991328,0.018240,0.005684,0.003291,0.000499,-0.003342,0.001126,0.139919,0.163389,-0.976589
1760108369.621039,-0.076506,0.076383,-0.074656,0.991332,0.014621,0.007421,-0.001515,-0.000125,-0.003031,0.001218,0.140019,0.163090,-0.976625
1760108369.621362,-0.076347,0.076426,-0.074717,0.991336,0.011003,0.009159,-0.006321,-0.000748,-0.002720,0.001310,0.140120,0.162791,-0.976660
1760108369.650218,-0.076234,0.076446,-0.074832,0.991335,0.005769,0.004456,-0.011083,-0.001067,-0.001154,0.000799,0.140157,0.162587,-0.976689
1760108369.653995,-0.076191,0.076348,-0.074970,0.991335,-0.000368,-0.017599,-0.011475,-0.000608,0.001103,0.000623,0.139950,0.162509,-0.976732
1760108369.684049,-0.076230,0.076206,-0.075023,0.991339,-0.010829,-0.011097,0.001032,0.001479,0.003629,-0.003344,0.139653,0.162574,-0.976763
1760108369.687981,-0.076358,0.076218,-0.074921,0.991336,-0.021253,0.007713,0.013578,0.003028,0.001850,-0.006752,0.139674,0.162814,-0.976720
1760108369.716335,-0.076592,0.076396,-0.074726,0.991319,-0.032807,0.019734,0.019174,0.001392,0.000999,-0.003664,0.140018,0.163271,-0.976595
1760108369.774137,-0.076951,0.076553,-0.074560,0.991292,-0.034298,0.009234,0.008913,0.001157,0.000208,-0.002419,0.140298,0.163977,-0.976436
1760108369.774399,-0.077310,0.076710,-0.074394,0.991264,-0.035790,-0.001265,-0.001347,0.000923,-0.000583,-0.001173,0.140578,0.164682,-0.976277
1760108369.774510,-0.077684,0.076751,-0.074396,0.991231,-0.038513,-0.002195,-0.010868,0.001380,0.001848,-0.002644,0.140597,0.165426,-0.976149
1760108369.802838,-0.078064,0.076750,-0.074455,0.991197,-0.034035,-0.002395,-0.013293,-0.000349,0.000419,-0.000551,0.140525,0.166182,-0.976031
1760108369.809160,-0.078355,0.076718,-0.074553,0.991169,-0.020563,-0.007414,-0.012962,-0.001819,0.000225,0.001862,0.140397,0.166765,-0.975950
1760108369.842505,-0.078480,0.076570,-0.074658,0.991163,-0.005667,-0.014493,-0.010995,-0.002458,0.002621,0.000218,0.140068,0.167007,-0.975956
1760108369.849131,-0.078489,0.076431,-0.074718,0.991169,0.001210,-0.011712,-0.002877,0.000902,0.005139,-0.001731,0.139782,0.167013,-0.975996
1760108369.879053,-0.078472,0.076357,-0.074713,0.991176,0.000884,0.000749,0.005388,0.001377,0.003787,-0.002844,0.139640,0.166969,-0.976024
1760108369.907787,-0.078457,0.076416,-0.074663,0.991176,0.008187,-0.000445,0.003045,-0.000387,-0.003303,-0.000851,0.139768,0.166940,-0.976010
1760108369.908092,-0.078324,0.076417,-0.074719,0.991183,0.017306,0.008603,-0.010254,0.001601,-0.004100,-0.004069,0.139782,0.166686,-0.976052
1760108369.966128,-0.078156,0.076553,-0.074791,0.991180,0.018304,0.011845,-0.005256,-0.000331,-0.002903,-0.000649,0.140065,0.166385,-0.976063
1760108369.966456,-0.077988,0.076689,-0.074863,0.991177,0.019303,0.015088,-0.000259,-0.002264,-0.001707,0.002771,0.140347,0.166083,-0.976073
1760108369.967855,-0.077749,0.076754,-0.074887,0.991189,0.022860,0.007265,0.006088,-0.002585,0.000052,0.000599,0.140510,0.165624,-0.976128
1760108369.996785,-0.077506,0.076808,-0.074817,0.991209,0.015480,0.011444,0.014051,-0.000707,-0.000029,-0.000720,0.140669,0.165142,-0.976187
1760108370.027126,-0.077343,0.076905,-0.074684,0.991224,0.009470,0.006174,0.016449,-0.000449,-0.000427,0.000223,0.140908,0.164816,-0.976207
1760108370.028196,-0.077275,0.076959,-0.074551,0.991236,0.003416,0.005820,0.010878,0.000485,-0.003293,-0.001560,0.141047,0.164670,-0.976212
1760108370.064485,-0.077296,0.077040,-0.074493,0.991232,-0.004558,0.007719,-0.001412,0.001949,-0.005106,-0.002392,0.141213,0.164714,-0.976180
1760108370.066478,-0.077381,0.077136,-0.074576,0.991212,-0.013289,0.011380,-0.013128,0.002720,-0.004809,-0.002662,0.141375,0.164906,-0.976124
1760108370.095645,-0.077559,0.077243,-0.074766,0.991175,-0.018182,0.012275,-0.021966,0.002362,-0.003525,-0.001005,0.141526,0.165300,-0.976036
1760108370.128250,-0.077762,0.077363,-0.075018,0.991131,-0.025039,0.012350,-0.027518,0.000977,-0.000709,-0.000785,0.141687,0.165752,-0.975936
1760108370.129595,-0.078005,0.077497,-0.075262,0.991083,-0.029782,0.012222,-0.023023,0.000842,0.002071,0.001144,0.141870,0.166284,-0.975819
1760108370.159531,-0.078280,0.077547,-0.075459,0.991042,-0.027316,-0.003046,-0.016397,0.001162,0.003338,0.000368,0.141891,0.166861,-0.975717
1760108370.188754,-0.078529,0.077524,-0.075522,0.991020,-0.025050,-0.001469,-0.001961,0.003435,0.004012,0.000440,0.141795,0.167356,-0.975646
1760108370.190736,-0.078731,0.077505,-0.075494,0.991007,-0.016613,-0.006533,0.005046,0.001658,0.002566,0.003511,0.141728,0.167749,-0.975589
1760108370.220330,-0.078846,0.077379,-0.075411,0.991014,-0.009131,-0.019716,0.006664,0.001212,0.004066,0.003445,0.141476,0.167945,-0.975592
1760108370.227735,-0.078963,0.077188,-0.075281,0.991030,-0.009257,-0.021050,0.010492,0.001686,0.003337,0.001658,0.141102,0.168131,-0.975614
1760108370.257002,-0.079082,0.077018,-0.075138,0.991044,-0.007357,-0.022121,0.015873,0.000605,0.001516,0.000987,0.140772,0.168322,-0.975629
1760108370.288184,-0.079172,0.076811,-0.074951,0.991067,-0.001323,-0.032294,0.016956,0.000160,0.002487,0.000202,0.140383,0.168444,-0.975663
1760108370.290391,-0.079233,0.076566,-0.074724,0.991099,-0.007867,-0.017593,0.025728,-0.000399,0.002431,-0.002503,0.139928,0.168497,-0.975720
1760108370.344897,-0.079306,0.076330,-0.074449,0.991131,-0.008132,-0.018776,0.024243,0.000481,0.001200,-0.003646,0.139498,0.168570,-0.975769
1760108370.345228,-0.079379,0.076094,-0.074175,0.991164,-0.008396,-0.019958,0.022757,0.001361,-0.000031,-0.004790,0.139068,0.168643,-0.975817
1760108370.346598,-0.079475,0.075998,-0.073936,0.991182,-0.008701,-0.004083,0.021455,0.002389,-0.005207,-0.006243,0.138904,0.168785,-0.975816
1760108370.375125,-0.079544,0.076112,-0.073771,0.991180,-0.006824,0.017351,0.007889,0.002518,-0.005719,-0.007743,0.139146,0.168915,-0.975759
1760108370.405804,-0.079618,0.076363,-0.073750,0.991156,-0.016946,0.030508,0.002749,0.001731,-0.000534,-0.005672,0.139632,0.169091,-0.975659
1760108370.407109,-0.079824,0.076768,-0.073729,0.991110,-0.028742,0.034370,0.000830,0.000072,-0.001028,-0.000765,0.140401,0.169548,-0.975470
1760108370.437194,-0.080066,0.077109,-0.073812,0.991058,-0.029250,0.028432,-0.014571,0.000476,-0.001991,0.002368,0.141020,0.170082,-0.975287
1760108370.470721,-0.080267,0.077372,-0.073968,0.991009,-0.025687,0.020349,-0.019274,0.002465,-0.001887,0.001628,0.141479,0.170536,-0.975142
1760108370.471004,-0.080474,0.077558,-0.074172,0.990963,-0.018602,0.017914,-0.021738,0.002807,-0.003800,0.003408,0.141776,0.171000,-0.975017
1760108370.513293,-0.080572,0.077654,-0.074422,0.990929,-0.005991,0.004539,-0.023179,0.001035,-0.002227,0.002088,0.141906,0.171240,-0.974956
1760108370.514737,-0.080587,0.077632,-0.074660,0.990911,0.000335,-0.009507,-0.023708,0.001572,0.004511,-0.000904,0.141820,0.171300,-0.974958
1760108370.544666,-0.080626,0.077590,-0.074851,0.990897,-0.014368,0.004025,-0.011625,0.005282,0.007908,-0.002799,0.141697,0.171399,-0.974959
1760108370.546555,-0.080785,0.077592,-0.074885,0.990881,-0.018934,0.001999,-0.001830,0.002710,0.004538,-0.003224,0.141671,0.171718,-0.974906
1760108370.574964,-0.080964,0.077604,-0.074887,0.990866,-0.010783,-0.013029,-0.005572,0.001368,0.000649,-0.001328,0.141664,0.172072,-0.974845
1760108370.606022,-0.081111,0.077557,-0.074975,0.990851,-0.012427,0.007441,-0.011511,0.005419,0.000579,-0.007523,0.141532,0.172367,-0.974812
1760108370.608024,-0.081251,0.077681,-0.075054,0.990823,-0.010169,0.008473,-0.004704,0.002830,0.003867,-0.002212,0.141741,0.172671,-0.974728
1760108370.626623,-0.081365,0.077846,-0.075062,0.990800,-0.001853,0.001081,-0.002125,-0.001995,0.002070,0.004801,0.142045,0.172921,-0.974639
1760108370.656555,-0.081306,0.077780,-0.075054,0.990811,0.011327,-0.006739,0.002544,0.000049,0.003483,0.003337,0.141926,0.172794,-0.974679
1760108370.686177,-0.081165,0.077707,-0.074962,0.990835,0.018347,-0.009061,0.011340,0.000256,0.002479,0.002423,0.141820,0.172492,-0.974748
1760108370.688030,-0.080963,0.077640,-0.074834,0.990867,0.024290,-0.011038,0.014568,-0.000252,0.002893,0.002531,0.141744,0.172068,-0.974834
1760108370.744723,-0.080772,0.077442,-0.074671,0.990910,0.020799,-0.014719,0.014592,0.000590,0.002050,0.000408,0.141414,0.171641,-0.974957
1760108370.745003,-0.080580,0.077244,-0.074509,0.990953,0.017309,-0.018400,0.014616,0.001431,0.001208,-0.001714,0.141083,0.171213,-0.975080
1760108370.746536,-0.080444,0.077052,-0.074394,0.990988,0.013745,-0.017556,0.007143,0.000627,-0.000244,-0.002925,0.140746,0.170902,-0.975184
1760108370.775784,-0.080398,0.076886,-0.074316,0.991011,0.004413,-0.015582,0.004640,-0.000244,0.000593,-0.001431,0.140440,0.170778,-0.975249
1760108370.806134,-0.080397,0.076714,-0.074275,0.991027,0.000356,-0.012462,-0.000425,0.000081,0.000119,-0.001383,0.140108,0.170748,-0.975302
1760108370.808198,-0.080411,0.076583,-0.074246,0.991038,0.001529,-0.012355,0.000540,0.000023,0.000034,-0.000390,0.139854,0.170753,-0.975338
1760108370.843711,-0.080392,0.076474,-0.074209,0.991051,0.002130,-0.006135,0.002558,0.000006,0.000009,-0.000110,0.139647,0.170696,-0.975378
1760108370.845517,-0.080339,0.076394,-0.074173,0.991064,0.009606,-0.015209,0.000757,-0.001575,-0.000525,0.003784,0.139505,0.170574,-0.975419
1760108370.876947,-0.080258,0.076211,-0.074190,0.991084,0.007216,-0.013104,0.000341,-0.000865,0.000522,0.000450,0.139155,0.170392,-0.975501
1760108370.906411,-0.080183,0.076024,-0.074166,0.991106,0.006996,-0.018983,0.002639,-0.001825,0.002252,0.000282,0.138802,0.170217,-0.975582
1760108370.906711,-0.080145,0.075845,-0.074100,0.991127,0.005743,-0.012844,0.007771,-0.001166,0.000842,-0.000035,0.138467,0.170108,-0.975649
1760108370.935067,-0.080054,0.075702,-0.074014,0.991152,0.012473,-0.014559,0.005372,-0.001466,-0.001497,-0.001114,0.138213,0.169897,-0.975721
1760108370.965779,-0.079896,0.075553,-0.073968,0.991180,0.019748,-0.011552,0.006388,-0.000443,0.000666,-0.002398,0.137954,0.169560,-0.975817
1760108370.966964,-0.079739,0.075452,-0.073918,0.991204,0.013221,-0.004707,0.006076,-0.000246,0.000756,-0.003246,0.137789,0.169230,-0.975897
1760108370.997062,-0.079609,0.075340,-0.073866,0.991227,0.014533,-0.012366,0.004901,-0.002970,0.000642,-0.000836,0.137598,0.168951,-0.975973
1760108371.026599,-0.079476,0.075147,-0.073839,0.991254,0.010607,-0.019393,0.002127,-0.001914,0.000016,-0.002944,0.137242,0.168659,-0.976073
1760108371.027612,-0.079408,0.075050,-0.073790,0.991270,0.003676,-0.000154,0.005566,-0.000150,-0.001708,-0.006280,0.137070,0.168505,-0.976124
1760108371.069467,-0.079345,0.075106,-0.073754,0.991274,0.005327,0.014518,0.004503,0.000253,-0.001616,-0.005675,0.137198,0.168383,-0.976127
1760108371.071570,-0.079293,0.075328,-0.073696,0.991265,0.002742,0.025859,0.009550,-0.001934,0.001306,0.000155,0.137653,0.168305,-0.976077
1760108371.102144,-0.079285,0.075549,-0.073571,0.991259,-0.009124,0.021880,0.017760,-0.002951,0.002765,0.001090,0.138110,0.168300,-0.976013
1760108371.104220,-0.079369,0.075740,-0.073422,0.991248,-0.011555,0.009867,0.012337,-0.001956,0.002193,0.001063,0.138500,0.168472,-0.975928
1760108371.132582,-0.079496,0.075821,-0.073291,0.991242,-0.018362,0.015216,0.009538,0.000037,0.000931,-0.002239,0.138661,0.168713,-0.975863
1760108371.163167,-0.079630,0.075972,-0.073196,0.991226,-0.011096,0.013605,0.004134,0.000518,-0.001003,-0.001477,0.138953,0.168983,-0.975775
1760108371.165297,-0.079697,0.076056,-0.073214,0.991213,0.001529,0.009613,-0.003744,0.000559,-0.002018,-0.001785,0.139106,0.169130,-0.975728
1760108371.204413,-0.079630,0.076143,-0.073298,0.991206,0.013343,0.008977,-0.009689,0.000978,-0.000797,-0.001356,0.139273,0.169022,-0.975723
1760108371.206511,-0.079497,0.076310,-0.073434,0.991193,0.012297,0.024261,-0.011580,0.002701,0.000602,0.000509,0.139600,0.168801,-0.975714
1760108371.235289,-0.079362,0.076457,-0.073565,0.991183,0.007807,0.016564,-0.010048,0.001170,0.001079,-0.000885,0.139889,0.168574,-0.975712
1760108371.265772,-0.079225,0.076554,-0.073695,0.991177,0.017620,0.004425,-0.011646,0.002630,-0.001051,0.001767,0.140081,0.168336,-0.975726
1760108371.267117,-0.079036,0.076624,-0.073870,0.991174,0.013973,0.015373,-0.012647,0.006133,0.000637,-0.002423,0.140218,0.167997,-0.975764
1760108371.296271,-0.078877,0.076776,-0.073999,0.991165,0.011483,0.018646,-0.002681,0.002805,0.002462,0.001046,0.140522,0.167723,-0.975768
1760108371.327075,-0.078748,0.076964,-0.074028,0.991158,0.015645,0.005845,0.000185,0.000156,0.001335,0.004868,0.140909,0.167498,-0.975751
1760108371.329238,-0.078567,0.076964,-0.074073,0.991169,0.017717,0.000117,-0.000920,0.000726,0.000101,0.001323,0.140930,0.167149,-0.975807
1760108371.357719,-0.078388,0.076942,-0.074063,0.991186,0.019211,-0.004930,0.004409,0.001112,0.000263,-0.000070,0.140917,0.166792,-0.975870
1760108371.388328,-0.078178,0.076914,-0.073998,0.991210,0.017162,-0.003173,0.007316,0.000791,-0.001207,-0.000930,0.140905,0.166364,-0.975945
1760108371.402698,-0.077990,0.076839,-0.073960,0.991233,0.019804,-0.008194,0.006667,0.000926,0.001115,-0.001772,0.140794,0.165979,-0.976027
1760108371.406468,-0.077844,0.076763,-0.073897,0.991255,0.014671,-0.004179,0.004301,0.000052,-0.000774,-0.001464,0.140679,0.165671,-0.976096
1760108371.436508,-0.077700,0.076697,-0.073859,0.991275,0.013252,-0.004251,0.002690,0.001256,-0.001148,-0.004893,0.140578,0.165374,-0.976160
1760108371.466869,-0.077606,0.076706,-0.073810,0.991285,0.006300,0.000150,0.003194,0.000013,-0.002397,0.001019,0.140618,0.165183,-0.976187
1760108371.467157,-0.077544,0.076671,-0.073785,0.991294,0.003385,0.000517,-0.000041,-0.000954,-0.001913,-0.001437,0.140564,0.165051,-0.976217
1760108371.498351,-0.077530,0.076709,-0.073780,0.991293,-0.000596,0.000588,-0.000247,-0.000195,-0.002686,-0.000224,0.140642,0.165029,-0.976210
1760108371.530640,-0.077537,0.076687,-0.073792,0.991293,-0.000488,-0.001971,-0.002147,-0.000234,-0.002792,-0.003184,0.140596,0.165041,-0.976214
1760108371.530917,-0.077554,0.076724,-0.073855,0.991284,-0.002512,0.003696,-0.006439,-0.000519,-0.003846,0.000417,0.140656,0.165089,-0.976198
1760108371.559542,-0.077536,0.076718,-0.073960,0.991278,0.000291,0.002816,-0.012201,0.000480,-0.002767,-0.002403,0.140629,0.165068,-0.976205
1760108371.566531,-0.077530,0.076753,-0.074060,0.991268,-0.002193,0.003656,-0.011921,0.000727,-0.001403,-0.000960,0.140682,0.165074,-0.976196
1760108371.596857,-0.077547,0.076783,-0.074188,0.991255,-0.006470,0.008449,-0.009420,0.001121,-0.000078,-0.000625,0.140718,0.165131,-0.976182
1760108371.629145,-0.077580,0.076895,-0.074293,0.991236,-0.005540,0.010037,-0.009657,0.001080,-0.001981,0.000623,0.140914,0.165225,-0.976137
1760108371.629422,-0.077614,0.076978,-0.074392,0.991220,-0.002435,0.004927,-0.008993,0.002987,-0.001926,0.000094,0.141057,0.165319,-0.976101
1760108371.657578,-0.077613,0.077045,-0.074523,0.991205,-0.003981,0.009041,-0.013790,0.002456,0.000669,-0.003556,0.141166,0.165344,-0.976081
1760108371.665355,-0.077681,0.077155,-0.074641,0.991182,-0.012642,0.010463,-0.003131,0.001096,-0.000035,0.000386,0.141353,0.165510,-0.976025
1760108371.695275,-0.077784,0.077196,-0.074662,0.991169,-0.007480,-0.008579,-0.004135,-0.001832,0.000679,0.004088,0.141414,0.165721,-0.975981
1760108371.758768,-0.077900,0.077135,-0.074553,0.991173,-0.010441,-0.001554,0.002931,-0.000279,-0.000080,0.001527,0.141293,0.165926,-0.975964
1760108371.759094,-0.078016,0.077074,-0.074445,0.991177,-0.013403,0.005470,0.009997,0.001274,-0.000839,-0.001034,0.141172,0.166131,-0.975946
1760108371.759416,-0.078132,0.077012,-0.074337,0.991180,-0.016365,0.012495,0.017062,0.002827,-0.001598,-0.003595,0.141050,0.166336,-0.975929
1760108371.764494,-0.078326,0.077142,-0.074169,0.991167,-0.025173,0.022460,0.015829,0.002626,-0.000443,-0.003204,0.141302,0.166712,-0.975828
1760108371.795765,-0.078580,0.077397,-0.074004,0.991140,-0.026649,0.013039,0.009610,-0.001769,-0.003324,0.001865,0.141793,0.167224,-0.975670
1760108371.825037,-0.078805,0.077497,-0.073988,0.991115,-0.018177,0.003523,-0.009826,-0.000631,-0.001196,0.000933,0.141955,0.167678,-0.975568
1760108371.827002,-0.079009,0.077468,-0.074111,0.991092,-0.019882,-0.004223,-0.014222,0.000359,0.004176,0.001155,0.141845,0.168094,-0.975512
1760108371.857065,-0.079225,0.077438,-0.074201,0.991071,-0.021747,-0.006522,-0.007611,-0.001808,0.004376,0.003648,0.141737,0.168527,-0.975453
1760108371.862317,-0.079403,0.077333,-0.074192,0.991065,-0.014623,-0.010673,0.000654,-0.002188,0.003819,0.002552,0.141501,0.168863,-0.975430
1760108371.891163,-0.079473,0.077178,-0.074153,0.991075,-0.001709,-0.016508,0.003270,-0.001043,0.003298,-0.000799,0.141192,0.168973,-0.975455
1760108371.922381,-0.079498,0.077028,-0.074078,0.991090,-0.001554,-0.012254,0.009826,0.001176,0.004842,-0.000158,0.140905,0.168992,-0.975493
1760108371.924219,-0.079584,0.076960,-0.073964,0.991097,-0.007080,-0.004883,0.007766,-0.000489,0.001228,-0.000156,0.140777,0.169135,-0.975487
1760108371.956564,-0.079645,0.076829,-0.073918,0.991106,0.004028,-0.022552,-0.004334,0.000707,-0.000600,-0.001540,0.140516,0.169232,-0.975508
1760108371.962670,-0.079648,0.076717,-0.073938,0.991113,0.001659,-0.003633,-0.004138,0.002805,0.001324,-0.003328,0.140292,0.169224,-0.975542
1760108371.994523,-0.079629,0.076689,-0.073958,0.991115,0.001424,0.005903,0.005741,0.001852,0.002751,-0.003389,0.140236,0.169187,-0.975556
1760108372.023695,-0.079621,0.076774,-0.073872,0.991115,0.007652,0.001035,0.006763,-0.001147,-0.000708,0.000847,0.140420,0.169170,-0.975533
1760108372.024106,-0.079514,0.076778,-0.073800,0.991129,0.006277,0.000946,0.004270,0.000420,-0.000938,-0.000258,0.140458,0.168950,-0.975565
1760108372.055872,-0.079452,0.076789,-0.073773,0.991135,0.002875,0.000802,0.002180,0.003184,-0.002387,-0.002847,0.140494,0.168826,-0.975582
1760108372.069273,-0.079435,0.076851,-0.073801,0.991129,0.000025,0.005043,-0.006685,0.002784,-0.002950,0.001605,0.140614,0.168803,-0.975568
1760108372.098064,-0.079453,0.076816,-0.073961,0.991119,-0.004590,0.000157,-0.015525,0.001702,-0.000362,-0.001222,0.140514,0.168857,-0.975573
1760108372.101715,-0.079577,0.076817,-0.074109,0.991098,-0.016127,-0.001945,-0.016524,0.002329,0.000443,-0.001083,0.140471,0.169123,-0.975533
1760108372.130070,-0.079768,0.076825,-0.074189,0.991076,-0.023762,0.001827,-0.006392,0.002355,0.000036,-0.001611,0.140443,0.169511,-0.975470
1760108372.178378,-0.080009,0.076826,-0.074235,0.991053,-0.025818,-0.000633,-0.003508,0.002837,0.001466,0.001163,0.140397,0.169993,-0.975393
1760108372.178664,-0.080251,0.076826,-0.074280,0.991030,-0.027873,-0.003093,-0.000624,0.003318,0.002896,0.003936,0.140352,0.170475,-0.975315
1760108372.180844,-0.080544,0.076746,-0.074238,0.991015,-0.028403,-0.011821,-0.005418,0.003377,0.000795,-0.000013,0.140155,0.171035,-0.975245
1760108372.207831,-0.080849,0.076630,-0.074225,0.991000,-0.028777,-0.018098,-0.003813,0.001174,-0.001235,-0.000993,0.139878,0.171619,-0.975182
1760108372.237752,-0.081076,0.076456,-0.074238,0.990994,-0.018778,-0.020204,-0.004224,0.001226,0.000038,-0.000609,0.139498,0.172043,-0.975162
1760108372.241746,-0.081254,0.076322,-0.074212,0.990992,-0.011720,-0.017556,0.000960,0.000749,0.001028,-0.001228,0.139208,0.172373,-0.975145
1760108372.270066,-0.081362,0.076149,-0.074182,0.990999,-0.007795,-0.017979,0.004643,0.001857,0.001408,-0.002894,0.138856,0.172557,-0.975163
