quat_x,quat_y,quat_z,quat_w,rot_x,rot_y,rot_z,acc_x,acc_y,acc_z,grav_x,grav_y,grav_z,pitch_rad
0.060728,-0.630807,-0.0,0.77356,-0.024504,-0.008226,-0.010933,1.008535,0.400533,-0.753392,-0.975934,-0.093953,-0.196789,-1.35096445384269
-0.003343,-0.480398,0.104155,0.870838,-0.024856,-0.007057,-0.007761,0.86829,0.201671,-0.411293,-0.836001,0.105893,-0.538414,-0.9899550000139844
-0.067256,-0.30739,0.20341,0.927153,-0.025209,-0.005888,-0.004589,0.574612,0.058783,-0.147257,-0.542634,0.249766,-0.801976,-0.5735698159023052
-0.128006,-0.119923,0.293097,0.939855,-0.025562,-0.004719,-0.001417,0.182051,-0.001379,-0.010294,-0.150385,0.310912,-0.938466,-0.15095679299246387
-0.152773,-0.036287,0.328028,0.931526,-0.02426,-0.001003,0.002554,-0.002805,0.00234,0.001887,0.032622,0.30843,-0.950687,0.03262886473687263
-0.152697,-0.036457,0.328034,0.93153,-0.019426,7.8e-05,0.002269,-0.001956,0.002774,0.001955,0.032258,0.308403,-0.950709,0.03226363411377785
-0.152622,-0.036626,0.328039,0.931534,-0.014592,0.001159,0.001985,-0.001107,0.003209,0.002023,0.031895,0.308375,-0.95073,0.031900618280458544
-0.152935,-0.036994,0.327976,0.93149,-0.001491,-0.000396,-0.001649,-0.000627,0.004884,0.001951,0.031399,0.30918,-0.950485,0.03140409862360581
-0.153061,-0.037135,0.32792,0.931484,-0.00194,0.001803,-0.003205,-0.000447,0.004646,0.001649,0.031202,0.309501,-0.950387,0.03120727474293466
-0.153187,-0.037276,0.327864,0.931477,-0.002388,0.004002,-0.004762,-0.000267,0.004408,0.001346,0.031005,0.309822,-0.950289,0.03101050180751965
-0.153555,-0.037429,0.327685,0.931473,0.004292,0.008222,-0.007601,0.000322,0.001319,0.002451,0.030907,0.310594,-0.95004,0.030912057310760833
-0.153748,-0.037432,0.327596,0.931473,0.006618,0.013821,-0.00731,0.001004,0.001065,0.001895,0.031001,0.310949,-0.949921,0.031005632578824962
-0.153996,-0.037468,0.327405,0.931497,0.007822,0.009901,-0.00869,0.000195,0.001173,0.000246,0.031035,0.311429,-0.949762,0.031040445954183562
-0.154043,-0.037429,0.327331,0.931517,0.008429,0.008263,-0.008112,0.000113,0.000679,0.000142,0.031116,0.311491,-0.94974,0.03111962150366932
-0.15409,-0.037389,0.327257,0.931537,0.009035,0.006625,-0.007534,3.1e-05,0.000185,3.9e-05,0.031196,0.311552,-0.949717,0.03120065043219279
-0.15407,-0.03725,0.327135,0.931589,0.012209,0.00262,-0.001776,0.000195,-0.001511,0.000745,0.031401,0.311432,-0.94975,0.031405160547224274
-0.154017,-0.037203,0.327134,0.9316,0.011747,0.001965,0.000163,0.000388,-0.001655,0.000722,0.031451,0.311305,-0.949789,0.031456952684143134
-0.153963,-0.037157,0.327133,0.931611,0.011284,0.00131,0.002101,0.000582,-0.001798,0.0007,0.031501,0.311178,-0.949829,0.03150622844850354
-0.153839,-0.037122,0.327182,0.931616,0.011277,0.000941,0.00566,-0.000252,-0.001654,0.00027,0.0315,0.310929,-0.949911,0.03150501663512771
-0.153749,-0.03709,0.327213,0.931621,0.008813,-0.001354,0.005251,-7.3e-05,-0.001182,-0.000196,0.031509,0.310744,-0.949971,0.0315149137500346
-0.153659,-0.037058,0.327243,0.931627,0.006349,-0.003648,0.004842,0.000106,-0.000709,-0.000663,0.031519,0.310559,-0.950032,0.03152441871918661
-0.153469,-0.036942,0.327387,0.931612,0.012888,-0.001533,0.006491,-0.000829,-0.000866,0.000736,0.031657,0.310135,-0.950165,0.03166157962095554
-0.153372,-0.036911,0.32745,0.931607,0.011211,-0.003479,0.006846,-0.000924,-0.000271,0.000785,0.03167,0.309937,-0.95023,0.031675527462497355
-0.153274,-0.03688,0.327513,0.931602,0.009534,-0.005425,0.007201,-0.001019,0.000324,0.000833,0.031683,0.309739,-0.950294,0.03168879487858687
-0.153118,-0.036767,0.327598,0.931602,0.009865,0.003677,0.003898,-0.000163,0.000987,0.000978,0.031817,0.30938,-0.950406,0.03182325072465271
-0.15308,-0.036716,0.327641,0.931596,0.009402,0.005391,0.004541,0.000692,0.000439,0.002047,0.031902,0.309276,-0.950437,0.03190702468057143
-0.153042,-0.036664,0.327683,0.931589,0.008939,0.007104,0.005184,0.001547,-0.00011,0.003115,0.031987,0.309172,-0.950468,0.03199242235521532
-0.153046,-0.036383,0.327797,0.931559,0.005606,0.014716,0.013793,0.000214,-0.000656,-2.9e-05,0.03255,0.308995,-0.950506,0.03255596778832345
-0.153045,-0.036305,0.32787,0.931537,0.006974,0.013297,0.013018,0.000237,-0.001313,0.001603,0.032719,0.308941,-0.950518,0.032724667245930414
-0.153044,-0.036227,0.327944,0.931514,0.008342,0.011878,0.012243,0.00026,-0.001969,0.003235,0.032888,0.308886,-0.95053,0.03289373922221084
-0.152967,-0.035966,0.328091,0.931485,0.017208,0.016651,0.015423,-0.00109,-0.004803,0.001049,0.033372,0.308574,-0.950615,0.03337680965336552
-0.152719,-0.035731,0.328225,0.931487,0.022305,0.015572,0.01202,-0.001015,-0.002227,0.000687,0.033687,0.307967,-0.9508,0.03369283792025775
-0.152471,-0.035495,0.328359,0.93149,0.027402,0.014494,0.008617,-0.00094,0.00035,0.000324,0.034003,0.30736,-0.950986,0.034010531454528224
-0.152058,-0.035214,0.328473,0.931528,0.025663,0.005886,-0.000724,-0.001453,0.000835,-0.00094,0.034288,0.306427,-0.951276,0.034294963127357934
-0.151828,-0.03515,0.328442,0.931579,0.025322,0.003852,-0.004429,-0.000739,0.000262,0.002233,0.034243,0.305969,-0.951425,0.03425007613567856
-0.151677,-0.035059,0.328386,0.931626,0.021528,0.005864,-0.004331,-0.000707,-0.000713,0.002775,0.034293,0.305638,-0.95153,0.03430018008747336
-0.151525,-0.034969,0.328331,0.931674,0.017734,0.007875,-0.004232,-0.000674,-0.001688,0.003318,0.034342,0.305307,-0.951635,0.03434804684369381
-0.151445,-0.034894,0.328289,0.931705,0.013321,0.0075,-0.002391,0.000126,-0.002081,0.002426,0.034414,0.305115,-0.951693,0.034420422955750526
-0.151365,-0.034819,0.328247,0.931735,0.008908,0.007125,-0.000549,0.000927,-0.002475,0.001535,0.034486,0.304923,-0.951752,0.034492891681164414
-0.151359,-0.034656,0.32822,0.931752,0.001063,0.007698,0.002122,-0.001277,-0.001917,0.000991,0.034777,0.304808,-0.951779,0.034783520970041254
-0.151397,-0.034577,0.328252,0.931737,-0.000479,0.004551,0.003865,0.000136,-0.000773,0.000717,0.03496,0.304825,-0.951767,0.03496652050116913
-0.151407,-0.03455,0.328289,0.931724,-0.003104,0.005231,0.006043,0.00025,-0.000681,0.000695,0.035027,0.304823,-0.951765,0.035035544032273346
-0.151445,-0.034517,0.328316,0.931709,-0.006169,0.002623,0.005215,0.000186,-0.000685,4.5e-05,0.035124,0.30487,-0.951746,0.03513126022016873
-0.151483,-0.034484,0.328343,0.931695,-0.009233,1.6e-05,0.004386,0.000122,-0.000689,-0.000605,0.03522,0.304916,-0.951728,0.03522690984455979
-0.151573,-0.034536,0.328447,0.931641,-0.006982,0.000879,0.009719,0.001455,-0.001389,-0.000303,0.035218,0.30511,-0.951666,0.03522437080144228
-0.15164,-0.034545,0.328519,0.931605,-0.009568,0.002677,0.009883,0.001065,-0.001318,0.000501,0.035268,0.305234,-0.951624,0.03527596861519158
-0.151706,-0.034555,0.328591,0.931568,-0.012153,0.004476,0.010047,0.000675,-0.001247,0.001304,0.035319,0.305358,-0.951582,0.03532513438746133
-0.151818,-0.034487,0.328812,0.931474,-0.001801,-0.005239,0.017776,0.000979,-0.001549,0.000117,0.035592,0.305509,-0.951524,0.03559919143653656
-0.151711,-0.034378,0.329118,0.931388,0.004047,0.022841,0.021714,0.002667,0.000977,0.006137,0.035823,0.305232,-0.951604,0.0358307948454605
-0.151781,-0.034255,0.329215,0.931346,-4.8e-05,0.016653,0.018014,-0.000489,0.00138,0.000573,0.03613,0.305276,-0.951578,0.036138514959854456
-0.151791,-0.034149,0.329317,0.931313,0.000486,0.010498,0.016466,-0.000708,0.000514,0.000359,0.036369,0.30522,-0.951587,0.03637591983786023
-0.151766,-0.033937,0.329549,0.931243,0.00808,0.008499,0.015123,-0.000114,0.000689,0.000683,0.036822,0.305029,-0.951631,0.036829805324785754
-0.151708,-0.033817,0.329644,0.931223,0.008462,0.009915,0.012935,-0.000147,0.000892,0.000884,0.037038,0.304843,-0.951682,0.037045400221864644
-0.15165,-0.033697,0.329739,0.931203,0.008845,0.011331,0.010747,-0.000181,0.001095,0.001084,0.037253,0.304656,-0.951734,0.03726096517968171
-0.151592,-0.033577,0.329833,0.931183,0.009227,0.012746,0.00856,-0.000214,0.001297,0.001285,0.037468,0.304469,-0.951785,0.0374761968105022
-0.151563,-0.033478,0.329894,0.93117,0.008362,0.012722,0.008271,-0.000221,0.001339,0.001326,0.037651,0.30435,-0.951816,0.037660932196920766
-0.151547,-0.033262,0.329992,0.931146,0.001513,0.013391,0.011496,-0.000573,0.002042,0.000637,0.038075,0.304178,-0.951854,0.03808424436909088
-0.15158,-0.033188,0.33005,0.931122,-0.000193,0.009209,0.008492,-0.000975,0.002813,-0.000208,0.038255,0.304186,-0.951844,0.03826314008367201
-0.151626,-0.03314,0.330083,0.931105,-0.00083,0.010894,0.006162,-0.000717,0.002785,0.001249,0.038384,0.304238,-0.951822,0.03839412267219896
-0.151672,-0.033093,0.330115,0.931088,-0.001466,0.012579,0.003832,-0.00046,0.002757,0.002707,0.038513,0.30429,-0.951801,0.03852294160192561
-0.151666,-0.032838,0.330084,0.931109,0.013559,0.012381,-0.004147,0.000155,0.001793,0.000712,0.038973,0.304113,-0.951838,0.03898339833356416
-0.151544,-0.032637,0.329958,0.931181,0.022373,0.014758,-0.011166,0.000914,0.000305,-0.000156,0.039224,0.303768,-0.951938,0.0392344668214581
-0.151399,-0.032472,0.32987,0.931241,0.020126,0.010968,-0.006258,0.000725,-0.000896,-0.000431,0.039405,0.303401,-0.952048,0.039415665958335996
-0.151319,-0.032372,0.329817,0.931276,0.015606,0.008332,-0.003812,0.000916,-0.001842,1.6e-05,0.039521,0.303194,-0.952109,0.03953091888288441
-0.15124,-0.032271,0.329763,0.931312,0.011086,0.005696,-0.001365,0.001106,-0.002787,0.000463,0.039637,0.302986,-0.95217,0.0396483601400956
-0.151198,-0.032192,0.329762,0.931321,0.009491,0.004887,0.002135,0.000748,-0.003518,0.000305,0.039757,0.30286,-0.952206,0.03976701902464273
-0.151086,-0.032009,0.329841,0.931318,0.010335,0.006305,0.011753,0.001293,-0.003917,5e-06,0.040047,0.302533,-0.952297,0.04005831145232754
-0.151027,-0.03194,0.32992,0.931302,0.007582,0.00635,0.011489,0.001023,-0.003082,-0.0,0.040162,0.302379,-0.952341,0.04017288862433555
-0.150957,-0.031785,0.330068,0.931266,0.004361,0.00444,0.007917,-0.000151,-0.001686,0.00138,0.040452,0.302145,-0.952403,0.040462610680086095
-0.150922,-0.031718,0.330097,0.931264,0.004355,0.006538,0.006925,0.000184,-0.001131,0.001705,0.040562,0.302036,-0.952433,0.04057326673192245
-0.150887,-0.031651,0.330125,0.931262,0.004348,0.008635,0.005933,0.000519,-0.000576,0.002031,0.040672,0.301928,-0.952463,0.04068361665712175
-0.150819,-0.031496,0.33019,0.931255,0.004616,0.008149,0.000703,-0.000372,-0.000183,0.000766,0.040936,0.301701,-0.952523,0.04094767821368285
-0.150826,-0.031344,0.33013,0.93128,-0.000952,0.008689,-0.000806,-0.000177,0.001193,0.001302,0.041205,0.301618,-0.952538,0.04121596243643028
-0.150871,-0.031269,0.330101,0.931286,-0.002149,0.010331,-0.004619,0.000209,-0.000206,0.000823,0.041365,0.301652,-0.95252,0.0413763771546803
-0.150914,-0.031228,0.330053,0.931298,-0.002344,0.010598,-0.005238,9.5e-05,-9.3e-05,0.000373,0.041454,0.301705,-0.9525,0.04146597092434909
-0.150979,-0.031043,0.329971,0.931322,0.004525,0.010143,-0.003896,0.000391,-0.000599,0.000669,0.041815,0.301708,-0.952483,0.041827520956488395
-0.150958,-0.030953,0.329942,0.931339,0.006783,0.009925,-0.0033,0.001,-0.000395,0.000566,0.041959,0.301611,-0.952507,0.04197161863717643
-0.150937,-0.030862,0.329912,0.931356,0.009041,0.009708,-0.002703,0.001609,-0.000192,0.000462,0.042104,0.301515,-0.952531,0.04211728797681132
-0.150821,-0.030651,0.329837,0.931408,0.017187,0.010104,-0.001744,0.002038,0.000679,0.001052,0.042396,0.301171,-0.952627,0.04240822956448126
-0.150714,-0.030495,0.329821,0.931436,0.019139,0.009501,-0.002014,0.001833,-1.7e-05,0.001118,0.04261,0.300877,-0.952711,0.042621906259425885
-0.150608,-0.030339,0.329806,0.931464,0.021092,0.008899,-0.002284,0.001627,-0.000713,0.001185,0.042824,0.300583,-0.952794,0.04283657095211536
-0.150511,-0.030225,0.329798,0.931486,0.017491,0.006661,-0.002399,0.002429,-0.000151,0.000644,0.042969,0.300333,-0.952866,0.042981357572850515
-0.150294,-0.030046,0.329768,0.931538,0.009424,0.002394,-0.001205,0.001814,0.0007,-0.000223,0.043145,0.299825,-0.953018,0.04315972021722656
-0.150238,-0.029996,0.329784,0.931542,0.01083,-0.000917,0.000559,0.00174,0.001146,0.00022,0.043207,0.29969,-0.953058,0.043220564389421186
-0.150173,-0.029961,0.32977,0.931559,0.010141,-0.000237,-0.002154,0.001662,0.001618,0.000687,0.043224,0.29955,-0.953101,0.043237692893439865
-0.149977,-0.029849,0.329725,0.93161,0.017321,0.004091,-0.004491,0.001353,0.003968,0.002978,0.043287,0.299125,-0.953232,0.04330060862829185
-0.149875,-0.029802,0.329692,0.93164,0.021456,0.003924,-0.006606,0.00196,0.003398,0.002169,0.043296,0.298909,-0.953299,0.04330924429433073
-0.14957,-0.029661,0.329591,0.931729,0.027178,0.003456,-0.010132,-0.000449,0.002362,0.001159,0.043322,0.29827,-0.953498,0.043335386384533034
-0.149397,-0.029582,0.329518,0.931785,0.03031,0.005445,-0.011618,0.000573,0.00082,0.000174,0.04333,0.297908,-0.953611,0.043343443500208585
-0.149234,-0.029487,0.329461,0.931835,0.03252,-0.000133,-0.007174,-6.5e-05,-0.000957,-0.000976,0.043379,0.297551,-0.95372,0.043393145138531625
-0.148701,-0.029307,0.329425,0.931938,0.043607,-0.000219,-0.000687,0.000963,-0.001917,0.001896,0.043347,0.296468,-0.954059,0.04336062601007539
-0.148456,-0.029206,0.329443,0.931974,0.04353,-0.002172,0.003116,0.0009,-0.002417,0.000545,0.043378,0.295957,-0.954216,0.04339072913438943
-0.148211,-0.029104,0.329461,0.93201,0.043452,-0.004125,0.00692,0.000837,-0.002917,-0.000805,0.043409,0.295445,-0.954373,0.04342269497776727
-0.147562,-0.028954,0.329543,0.932088,0.046009,-0.010545,0.004746,0.000345,-0.000717,0.000619,0.043281,0.294165,-0.954774,0.043294220199141496
-0.147258,-0.02891,0.329589,0.932121,0.041648,-0.009438,0.004417,0.000812,-0.001878,0.001088,0.043175,0.293582,-0.954958,0.04318742164635703
-0.146681,-0.02889,0.329686,0.932179,0.02046,-0.017867,0.001333,0.000332,-0.002072,-0.000647,0.042856,0.292516,-0.9553,0.042869171088469084
-0.14652,-0.028991,0.329709,0.932193,0.00959,-0.025453,-0.002334,-0.000291,-0.00228,-0.000541,0.042568,0.292288,-0.955383,0.042580376665980045
-0.14646,-0.029111,0.329723,0.932194,0.003339,-0.022407,-0.002615,0.000374,-0.00206,0.000822,0.042308,0.292255,-0.955404,0.04232089415729705
-0.146427,-0.02946,0.329712,0.932192,-0.015402,-0.018237,-0.00372,0.00097,-0.001863,0.002043,0.041634,0.292423,-0.955382,0.04164476168665058
-0.146601,-0.029711,0.329743,0.932145,-0.021322,-0.015852,0.002947,0.001164,-0.002236,0.002451,0.041291,0.292902,-0.955251,0.04130312939627575
-0.146737,-0.029868,0.3298,0.932099,-0.022842,-0.012924,0.005545,0.000236,-0.001649,0.001044,0.041107,0.293248,-0.955152,0.04111944587678215
-0.146873,-0.030026,0.329857,0.932052,-0.024363,-0.009996,0.008143,-0.000692,-0.001063,-0.000363,0.040923,0.293595,-0.955054,0.04093401812508217
-0.146976,-0.030166,0.329913,0.932012,-0.022657,-0.011882,0.007291,-0.000464,-2e-05,-0.00056,0.040748,0.29387,-0.954976,0.04075972331652231
-0.14719,-0.030479,0.330029,0.931927,-0.022902,-0.018154,-0.001331,-0.000714,0.001946,-0.000376,0.040345,0.294459,-0.954812,0.040356484465405296
-0.147291,-0.030634,0.33002,0.931909,-0.02209,-0.018846,-0.006079,-0.000574,0.001992,0.000532,0.040122,0.294742,-0.954734,0.04013252319733054
-0.147364,-0.030804,0.330013,0.931894,-0.021312,-0.017821,-0.007537,-0.000302,0.001222,0.000621,0.039851,0.294987,-0.95467,0.03986250211930656
-0.147497,-0.031026,0.329949,0.931888,-0.027833,-0.017121,-0.012046,-0.000675,0.000462,0.000736,0.039508,0.295376,-0.954564,0.03951774582292538
-0.14763,-0.031248,0.329885,0.931883,-0.034354,-0.016421,-0.016556,-0.001048,-0.000298,0.000851,0.039164,0.295765,-0.954458,0.039172902939852705
-0.147764,-0.031469,0.32982,0.931877,-0.040875,-0.015721,-0.021065,-0.001421,-0.001058,0.000966,0.03882,0.296153,-0.954351,0.03883032762309491
-0.148265,-0.032138,0.329585,0.931858,-0.034451,-0.030664,-0.013912,-0.001288,-0.004072,0.002094,0.037836,0.297509,-0.953969,0.037844768308375125
-0.148622,-0.032546,0.329418,0.931845,-0.032424,0.004805,-0.013045,-0.001566,-0.002505,0.004266,0.037261,0.298427,-0.953705,0.037270497331731066
-0.148838,-0.032633,0.329331,0.931839,-0.036356,-0.004735,-0.01636,-0.002499,-0.001895,-1.6e-05,0.037217,0.298881,-0.953564,0.0372251271921109
-0.149029,-0.032794,0.329216,0.931843,-0.034383,-0.007397,-0.01586,-0.002123,-0.001175,0.000168,0.037007,0.299335,-0.95343,0.03701619652292708
-0.149482,-0.033218,0.32891,0.931864,-0.041279,-0.019557,-0.029059,-0.000975,0.00173,-0.001783,0.036422,0.300445,-0.953104,0.03643099064006925
-0.149625,-0.033415,0.328757,0.931888,-0.036052,-0.017812,-0.029948,-0.001009,0.000884,-0.000137,0.036103,0.300837,-0.952992,0.03611030439484271
-0.149972,-0.033871,0.3283,0.931976,-0.027878,-0.01267,-0.035714,-0.00285,0.00028,0.001123,0.035338,0.301781,-0.952722,0.03534505581880796
-0.150083,-0.034003,0.3281,0.932024,-0.025015,-0.013342,-0.040828,-0.002828,0.001922,0.001038,0.035101,0.302075,-0.952638,0.03510845247803018
-0.150356,-0.034418,0.327412,0.932207,-0.021989,-0.007279,-0.051514,-0.002039,0.001325,0.002871,0.034287,0.302864,-0.952417,0.034294037991379145
-0.150463,-0.034547,0.327116,0.932289,-0.021086,-0.00345,-0.053537,-0.001441,-0.000678,0.002456,0.034022,0.303152,-0.952335,0.0340287001391351
-0.150705,-0.034867,0.326313,0.932519,-0.021055,-0.001192,-0.056417,-0.001215,-0.001134,0.000943,0.033326,0.303825,-0.952145,0.03333189308054793
-0.15082,-0.03499,0.32599,0.932609,-0.02061,0.00163,-0.05577,-0.000655,-0.000948,0.000847,0.033067,0.304125,-0.952058,0.033073675155975035
-0.150972,-0.035081,0.325628,0.932708,-0.021781,0.00184,-0.054128,-0.001058,-0.000832,0.000664,0.03288,0.304472,-0.951954,0.03288668982965717
-0.151123,-0.035172,0.325266,0.932806,-0.022952,0.00205,-0.052487,-0.00146,-0.000717,0.00048,0.032693,0.304818,-0.951849,0.03269886888626708
-0.151472,-0.035435,0.324442,0.933026,-0.024072,-0.00652,-0.041997,1.5e-05,-0.000186,4.4e-05,0.032164,0.305647,-0.951601,0.032169753049658675
-0.151611,-0.035583,0.324178,0.93309,-0.027456,-0.007652,-0.039553,0.000204,-0.002554,0.0006,0.031894,0.306003,-0.951496,0.03189902809944406
-0.151943,-0.035909,0.323699,0.93319,-0.02659,-0.008377,-0.023923,-0.001195,-0.002086,-0.000253,0.031347,0.306831,-0.951248,0.0313528913100535
-0.152075,-0.036072,0.323561,0.93321,-0.031438,-0.012938,-0.020127,-0.000951,-0.000535,0.000103,0.031086,0.307179,-0.951144,0.031090584487746098
-0.152252,-0.036216,0.323472,0.933206,-0.037527,-0.01193,-0.015844,-0.000565,-0.001107,0.000902,0.030905,0.307594,-0.951016,0.030909462451197696
-0.152795,-0.036644,0.323338,0.933147,-0.045638,-0.015621,-0.000226,-0.002141,-0.0027,-4.6e-05,0.030421,0.308857,-0.950622,0.030425075874033026
-0.153029,-0.036888,0.323333,0.933101,-0.049391,-0.019928,0.003495,-0.001741,-0.001044,0.001275,0.030119,0.309436,-0.950443,0.030122747193876292
-0.153732,-0.037473,0.32341,0.932935,-0.063385,-0.023131,0.006292,-0.003169,0.000867,-0.000506,0.029517,0.311082,-0.949925,0.029521473622826998
-0.154013,-0.037705,0.323439,0.93287,-0.069161,-0.023507,0.00422,-0.002804,0.001762,0.000137,0.02928,0.311738,-0.949717,0.02928407999750412
-0.155133,-0.038653,0.323342,0.932679,-0.063936,-0.027617,-0.017251,-0.001142,0.003742,0.00131,0.028221,0.314374,-0.94888,0.02822409326490248
-0.155614,-0.039119,0.323154,0.932645,-0.052882,-0.020738,-0.026708,-0.001764,0.00376,0.002786,0.027605,0.315547,-0.948508,0.027609801298745806
-0.155983,-0.039498,0.322883,0.932661,-0.040108,-0.016267,-0.029373,-0.001697,0.003112,0.002239,0.027053,0.316464,-0.948219,0.027055330210416926
-0.156243,-0.039808,0.322561,0.932715,-0.031881,-0.013498,-0.038759,-0.000719,0.00271,0.001412,0.026537,0.317142,-0.948007,0.026539874722531526
-0.156451,-0.04013,0.322155,0.932807,-0.027831,-0.009293,-0.038435,0.000108,0.000469,0.001721,0.025936,0.317732,-0.947826,0.02593876257594666
-0.156658,-0.040451,0.321749,0.932899,-0.023781,-0.005089,-0.038111,0.000936,-0.001771,0.00203,0.025335,0.318322,-0.947644,0.02533842606188533
-0.156815,-0.040611,0.321464,0.932963,-0.018136,-0.008741,-0.02522,0.000343,-0.000659,0.000725,0.025044,0.318715,-0.94752,0.025046252099070257
-0.157002,-0.040848,0.321145,0.933031,-0.019472,-0.013615,-0.031133,0.000953,-0.001831,0.002008,0.024616,0.319212,-0.947363,0.02461840065648133
-0.157127,-0.041055,0.320885,0.933091,-0.011105,-0.01095,-0.02449,0.000336,-0.000645,0.000707,0.024223,0.319575,-0.947251,0.02422566231421048
-0.157164,-0.041219,0.320708,0.933138,-0.008198,-0.014306,-0.014944,5.9e-05,-0.002149,0.002179,0.023881,0.319749,-0.947201,0.02388374439554573
-0.15722,-0.041424,0.320568,0.933168,-0.012774,-0.008649,-0.018566,0.001552,-0.000944,0.001212,0.023488,0.319983,-0.947132,0.023490459742328978
-0.157276,-0.041544,0.320411,0.933207,-0.006897,-0.006647,-0.016796,0.002057,-0.000768,-0.001676,0.023248,0.320165,-0.947077,0.023249712201290837
-0.157218,-0.041636,0.32028,0.933258,-0.002237,-0.007293,-0.015366,0.001885,0.000273,-0.000645,0.022994,0.32012,-0.947098,0.02299532844837782
-0.157143,-0.041749,0.320131,0.933316,-0.00054,-0.01235,-0.01938,0.001751,0.001082,0.000156,0.022683,0.320058,-0.947126,0.022684617601262533
-0.157067,-0.041862,0.319982,0.933375,0.001157,-0.017406,-0.023394,0.001617,0.001891,0.000957,0.022372,0.319995,-0.947155,0.02237320356396761
-0.156999,-0.042032,0.319765,0.933453,-0.002751,-0.01852,-0.031838,0.001445,0.002257,0.00066,0.021935,0.319983,-0.947169,0.021937537029164754
-0.156968,-0.042248,0.319482,0.933546,-0.003761,-0.017279,-0.033373,0.000872,0.000787,0.000671,0.021417,0.320068,-0.947153,0.02141763573066974
-0.156917,-0.042512,0.31915,0.933656,-0.002974,-0.024439,-0.041822,0.000425,0.000383,0.000327,0.020776,0.320148,-0.94714,0.020778448485195763
-0.156803,-0.04283,0.318692,0.933817,0.000962,-0.033928,-0.066198,0.000296,0.003732,-0.003294,0.019953,0.320149,-0.947157,0.019954283316517836
-0.156688,-0.043148,0.318233,0.933978,0.004898,-0.043416,-0.090573,0.000168,0.007081,-0.006915,0.019129,0.320149,-0.947174,0.019129185742252485
-0.156513,-0.043731,0.317426,0.934255,-0.006633,-0.057767,-0.117976,0.001226,0.004172,-0.004633,0.017651,0.32021,-0.947182,0.017651696911411982
-0.156338,-0.044449,0.316407,0.934596,-0.005078,-0.059303,-0.129688,0.001471,0.003429,-0.000612,0.01585,0.320353,-0.947166,0.015849823539603364
-0.15619,-0.045235,0.315245,0.934976,-0.014999,-0.059024,-0.151262,0.003012,0.006206,-0.000144,0.013889,0.320588,-0.947117,0.013889400955718965
-0.156091,-0.046007,0.313941,0.935393,-0.011002,-0.053703,-0.144905,0.001594,0.003385,0.001718,0.011937,0.3209,-0.947038,0.011937761299994987
-0.155934,-0.046666,0.312736,0.93579,0.001005,-0.04245,-0.12988,0.000596,0.002311,0.004481,0.010193,0.321031,-0.947014,0.010193375090678919
-0.155713,-0.047152,0.31164,0.936168,0.008651,-0.034158,-0.112099,4.1e-05,0.002544,0.003558,0.008769,0.320936,-0.94706,0.008768523931835396
-0.155478,-0.04754,0.310747,0.936484,0.016714,-0.027221,-0.091166,-0.001019,0.002003,0.003645,0.007588,0.32075,-0.947133,0.00758781822321096
-0.155194,-0.047796,0.310015,0.936761,0.018277,-0.020824,-0.081834,-0.001266,0.002607,0.003605,0.006678,0.320394,-0.947261,0.006678127945738579
-0.154932,-0.047973,0.309385,0.937003,0.020458,-0.010366,-0.060877,-0.001029,-0.000489,0.005566,0.005965,0.320029,-0.947389,0.005965619186621733
-0.154657,-0.048017,0.308888,0.937211,0.02844,0.00386,-0.044357,-0.001325,-0.000905,0.00612,0.005539,0.319556,-0.947551,0.0055392899856395224
-0.154379,-0.047869,0.308566,0.93737,0.03515,0.013036,-0.020699,-0.001422,-0.00108,0.003365,0.00553,0.318961,-0.947752,0.005530320158248697
-0.15408,-0.047638,0.308439,0.937473,0.036824,0.012885,-0.007008,-0.00199,-0.000157,0.000983,0.00573,0.318278,-0.94798,0.005729916045989826
-0.153779,-0.047466,0.308351,0.93756,0.028809,0.006743,-0.011146,-0.001561,0.001683,8.4e-05,0.005832,0.317626,-0.948198,0.005831403987690718
-0.153593,-0.047447,0.308103,0.937673,0.021746,0.001819,-0.019907,-0.00185,0.001579,0.000406,0.005666,0.317278,-0.948316,0.005665416803049026
-0.153408,-0.047428,0.307856,0.937785,0.014683,-0.003106,-0.028668,-0.002139,0.001475,0.000728,0.005501,0.316929,-0.948433,0.005500640274809982
-0.153261,-0.047468,0.307591,0.937894,0.008416,-0.003188,-0.026176,-0.001718,0.002009,0.00191,0.005243,0.316687,-0.948516,0.005243527746068638
-0.153189,-0.047524,0.307414,0.937961,0.006398,-0.003797,-0.01892,-0.00156,0.002436,0.002984,0.005034,0.316589,-0.948549,0.005033590620016309
-0.153117,-0.047579,0.307237,0.938028,0.004379,-0.004407,-0.011664,-0.001402,0.002862,0.004059,0.004826,0.316491,-0.948583,0.004825565762067201
-0.153066,-0.047586,0.307159,0.938062,0.003223,0.003291,-0.00101,-0.001966,0.000425,0.002446,0.004755,0.316404,-0.948613,0.004753980230898555
-0.153024,-0.047578,0.30721,0.938052,0.006802,-0.007291,0.013945,-0.002938,0.000715,0.00021,0.004759,0.316323,-0.94864,0.004759747940153581
-0.152901,-0.047571,0.307408,0.938008,0.017488,0.000784,0.017013,-0.000957,0.001237,0.003899,0.004762,0.316093,-0.948716,0.004762042078153158
-0.152779,-0.047449,0.307555,0.937986,0.013178,0.007881,0.013315,-0.002566,0.001461,0.001213,0.004963,0.315795,-0.948814,0.004962915635183322
-0.152658,-0.047383,0.307645,0.937979,0.01412,0.001315,0.00937,-0.002,0.001166,-0.000148,0.005042,0.315534,-0.948901,0.005040444248959689
-0.152519,-0.047341,0.307744,0.937971,0.013243,-0.000356,0.009355,-0.001721,-0.000188,0.000496,0.005064,0.315256,-0.948993,0.005064665702126038
-0.15239,-0.0473,0.307868,0.937954,0.010115,-0.002829,0.010651,-0.001599,-0.00078,0.000777,0.005102,0.314994,-0.94908,0.005101582769061506
-0.152291,-0.04727,0.307978,0.937935,0.0106,-0.003286,0.009307,-0.002349,-0.001307,0.002629,0.005132,0.314794,-0.949146,0.005132202825918054
-0.152173,-0.047221,0.308096,0.937918,0.010574,0.003089,0.013231,-0.002728,-0.001968,0.002261,0.005189,0.314548,-0.949227,0.005188956745647377
-0.152096,-0.047097,0.308236,0.937891,0.010238,0.009902,0.013964,-0.002343,-0.000398,0.001925,0.005419,0.314332,-0.949298,0.0054192469835834655
-0.15203,-0.046954,0.308306,0.937886,0.008876,0.010273,0.008279,-0.001861,-0.000112,0.001527,0.005669,0.314126,-0.949364,0.005668554229427694
-0.151965,-0.046811,0.308376,0.937881,0.007515,0.010643,0.002595,-0.001379,0.000175,0.001129,0.005919,0.31392,-0.949431,0.005918457250027278
-0.151893,-0.0467,0.308398,0.937891,0.010057,0.010146,0.002994,-0.001297,0.000257,0.000168,0.006088,0.313723,-0.949495,0.00608801303551745
-0.151844,-0.046584,0.308397,0.937904,0.006505,0.007549,-8.9e-05,-0.00074,0.001313,0.001264,0.006273,0.313564,-0.949546,0.006273869422005544
-0.151805,-0.046498,0.308366,0.937925,0.003635,0.008566,-0.005373,-0.000373,0.000947,0.000923,0.0064,0.31344,-0.949586,0.006399771645900669
-0.151789,-0.046423,0.308286,0.937958,0.003385,0.010159,-0.006948,-0.000288,0.001201,0.001183,0.006504,0.313367,-0.94961,0.006503244679314488
-0.151771,-0.046347,0.308198,0.937993,0.002852,0.008094,-0.008224,-0.000118,0.000491,0.000484,0.006605,0.313288,-0.949635,0.006604762193690704
-0.151782,-0.046264,0.308116,0.938022,-0.000532,0.008773,-0.002528,5.2e-05,-0.001496,0.001096,0.00674,0.31326,-0.949643,0.0067396768308814045
-0.151799,-0.046174,0.308116,0.938024,0.00056,0.008999,0.006923,-0.000388,-0.001608,-0.000278,0.006919,0.313237,-0.94965,0.006918816216510483
-0.151824,-0.046082,0.308218,0.937991,0.003486,0.009038,0.017913,-0.001274,-0.002762,0.000166,0.007141,0.313225,-0.949652,0.0071408374269176155
-0.151818,-0.045931,0.308397,0.937941,0.006864,0.009788,0.021972,-0.002832,-0.001877,-0.000379,0.007479,0.313123,-0.949683,0.007479365083543196
-0.151808,-0.045834,0.308572,0.93789,0.003595,0.005042,0.016119,-0.003262,-0.001897,-0.000187,0.007713,0.313045,-0.949707,0.00771297230581812
-0.151804,-0.045815,0.308676,0.937857,0.0022,0.000482,0.008002,-0.001839,-0.000933,2.1e-05,0.00778,0.313024,-0.949713,0.007780744605458058
-0.151769,-0.045834,0.308743,0.93784,0.001532,-0.002244,0.0023,-0.000859,0.000473,0.000839,0.007746,0.312972,-0.949731,0.007745393056226813
-0.151762,-0.045854,0.30878,0.937828,0.000268,-0.002764,0.002749,-0.003173,0.00146,0.001126,0.007715,0.312971,-0.949731,0.007715887056549634
-0.151736,-0.045887,0.308783,0.937829,0.00095,-0.002003,0.001061,-0.003401,0.0007,0.001194,0.007638,0.312943,-0.949741,0.00763875021727191
-0.15171,-0.045921,0.308786,0.937831,0.001632,-0.001241,-0.000626,-0.00363,-5.9e-05,0.001263,0.00756,0.312915,-0.949751,0.007559645421198014
-0.151673,-0.0459,0.308778,0.93784,0.00586,0.003976,0.001333,-0.002892,-7.9e-05,0.002881,0.007573,0.312836,-0.949777,0.00757293157150384
-0.151672,-0.045812,0.308774,0.937846,0.000495,0.010886,0.00117,-0.002067,-0.001715,0.003498,0.007735,0.312781,-0.949794,0.007735615501315154
-0.151731,-0.0457,0.30877,0.937844,-0.004039,0.016317,-0.000396,-0.001918,-0.001025,0.001508,0.007982,0.312822,-0.949778,0.007981104869846295
-0.151855,-0.045544,0.308714,0.937849,-0.007564,0.018676,-0.003355,-0.002187,-0.003613,0.000949,0.008333,0.312955,-0.949732,0.008332835661003214
-0.151997,-0.045412,0.30864,0.937857,-0.009342,0.016656,-0.00513,-0.001496,-0.005692,-0.000648,0.008645,0.313134,-0.94967,0.008644891669705623
-0.152158,-0.045316,0.308582,0.937855,-0.013307,0.014791,0.003625,-0.001484,-0.010689,-0.003206,0.008907,0.313372,-0.949589,0.008906883319190944
-0.152333,-0.045256,0.308637,0.937811,-0.015647,0.007326,0.011773,-0.00132,-0.01063,-0.00338,0.009147,0.313654,-0.949493,0.009148178610048083
-0.152519,-0.045257,0.308721,0.937753,-0.022731,0.001591,0.011397,-0.002526,-0.012426,-0.002712,0.009291,0.313995,-0.949379,0.0092919950690474
-0.152779,-0.045289,0.308872,0.93766,-0.027843,0.003318,0.019533,-0.00255,-0.013874,-0.001596,0.009446,0.314486,-0.949215,0.009447083616630448
-0.153057,-0.045284,0.30906,0.937552,-0.034492,0.007024,0.023951,-0.001969,-0.0142,-0.001294,0.009695,0.314989,-0.949046,0.00969553520550312
-0.153432,-0.045295,0.309318,0.937406,-0.045177,0.007454,0.030471,-0.002071,-0.015361,-0.001087,0.009998,0.315678,-0.948814,0.009999115833629302
-0.153898,-0.045271,0.309596,0.937239,-0.052154,0.014111,0.034766,-0.001402,-0.017432,-0.000129,0.010434,0.31651,-0.948532,0.01043310615038916
-0.154446,-0.045233,0.309878,0.937057,-0.05468,0.019283,0.033406,-0.000635,-0.020837,0.002086,0.010946,0.317483,-0.948201,0.010947255270243527
-0.155043,-0.045135,0.310112,0.936886,-0.061501,0.027707,0.02709,0.000642,-0.025506,0.00196,0.01159,0.31851,-0.947849,0.011588949816843034
-0.155759,-0.045006,0.310222,0.936737,-0.075828,0.033352,0.016468,-0.000555,-0.036775,-0.00242,0.012322,0.319735,-0.947427,0.012322477997589782
-0.156567,-0.044924,0.310298,0.936581,-0.079633,0.027944,0.013026,-0.001628,-0.050977,-0.003766,0.013015,0.321154,-0.946938,0.013015291701223626
-0.157392,-0.044863,0.310312,0.936441,-0.080842,0.035813,0.015081,0.000113,-0.068652,-0.004835,0.013658,0.322619,-0.94643,0.013658572120817256
-0.158236,-0.04471,0.310369,0.936287,-0.0839,0.034657,0.017305,0.001923,-0.087808,-0.007528,0.014501,0.324061,-0.945925,0.014500822813326892
-0.159087,-0.04464,0.310465,0.936114,-0.09341,0.03436,0.025919,0.005982,-0.107704,-0.006404,0.015206,0.325565,-0.945397,0.015206219003271371
-0.160055,-0.044519,0.31067,0.935887,-0.104101,0.040569,0.038101,0.011364,-0.118822,-0.003595,0.016119,0.327249,-0.944801,0.016119765096564712
-0.161173,-0.044387,0.310813,0.935654,-0.137175,0.043625,0.011497,0.014322,-0.126989,-0.00453,0.017128,0.329196,-0.944106,0.017128416619774135
-0.162638,-0.044471,0.310709,0.935431,-0.171517,0.039714,-0.003724,0.017141,-0.137939,-0.001846,0.017867,0.331908,-0.943143,0.01786802744363615
-0.164361,-0.044522,0.31062,0.935157,-0.203815,0.049258,0.013267,0.015225,-0.130439,-0.000144,0.018838,0.335066,-0.942006,0.018838621996871356
-0.166585,-0.044768,0.310521,0.934785,-0.285533,0.040472,0.005219,0.00829,-0.11466,0.002143,0.019759,0.339246,-0.94049,0.019760657820350528
-0.169553,-0.045352,0.310419,0.934257,-0.363219,0.037445,0.009725,0.006687,-0.095442,0.008829,0.020524,0.344968,-0.93839,0.020525539683022165
-0.173215,-0.046126,0.310222,0.933612,-0.425674,0.029808,-0.005962,0.003398,-0.093425,0.003768,0.021343,0.352051,-0.935738,0.02134425385822156
-0.177025,-0.04719,0.309921,0.932944,-0.397645,0.010713,-0.00549,0.0071,-0.093282,0.01615,0.021675,0.359559,-0.932871,0.021677973161426122
-0.180355,-0.048092,0.309717,0.932328,-0.340248,0.028361,-0.007158,0.007831,-0.082667,0.029739,0.022044,0.36609,-0.930318,0.02204476819724626
-0.183539,-0.048736,0.309521,0.931738,-0.359298,0.040441,-0.003996,0.004656,-0.065305,0.03045,0.022801,0.37219,-0.927876,0.022801959151900707
-0.186721,-0.049379,0.309321,0.931138,-0.378348,0.052522,-0.000835,0.001483,-0.047926,0.03112,0.023556,0.378275,-0.925394,0.023558305336235884
-0.190562,-0.05017,0.308976,0.930432,-0.449581,0.036261,-0.014713,-0.004115,-0.034529,0.020179,0.024398,0.385613,-0.922338,0.024401043513226348
-0.194829,-0.051362,0.308493,0.929643,-0.465426,0.030042,-0.028406,-0.00082,-0.02225,0.027335,0.02471,0.393933,-0.918807,0.02471263317801764
-0.199161,-0.05253,0.307867,0.928866,-0.466952,0.028242,-0.049878,-0.000198,-0.01151,0.024048,0.025043,0.402334,-0.915151,0.025046155748850996
-0.203543,-0.053858,0.307024,0.92812,-0.481413,0.025166,-0.063773,-0.000845,-0.003496,0.028048,0.025011,0.410896,-0.911339,0.02501440673375215
-0.208131,-0.055084,0.306152,0.927318,-0.494254,0.050933,-0.049355,0.000437,0.011923,0.019145,0.025278,0.419735,-0.907295,0.025281367401224556
-0.212892,-0.056288,0.305242,0.926464,-0.521369,0.039567,-0.059209,-0.001653,0.034487,0.006968,0.025669,0.428836,-0.903017,0.025672368354501193
-0.217731,-0.057682,0.304294,0.925565,-0.517437,0.025315,-0.071273,0.001852,0.054255,0.004917,0.025732,0.438153,-0.898532,0.025734433559531224
-0.222437,-0.059159,0.303222,0.924704,-0.496282,0.019619,-0.077501,0.001374,0.058548,0.003087,0.025486,0.447254,-0.894044,0.025489216124215782
-0.226803,-0.060701,0.30215,0.923895,-0.454157,0.004421,-0.082,0.000322,0.068001,0.0044,0.024895,0.455766,-0.889751,0.024896924118363962
-0.230819,-0.06211,0.301165,0.923127,-0.423009,0.009336,-0.065878,-0.000329,0.076849,0.001354,0.02436,0.463562,-0.88573,0.024360781733433652
-0.234696,-0.063472,0.300294,0.922341,-0.422497,-0.006062,-0.064995,-0.006062,0.087082,-0.007349,0.023869,0.471061,-0.881778,0.02387221267225053
-0.238527,-0.065028,0.299482,0.921513,-0.411767,-0.02286,-0.064702,-0.007266,0.093581,-0.005044,0.023021,0.478562,-0.877752,0.023022825122669417
-0.242098,-0.066634,0.298714,0.920716,-0.379473,-0.032594,-0.049844,-0.006875,0.092668,-0.000746,0.021934,0.485617,-0.873897,0.021935903214068502
-0.245327,-0.068107,0.298147,0.919937,-0.338851,-0.02408,-0.028364,-0.008517,0.094078,0.002617,0.020978,0.491983,-0.870352,0.020980258737268172
-0.24831,-0.069393,0.297812,0.919149,-0.320381,-0.030287,-0.007002,-0.012946,0.095859,0.001296,0.020335,0.497799,-0.867054,0.02033578392095459
-0.251131,-0.070639,0.297715,0.918319,-0.300408,-0.036645,0.014184,-0.013645,0.093024,0.010775,0.019794,0.503296,-0.863887,0.019793952169545555
-0.253776,-0.071757,0.297785,0.917482,-0.281391,-0.026587,0.031462,-0.013528,0.091328,0.017311,0.01947,0.508406,-0.860898,0.019471090872974623
-0.256344,-0.072684,0.297971,0.916634,-0.268192,-0.012294,0.044319,-0.012868,0.087755,0.021037,0.019518,0.513262,-0.85801,0.019518143977729326
-0.258843,-0.073452,0.298173,0.915805,-0.258859,-0.001271,0.042547,-0.013047,0.086849,0.01974,0.019825,0.517902,-0.85521,0.019825868741893078
-0.261269,-0.0742,0.298307,0.915011,-0.251394,-0.006183,0.030698,-0.012221,0.083508,0.018379,0.020089,0.522397,-0.852466,0.020090462246465202
-0.263584,-0.074924,0.298342,0.914277,-0.235932,0.001994,0.021137,-0.011973,0.075907,0.019524,0.020275,0.526684,-0.849819,0.02027516465834126
-0.26571,-0.075536,0.29832,0.913618,-0.201554,0.000228,0.01007,-0.011075,0.071701,0.014762,0.020511,0.530582,-0.847385,0.02051255436750587
-0.267408,-0.076115,0.298227,0.913105,-0.14916,-0.000139,-0.000287,-0.008518,0.067548,0.016373,0.020494,0.533743,-0.845399,0.02049603207242585
-0.268679,-0.076511,0.29809,0.912743,-0.11258,0.008456,-5.8e-05,-0.005906,0.064487,0.014801,0.020512,0.536085,-0.843915,0.020512725373481634
-0.269712,-0.076797,0.297936,0.912465,-0.094404,-0.000304,-0.005695,-0.005886,0.059601,0.013084,0.020564,0.537966,-0.842716,0.0205661294178227
-0.27059,-0.077152,0.297783,0.912225,-0.076994,0.001462,-0.007953,-0.002267,0.049801,0.016618,0.020395,0.539626,-0.841658,0.020395651549956904
-0.271307,-0.077306,0.297746,0.912011,-0.058861,0.007915,0.010762,-0.000499,0.043561,0.01505,0.020554,0.540905,-0.840832,0.020554750670828868
-0.271942,-0.077461,0.29767,0.911834,-0.053562,0.000203,-0.00176,-5e-06,0.037688,0.011521,0.020634,0.542047,-0.840095,0.02063626797904259
-0.272409,-0.077671,0.297657,0.91168,-0.048723,-0.002473,0.000314,0.0004,0.031493,0.009764,0.020546,0.542939,-0.839521,0.02054814282942753
-0.272877,-0.077882,0.297645,0.911526,-0.043884,-0.00515,0.002388,0.000805,0.025298,0.008007,0.020459,0.543831,-0.838945,0.020459440784638835
-0.273345,-0.078092,0.297633,0.911372,-0.039045,-0.007826,0.004462,0.00121,0.019103,0.006248,0.020371,0.544723,-0.838369,0.020372669557451876
-0.27375,-0.078354,0.29768,0.911213,-0.04239,-0.015776,0.006991,0.000664,0.014207,0.005069,0.020185,0.545537,-0.837844,0.02018680421228516
-0.274136,-0.078677,0.297737,0.91105,-0.043993,-0.023564,0.009068,0.00064,0.010366,0.004432,0.019882,0.546353,-0.837319,0.019884809165693733
-0.274546,-0.079017,0.297875,0.910852,-0.049175,-0.030136,0.011605,-0.000305,0.008224,0.000982,0.019616,0.547215,-0.836762,0.019616452593328608
-0.27496,-0.079455,0.298091,0.910618,-0.051553,-0.035412,0.025626,-0.001834,0.007439,0.001901,0.01922,0.548137,-0.836168,0.019221079855843735
-0.275421,-0.079876,0.298414,0.910336,-0.057087,-0.040419,0.031069,-0.002333,0.007861,0.001447,0.018951,0.549124,-0.835526,0.018952102438557994
-0.275879,-0.080305,0.298786,0.910038,-0.053329,-0.035825,0.036932,-0.002587,0.004698,0.004605,0.018696,0.550108,-0.834884,0.018697452010681508
-0.276333,-0.080603,0.299265,0.909716,-0.051327,-0.027108,0.051725,-0.002752,0.005506,0.001325,0.018742,0.551013,-0.834286,0.018743010379350448
-0.276777,-0.080894,0.299791,0.909382,-0.055285,-0.031224,0.050851,-0.004243,0.007036,0.000444,0.018824,0.551895,-0.833701,0.018824523963165356
-0.277289,-0.081217,0.300287,0.909034,-0.059574,-0.031713,0.050091,-0.004009,0.00543,0.004685,0.018876,0.552907,-0.833029,0.018875655979166555
-0.277799,-0.081481,0.300797,0.908686,-0.055771,-0.018701,0.057389,-0.006706,0.004979,0.004994,0.019041,0.553883,-0.832377,0.01904207443106789
-0.278318,-0.081682,0.301309,0.908339,-0.056264,-0.018838,0.049673,-0.004027,0.006576,0.003863,0.019329,0.554837,-0.831734,0.01933074801746597
-0.278839,-0.081892,0.301735,0.908019,-0.061485,-0.010095,0.04669,-0.005337,0.004246,0.006001,0.019553,0.555802,-0.831085,0.01955323337133117
-0.279441,-0.082006,0.302098,0.907703,-0.065935,3e-05,0.041464,-0.005227,0.005412,0.004842,0.019962,0.556846,-0.830376,0.019964276174893502
-0.280143,-0.082191,0.30235,0.907386,-0.074085,-0.002094,0.030505,-0.005456,0.007133,0.003735,0.020246,0.558097,-0.829529,0.02024592974622923
-0.280846,-0.082375,0.302603,0.907068,-0.082234,-0.004218,0.019547,-0.005686,0.008856,0.002625,0.02053,0.559346,-0.82868,0.02053167376550065
-0.281686,-0.08267,0.302626,0.906773,-0.101408,-0.0092,0.002343,-0.005794,0.008301,0.000645,0.020566,0.560886,-0.827638,0.020566616918919638
-0.282561,-0.083147,0.302558,0.906479,-0.095962,-0.014034,-0.001133,-0.004001,0.004796,0.004286,0.020241,0.562585,-0.826491,0.020241545449898087
-0.283291,-0.083444,0.302579,0.906217,-0.063686,0.001688,0.011233,-0.004281,0.005771,0.004548,0.020199,0.563942,-0.825567,0.02020044607964808
-0.28382,-0.083615,0.302667,0.906006,-0.054053,-0.005743,0.016576,-0.003688,0.008099,0.001066,0.020293,0.5649,-0.82491,0.02029590586572928
-0.284304,-0.083832,0.302779,0.905797,-0.045799,-0.011894,0.015998,-0.002842,0.007124,0.003442,0.020294,0.565809,-0.824287,0.020294406480946502
-0.28469,-0.083979,0.302896,0.905623,-0.036781,-0.002414,0.015495,-0.002797,0.007073,0.003568,0.020357,0.566517,-0.823798,0.020357702777891867
-0.285017,-0.084092,0.303035,0.905463,-0.032962,-0.003641,0.020406,-0.003546,0.004727,0.000448,0.020455,0.56711,-0.823388,0.020457290866736172
-0.285286,-0.084203,0.303249,0.905296,-0.025531,-0.020961,0.017642,-0.003264,0.004033,0.000981,0.020568,0.567606,-0.823043,0.020569560741584295
-0.285478,-0.084327,0.30347,0.90515,-0.011885,-0.002914,0.025455,-0.003776,0.000998,0.003952,0.020611,0.567982,-0.822783,0.02061230877156321
-0.285588,-0.084286,0.303751,0.905026,-0.006069,-0.002048,0.034406,-0.002631,0.002731,0.002393,0.020933,0.568132,-0.822671,0.02093476743134436
-0.285674,-0.084283,0.304015,0.90491,-0.008162,0.004431,0.022182,-0.002441,-5.3e-05,0.003857,0.021161,0.568265,-0.822573,0.02116288281958116
-0.285769,-0.084139,0.304259,0.904811,0.001158,0.00762,0.034326,-0.002118,-0.000707,0.004553,0.021637,0.568335,-0.822513,0.021637483219745395
-0.285813,-0.084011,0.304525,0.90472,-0.002982,0.005756,0.030867,-0.002525,-0.001088,0.003464,0.022062,0.568328,-0.822506,0.02206333380404426
-0.285856,-0.083883,0.30479,0.904629,-0.007121,0.003892,0.027409,-0.002933,-0.001468,0.002376,0.022487,0.568321,-0.8225,0.022488007021469445
-0.285938,-0.083815,0.305025,0.90453,-0.010089,0.001193,0.023085,-0.001749,-0.001194,0.001598,0.022811,0.568411,-0.822429,0.022812091485005754
-0.286052,-0.083806,0.305216,0.90443,-0.015888,0.002842,0.020035,-0.00209,-0.001368,0.00137,0.023022,0.568585,-0.822302,0.02302400744001557
-0.286237,-0.08379,0.305372,0.90432,-0.021549,0.002726,0.019002,-0.00311,-0.000626,0.00099,0.023271,0.568874,-0.822095,0.023273685759124578
-0.286458,-0.083798,0.305493,0.904209,-0.021632,0.00283,0.015926,-0.003176,-0.000861,0.002195,0.023481,0.569235,-0.821839,0.023482174025203865
-0.286662,-0.083765,0.305616,0.904106,-0.015689,0.00861,0.016799,-0.002445,0.000398,0.003679,0.023753,0.569546,-0.821616,0.02375434331354277
-0.286863,-0.083664,0.305711,0.904019,-0.015746,0.010456,0.010525,-0.001655,0.003032,0.004596,0.024127,0.569814,-0.82142,0.024128999237671037
-0.287082,-0.083579,0.305723,0.903954,-0.017228,0.014634,0.005361,-0.001212,0.003958,0.00469,0.024432,0.570121,-0.821198,0.024434429161426616
-0.287313,-0.083469,0.305694,0.9039,-0.017904,0.019695,0.002699,-0.001046,0.004014,0.003675,0.024765,0.570437,-0.820968,0.024766994195233885
-0.287546,-0.083337,0.305636,0.903858,-0.014962,0.018683,0.001084,-0.00166,0.003811,0.001845,0.025119,0.570743,-0.820744,0.025121832561801994
-0.287711,-0.083207,0.305594,0.903832,-0.010322,0.016592,0.002016,-0.000892,0.003316,0.001862,0.025435,0.570939,-0.820599,0.02543795557058514
-0.287875,-0.083077,0.305553,0.903805,-0.005683,0.014501,0.002949,-0.000124,0.002821,0.001878,0.025752,0.571134,-0.820453,0.02575417071175755
-0.28797,-0.082958,0.305542,0.903789,-0.002046,0.012446,0.003228,0.000784,0.002383,0.001444,0.026021,0.571223,-0.820383,0.026023741021665416
-0.288014,-0.082832,0.305547,0.903785,0.000366,0.010156,0.0048,0.001639,0.0027,0.001516,0.026279,0.571224,-0.820374,0.026282014663450065
-0.288052,-0.082716,0.305559,0.90378,0.002357,0.010126,0.006103,0.001962,0.001664,0.001993,0.026519,0.57122,-0.820369,0.02652273866176083
-0.288051,-0.082621,0.305586,0.90378,0.00457,0.006662,0.007438,0.001213,0.002811,0.003392,0.026705,0.571165,-0.820401,0.026709466634755277
-0.288037,-0.082503,0.305619,0.903784,0.004883,0.013352,0.007014,0.001328,0.001949,0.004047,0.026929,0.571076,-0.820456,0.026932632989853177
-0.287973,-0.082382,0.305691,0.903791,0.011521,0.010951,0.006592,0.001938,0.003406,0.004562,0.02715,0.570901,-0.82057,0.02715262468577335
-0.287908,-0.08226,0.305764,0.903798,0.018158,0.008551,0.006169,0.002547,0.004863,0.005077,0.027371,0.570726,-0.820684,0.027374375196526007
-0.287829,-0.082086,0.305789,0.903831,0.01389,0.013649,0.001499,0.00249,0.005428,0.003105,0.027647,0.570499,-0.820833,0.02764966414146999
-0.28775,-0.081952,0.305761,0.903877,0.01181,0.004911,-0.00312,0.001916,0.005112,0.001171,0.027817,0.570296,-0.820968,0.027819988107826838
-0.287635,-0.081898,0.305731,0.903929,0.013155,-0.0023,-0.004674,0.001269,0.004838,0.001109,0.027819,0.570081,-0.821117,0.027821506889552854
-0.287493,-0.081921,0.305721,0.903975,0.013476,-0.007288,-0.003726,0.000358,0.004509,0.000421,0.027675,0.569863,-0.821274,0.027679757382460424
-0.287337,-0.081981,0.30572,0.90402,0.013204,-0.010501,-0.00088,-0.000151,0.003925,0.002062,0.027464,0.569643,-0.821433,0.027467861917519893
-0.28718,-0.082011,0.305775,0.904048,0.013104,-0.00714,0.003248,-0.000329,0.004078,0.003933,0.027341,0.569404,-0.821603,0.027344575524083918
-0.287008,-0.081956,0.305833,0.904089,0.018145,-0.003195,0.004672,-0.000211,0.004355,0.004115,0.027362,0.56909,-0.82182,0.027365414536470338
-0.286835,-0.0819,0.30589,0.904129,0.023186,0.000751,0.006096,-9.4e-05,0.004632,0.004297,0.027384,0.568777,-0.822036,0.027387009568239095
-0.286663,-0.081844,0.305948,0.904169,0.028227,0.004696,0.007519,2.4e-05,0.004909,0.004478,0.027406,0.568463,-0.822252,0.027409759782674008
-0.286466,-0.081715,0.306021,0.904218,0.025075,0.005473,0.001984,-0.000199,0.006978,0.00333,0.027554,0.568068,-0.82252,0.027556363201469994
-0.286279,-0.081634,0.306004,0.904291,0.022097,0.002846,-0.008716,-0.000448,0.007024,0.003675,0.027565,0.56772,-0.82276,0.027566746557022924
-0.286105,-0.081596,0.305904,0.904383,0.019519,0.001268,-0.014787,-0.000517,0.005006,0.003527,0.027454,0.567417,-0.822973,0.02745670697538342
-0.285935,-0.081577,0.305768,0.904485,0.01785,-0.001251,-0.01727,-0.001453,0.002996,0.002866,0.02729,0.567134,-0.823173,0.02729258865225518
-0.285762,-0.08163,0.305594,0.904593,0.015586,-0.001206,-0.018173,-0.00079,0.001235,0.00365,0.02697,0.566889,-0.823353,0.026973722888319923
-0.285612,-0.081637,0.305446,0.90469,0.013649,0.00098,-0.012936,-0.001144,0.000259,0.003301,0.026766,0.566652,-0.823522,0.02676892772238046
-0.285504,-0.081658,0.30533,0.904762,0.011329,0.000588,-0.00798,-0.001297,-0.000161,0.00315,0.026584,0.566491,-0.823639,0.026586893952259428
-0.285412,-0.081628,0.305271,0.904813,0.00902,0.001655,-0.004105,-0.001679,0.000809,0.003479,0.026541,0.566326,-0.823754,0.026542978785791895
-0.28536,-0.081593,0.305224,0.904848,0.004624,0.000973,-0.003489,-0.00149,0.000922,0.00156,0.026539,0.566224,-0.823824,0.026542031828243516
-0.285307,-0.081619,0.305173,0.90488,0.003663,-0.003234,-0.005605,-0.001354,0.001409,0.001933,0.026426,0.566153,-0.823876,0.026428261157557528
-0.285266,-0.081644,0.30513,0.904905,0.005945,-0.002415,-0.007039,-0.00152,0.001115,0.003372,0.026325,0.566101,-0.823915,0.026329343482015256
-0.285197,-0.081634,0.30507,0.904948,0.007773,0.001627,-0.009595,-0.001456,0.000185,0.003177,0.026261,0.565985,-0.823997,0.026264066909384046
-0.28511,-0.081626,0.304969,0.90501,0.007841,0.002225,-0.009678,-0.001338,0.001111,0.002605,0.026154,0.565842,-0.824099,0.02615771352246452
-0.285032,-0.081667,0.30486,0.905068,0.007517,0.000104,-0.011615,-0.000968,0.001467,0.002398,0.025961,0.56574,-0.824175,0.02596425149661393
-0.284953,-0.081708,0.304752,0.905126,0.007194,-0.002017,-0.013552,-0.000597,0.001822,0.00219,0.025768,0.565637,-0.824252,0.02577077533773975
-0.284872,-0.081754,0.304634,0.905186,0.006825,-0.003205,-0.012406,-0.000864,0.00261,0.001373,0.025558,0.565534,-0.824329,0.025561024567702255
-0.284791,-0.081801,0.304516,0.905247,0.006456,-0.004393,-0.01126,-0.001131,0.003398,0.000556,0.025347,0.565432,-0.824406,0.025349327394726926
-0.284713,-0.081869,0.304391,0.905308,0.006329,-0.006608,-0.014068,-0.000977,0.002932,0.000225,0.025095,0.565347,-0.824472,0.025097462921744102
-0.284611,-0.081969,0.304264,0.905374,0.006667,-0.008247,-0.014377,-0.00134,0.002601,0.001006,0.024769,0.565238,-0.824556,0.024771093004490673
-0.28449,-0.082058,0.304182,0.905431,0.009635,-0.007083,-0.009105,-0.001636,0.000659,0.000586,0.024478,0.565094,-0.824664,0.024480205375506728
-0.284355,-0.08212,0.304164,0.905474,0.013611,-0.008347,-0.001409,-0.002585,0.001376,0.002172,0.024266,0.564908,-0.824797,0.024268440788747556
-0.284194,-0.082206,0.304185,0.90551,0.011461,-0.01097,-0.001962,-0.002263,0.001005,0.00187,0.024018,0.564692,-0.824952,0.024020703561129748
-0.284029,-0.082263,0.30422,0.905544,0.014352,-0.009865,0.001426,-0.00244,0.000756,0.003517,0.02383,0.564454,-0.825121,0.023831328315101426
-0.283862,-0.082277,0.304285,0.905574,0.017705,-0.006904,0.005718,-0.002638,0.000617,0.003319,0.023734,0.564187,-0.825306,0.023736302167618517
-0.283673,-0.082278,0.304397,0.905595,0.017399,-0.007197,0.010288,-0.00215,0.000752,0.003147,0.023677,0.563876,-0.82552,0.02367954241500636
-0.28353,-0.082278,0.304537,0.905593,0.013285,-0.010451,0.012812,-0.002766,8.2e-05,0.004542,0.02367,0.563639,-0.825682,0.023672200327310305
-0.283399,-0.082317,0.304688,0.905579,0.010911,-0.010143,0.012077,-0.002562,-2.6e-05,0.004127,0.023609,0.563443,-0.825818,0.023609649274431235
-0.283307,-0.082307,0.304842,0.905557,0.006771,-0.008374,0.011338,-0.003604,0.001383,0.00407,0.02366,0.563282,-0.825926,0.023662593114716586
-0.283264,-0.082344,0.304879,0.905555,0.003325,-0.004276,0.003784,-0.00243,0.002181,0.003815,0.023589,0.563232,-0.825962,0.023590636313883376
-0.283222,-0.08238,0.304915,0.905553,-0.00012,-0.000179,-0.00377,-0.001255,0.002979,0.003561,0.023518,0.563182,-0.825998,0.02352052857258609
-0.283221,-0.08241,0.304856,0.90557,0.000661,0.002029,-0.008697,-0.001461,0.0026,0.002266,0.023427,0.5632,-0.825989,0.02342933841951547
-0.283194,-0.082438,0.304738,0.905616,-0.000464,0.000516,-0.015527,-0.000674,0.00182,0.001691,0.023287,0.563174,-0.82601,0.023287707558796573
-0.283214,-0.082448,0.304573,0.905664,-0.002822,0.004918,-0.019751,-0.000242,0.000653,0.000607,0.023178,0.563217,-0.825984,0.023180380163268267
-0.283223,-0.082477,0.304391,0.90572,-0.001913,-0.00135,-0.018449,-0.001399,-0.000204,-0.000461,0.023019,0.563253,-0.825964,0.023020960834647913
-0.2832,-0.082557,0.304241,0.90577,0.000878,4.9e-05,-0.012209,-0.002269,-0.000665,0.000139,0.022767,0.563263,-0.825964,0.022768761852707032
-0.283171,-0.082602,0.304165,0.905801,0.001716,-0.0033,-0.002507,-0.001773,-0.001033,0.000694,0.02262,0.563241,-0.825983,0.022621395308410844
-0.283138,-0.082621,0.304176,0.905806,0.005866,-0.003193,0.002076,-0.001001,-0.000964,0.000787,0.02257,0.563199,-0.826013,0.022572290269998206
-0.283047,-0.082661,0.304183,0.905828,0.00991,-0.007053,-0.004788,-0.001592,0.001639,0.000823,0.022443,0.563072,-0.826103,0.02244475902746422
-0.282892,-0.082728,0.304203,0.905864,0.013312,-0.013478,-0.005371,-0.002249,0.001429,3.8e-05,0.022232,0.562856,-0.826256,0.022234388117769517
-0.28273,-0.082863,0.304227,0.905894,0.009279,-0.019345,-0.002737,-0.003231,0.002067,0.000776,0.021898,0.562666,-0.826394,0.021899760853175097
-0.282566,-0.083021,0.304252,0.905922,0.012068,-0.018977,-0.005391,-0.002398,0.002668,0.004551,0.021522,0.562485,-0.826528,0.02152310224258947
-0.282393,-0.083141,0.304291,0.905952,0.014537,-0.01251,-0.001225,-0.002374,0.002297,0.007291,0.021216,0.562267,-0.826683,0.02121737815592244
-0.282261,-0.083172,0.304307,0.905985,0.00846,-0.00288,-0.00103,-0.00243,0.001665,0.00683,0.021082,0.562068,-0.826822,0.021084389562052212
-0.28223,-0.083151,0.304318,0.905993,0.004089,-0.000266,-0.003366,-0.001855,0.002913,0.00545,0.021107,0.562005,-0.826865,0.021108457897769963
-0.282199,-0.083129,0.304329,0.906001,-0.000281,0.002348,-0.005702,-0.00128,0.004162,0.00407,0.021132,0.561941,-0.826907,0.02113433796027813
-0.282212,-0.083152,0.304267,0.906015,-0.002577,0.004886,-0.008313,-0.000796,0.003674,0.003622,0.021061,0.561979,-0.826884,0.021063236099040112
-0.282249,-0.083182,0.304155,0.906039,-0.005348,0.002034,-0.011527,-0.001005,0.003896,0.00208,0.020963,0.562057,-0.826833,0.020964152569382458
-0.282339,-0.083226,0.303986,0.906064,-0.009551,0.004033,-0.017954,-0.001294,0.004393,0.001122,0.020837,0.562232,-0.826717,0.020839549937633768
-0.282453,-0.083288,0.303811,0.906081,-0.009819,0.00199,-0.019031,-0.001161,0.00412,0.001293,0.020693,0.562459,-0.826566,0.02069478525191629
-0.282522,-0.083365,0.303637,0.906111,-0.005534,0.004827,-0.012435,-0.000658,0.002168,0.000396,0.020493,0.562617,-0.826463,0.020493812522290208
-0.282574,-0.083397,0.303556,0.906118,-0.001671,0.001458,-0.003755,-0.001047,0.003927,0.001551,0.020419,0.562723,-0.826393,0.020420439767780057
-0.282614,-0.083424,0.30353,0.906112,-0.003946,-0.000708,-0.006423,-0.001807,0.004246,0.002011,0.02038,0.562804,-0.826339,0.02038209105546445
-0.282626,-0.083432,0.303522,0.90611,0.002404,-0.004156,0.002685,-0.002358,0.002184,0.000334,0.020369,0.562828,-0.826323,0.02037068732814827
-0.282518,-0.083461,0.303632,0.906104,0.014809,-0.007863,0.009851,-0.001414,0.00503,0.00445,0.020315,0.562665,-0.826435,0.020315716313770268
-0.282351,-0.083398,0.303724,0.906132,0.017423,0.003162,0.003534,-0.000975,0.004883,0.004683,0.020375,0.562354,-0.826646,0.020375767054328687
-0.28223,-0.083326,0.303754,0.906166,0.013375,-0.002542,-0.000117,-0.00172,0.004031,0.002422,0.020443,0.562116,-0.826806,0.02044403070393689
-0.282052,-0.083314,0.303795,0.906209,0.017095,-0.004641,0.000127,-0.000892,0.00361,0.003135,0.020373,0.561817,-0.827011,0.020373590854644113
-0.28195,-0.083379,0.30377,0.906243,0.012767,-0.004309,-0.001218,-0.000888,0.002233,0.003713,0.020173,0.561687,-0.827104,0.02017400121537188
-0.281849,-0.083445,0.303744,0.906277,0.008438,-0.003978,-0.002564,-0.000884,0.000857,0.004291,0.019972,0.561558,-0.827196,0.019972644625253604
-0.281747,-0.08351,0.303719,0.906311,0.004109,-0.003646,-0.00391,-0.000879,-0.00052,0.004869,0.019772,0.561429,-0.827289,0.019773059399098115
-0.281712,-0.083514,0.303698,0.906329,0.003611,0.00094,-0.000494,0.000395,-0.001,0.003295,0.019728,0.561373,-0.827328,0.019729701716084288
-0.28166,-0.083455,0.303736,0.906337,0.005923,0.001899,0.005219,-0.000572,-0.000487,0.000978,0.019824,0.561254,-0.827406,0.019825153493333185
-0.281628,-0.08342,0.303832,0.906318,0.003588,-0.002073,0.008424,-0.000556,0.001358,0.00076,0.019925,0.561181,-0.827453,0.019926420517330352
-0.281603,-0.08343,0.303914,0.906298,0.000824,-0.002733,0.006438,-0.000366,0.004069,0.001607,0.019942,0.561144,-0.827478,0.01994262586910746
-0.281639,-0.083479,0.303961,0.906266,-0.003082,-0.005055,0.001284,-0.00056,0.005227,0.001313,0.019906,0.561228,-0.827422,0.019907500222752596
-0.281615,-0.08352,0.303975,0.906266,0.002769,-0.007749,-0.000955,-0.000955,0.003211,-0.000702,0.019826,0.561211,-0.827435,0.01982646551117735
-0.281534,-0.083596,0.30401,0.906272,0.007651,-0.009475,-0.001984,-0.001587,0.002532,-4.9e-05,0.019657,0.56112,-0.827501,0.01965814055500044
-0.281405,-0.083686,0.304008,0.906304,0.010435,-0.012684,-0.00767,-0.002524,0.002659,0.000748,0.01941,0.56096,-0.827616,0.01941004815821655
-0.281258,-0.083827,0.303998,0.90634,0.010021,-0.013816,-0.006703,-0.002881,0.002084,0.003669,0.019053,0.560796,-0.827734,0.019053365413278442
-0.281121,-0.083907,0.30403,0.906365,0.009691,-0.008565,0.002982,-0.002701,0.000356,0.002779,0.018837,0.560616,-0.827861,0.018838813448843264
-0.280994,-0.08395,0.304114,0.906372,0.010702,-0.012634,0.010734,-0.003869,0.000683,0.001639,0.018729,0.560431,-0.827989,0.018729654873192645
-0.280879,-0.084061,0.30424,0.906355,0.007573,-0.022602,0.003653,-0.002767,0.004047,0.001551,0.018532,0.560302,-0.828081,0.018532099365158237
-0.280735,-0.084295,0.304318,0.906352,0.007297,-0.022397,-0.000298,-0.002731,0.003584,0.00272,0.018063,0.560194,-0.828165,0.018064526254740237
-0.280622,-0.0845,0.304331,0.906363,0.00555,-0.019078,-0.004392,-0.00218,0.003388,0.003095,0.017628,0.560122,-0.828222,0.0176295139579337
-0.280509,-0.084705,0.304345,0.906374,0.003802,-0.01576,-0.008487,-0.001629,0.003192,0.00347,0.017194,0.560051,-0.82828,0.0171950512003242
-0.280434,-0.084852,0.304304,0.906397,0.0035,-0.010406,-0.009586,-0.001604,0.003699,0.004092,0.016855,0.560011,-0.828313,0.016855977570566037
-0.280359,-0.084973,0.304238,0.906431,0.002521,-0.013109,-0.012842,-0.000775,0.003496,0.003548,0.016548,0.559956,-0.828357,0.016548155409463968
-0.280302,-0.085093,0.30415,0.906467,0.003466,-0.003897,-0.007396,-0.002375,0.001107,0.003264,0.01624,0.55993,-0.828381,0.016240427634749158
-0.280255,-0.085121,0.304088,0.9065,0.00217,-0.002589,-0.006078,-0.001823,0.002699,0.002406,0.01612,0.559871,-0.828423,0.01612069010274899
-0.28022,-0.085147,0.304047,0.906522,0.002975,-0.004362,-0.003607,-0.000616,0.002184,0.002114,0.016024,0.559828,-0.828454,0.016025529142805615
-0.280187,-0.085239,0.304025,0.906531,-0.000588,-0.003547,-0.002634,-0.000656,0.002597,0.001502,0.015825,0.559826,-0.828459,0.015824774006206018
-0.280192,-0.085312,0.304004,0.90653,-0.003506,-0.008961,-0.006453,-0.001907,0.001655,0.00221,0.015683,0.559875,-0.828429,0.01568384580138205
-0.280194,-0.085434,0.303985,0.906524,-0.002942,-0.011972,-0.004858,-0.001763,0.000401,0.002332,0.015454,0.559947,-0.828384,0.015454218503212606
-0.28015,-0.085538,0.303984,0.906528,0.003398,-0.006759,0.002355,-0.000799,0.0005,0.003363,0.015237,0.559931,-0.828399,0.015237640725521192
-0.280095,-0.085555,0.304049,0.906522,0.006143,-0.004111,0.006725,-0.001857,0.000725,0.001945,0.015211,0.55985,-0.828454,0.0152108164349518
-0.280057,-0.085562,0.304109,0.906512,0.003133,-0.004836,0.005643,-0.001526,0.001545,0.00101,0.01521,0.559792,-0.828494,0.015210335427309544
-0.280024,-0.085637,0.304184,0.906491,-0.004535,-0.011066,0.003315,-0.002253,0.001412,0.000998,0.015099,0.559777,-0.828506,0.015099875102386239
-0.280047,-0.085696,0.304243,0.906458,-0.000557,-0.005303,0.004241,-0.00228,0.00204,0.002748,0.015044,0.559847,-0.828459,0.015045596944840338
-0.280003,-0.085748,0.304286,0.906452,0.000676,-0.002991,0.000584,-0.002562,0.002666,0.002414,0.01495,0.559802,-0.828491,0.014949650372436174
-0.279988,-0.085809,0.304292,0.906449,0.000485,-0.002788,-0.002289,-0.003197,0.001294,0.001319,0.014834,0.559812,-0.828487,0.014833796512534279
-0.279996,-0.085833,0.304309,0.906439,0.000427,-0.000237,0.002087,-0.003897,0.000903,0.002498,0.014806,0.559838,-0.82847,0.014806389146778056
-0.280007,-0.085853,0.304328,0.906427,-0.001186,-0.000445,0.002922,-0.004471,0.002608,0.00325,0.014789,0.559866,-0.828451,0.014789525276390277
-0.280037,-0.085833,0.304362,0.906408,-0.003973,0.002522,0.004509,-0.00311,0.003297,0.001863,0.014866,0.559904,-0.828424,0.014866354652407468
-0.280079,-0.085825,0.304415,0.906378,-0.003321,-0.000685,0.003478,-0.002663,0.002825,0.002305,0.014941,0.559967,-0.82838,0.014941269782480891
-0.280133,-0.085807,0.304436,0.906356,-0.002972,0.002959,0.001869,-0.004062,0.002287,0.003853,0.015021,0.560046,-0.828326,0.015022326401085173
-0.280188,-0.085789,0.304453,0.906335,-0.00359,-0.000805,0.000747,-0.004485,0.001488,0.000947,0.015101,0.560125,-0.82827,0.015101581696961595
-0.280224,-0.08581,0.304454,0.906322,-0.0022,0.00062,0.001589,-0.003216,0.001183,0.002368,0.015088,0.560196,-0.828223,0.015088226229427877
-0.280277,-0.085795,0.304469,0.906302,-0.001687,0.000879,0.004156,-0.003931,0.000876,0.002644,0.01516,0.560275,-0.828168,0.01515953627872492
-0.280291,-0.085764,0.304522,0.906282,0.002101,0.002148,0.006315,-0.002315,0.001409,0.002382,0.015256,0.56028,-0.828163,0.015257404858928562
-0.280312,-0.085721,0.304543,0.906273,-0.003072,0.009848,0.000492,-0.002833,0.001234,0.003765,0.01536,0.56029,-0.828154,0.015361463311283475
-0.280384,-0.08566,0.304577,0.906245,-0.003651,0.002241,0.00569,-0.002111,0.0008,0.001822,0.015539,0.560374,-0.828094,0.015539767163578822
-0.28042,-0.085633,0.304613,0.906224,-0.001085,0.005305,0.005475,0.000258,0.000178,0.002669,0.015635,0.560416,-0.828064,0.0156344322631877
-0.280494,-0.085543,0.304595,0.906216,-0.006197,0.007862,0.002197,-0.000955,0.000372,0.000943,0.015834,0.560488,-0.828011,0.015833930905396885
-0.28054,-0.085502,0.304592,0.906207,-0.000531,0.001708,0.001407,-0.00153,0.000908,-0.001097,0.015935,0.560541,-0.827973,0.01593613204759321
-0.280563,-0.085459,0.304609,0.906198,0.002819,0.005194,0.003381,-0.001159,0.001066,0.001405,0.016039,0.560553,-0.827963,0.01603916765356364
-0.280584,-0.085385,0.304573,0.90621,-0.001978,0.005108,-0.002489,-0.001525,0.005148,0.001372,0.016163,0.560549,-0.827964,0.016163843408918608
-0.28064,-0.085383,0.304495,0.906219,-0.004744,0.004249,-0.007695,-0.002094,0.003005,-0.000463,0.016156,0.56064,-0.827902,0.01615626270109944
-0.280676,-0.085426,0.304399,0.906237,-0.000933,-0.000162,-0.005508,-0.00228,0.002167,0.002956,0.016043,0.560724,-0.827847,0.016043271735584973
-0.280699,-0.085433,0.304377,0.906236,-0.000875,0.002571,-9.3e-05,-0.000751,0.001226,0.004225,0.016031,0.560767,-0.827819,0.016032405484148277
-0.280742,-0.085396,0.304375,0.906227,-0.004675,0.011425,0.007066,0.000613,0.000215,0.004092,0.016125,0.560818,-0.827782,0.016126069637974916
-0.280895,-0.085272,0.304444,0.906168,-0.009802,0.012712,0.016228,-0.001022,0.000383,0.00085,0.016493,0.560997,-0.827654,0.016492827069339897
-0.281025,-0.085171,0.304591,0.906088,-0.004532,0.005739,0.021394,-0.001352,0.001005,0.000157,0.016851,0.561151,-0.827542,0.016851326980091782
-0.281055,-0.085091,0.30479,0.906019,-0.000718,0.001145,0.022446,-0.001283,0.002859,0.001111,0.017137,0.561152,-0.827535,0.017138220398691572
-0.281068,-0.085032,0.304985,0.905955,-0.001261,0.000989,0.018997,-0.001605,0.003663,0.002354,0.017373,0.561137,-0.82754,0.017373590839055333
-0.281091,-0.08498,0.305148,0.905898,-0.000159,-0.000107,0.017125,-0.002229,0.003907,0.00305,0.017583,0.561142,-0.827533,0.017583194871033672
-0.281118,-0.084931,0.305296,0.905844,-0.000546,-0.00096,0.016358,-0.002566,0.005132,0.002275,0.017779,0.561156,-0.827519,0.017780865243785197
-0.281141,-0.084917,0.305436,0.905791,-0.000113,-0.001912,0.012337,-0.00246,0.005453,0.002938,0.017908,0.561184,-0.827497,0.017908013416849524
-0.281147,-0.08489,0.305544,0.905756,0.000141,0.000622,0.010207,-0.002827,0.005842,0.004392,0.018027,0.561176,-0.8275,0.018027280666303463
-0.281163,-0.084851,0.305591,0.905738,0.004139,-0.002705,0.007694,-0.002799,0.00354,0.003055,0.018136,0.56118,-0.827495,0.018137208971364935
-0.281179,-0.084813,0.305639,0.905721,0.008136,-0.006031,0.005181,-0.00277,0.001238,0.001718,0.018245,0.561184,-0.82749,0.01824571875145896
-0.2811,-0.084787,0.305705,0.905726,0.016344,0.001996,0.002518,-0.000327,0.001681,0.005696,0.018279,0.561039,-0.827588,0.01828078845998626
-0.281032,-0.084658,0.305698,0.905761,0.009532,0.011374,-0.0003,-0.000751,0.001364,0.003523,0.018462,0.560855,-0.827708,0.018463060140234962
-0.281016,-0.084551,0.305655,0.90579,0.004833,0.007049,-0.001729,-0.001005,0.000817,0.001408,0.018618,0.56077,-0.827762,0.01861806596544521
-0.281027,-0.084539,0.305614,0.905802,0.003009,0.005569,-0.000191,-0.000547,0.000321,0.001158,0.018622,0.560782,-0.827754,0.01862145677321713
-0.281038,-0.084526,0.305574,0.905813,0.001186,0.004089,0.001346,-8.9e-05,-0.000175,0.000907,0.018626,0.560794,-0.827745,0.018627389550136042
-0.281078,-0.084494,0.305593,0.905797,-0.002258,0.003289,0.006173,-0.000706,0.000848,0.001592,0.018722,0.560841,-0.827712,0.018723208983005658
-0.281142,-0.084445,0.305681,0.905752,-0.003444,0.003055,0.01135,-0.001118,0.002063,0.00264,0.018907,0.560917,-0.827656,0.018908206781768477
-0.281212,-0.084352,0.305811,0.905695,-0.000857,0.010185,0.020393,-0.001301,0.004963,0.004505,0.019202,0.560975,-0.82761,0.019202256626234374
-0.281246,-0.084156,0.306004,0.905638,0.002171,0.016467,0.027951,-0.002696,0.010947,0.003483,0.019695,0.560919,-0.827636,0.019696332404584748
-0.281283,-0.083927,0.306226,0.905573,0.003788,0.014787,0.030183,-0.003803,0.01945,0.001665,0.020269,0.560845,-0.827673,0.020269673544035617
-0.28129,-0.08368,0.306503,0.9055,0.013153,0.01452,0.036653,-0.004416,0.030821,0.001593,0.020888,0.560712,-0.827748,0.020889496968923667
-0.281216,-0.083338,0.306809,0.905451,0.024563,0.02463,0.03503,-0.002705,0.0462,-7e-06,0.021643,0.560391,-0.827945,0.021643938459246517
-0.281062,-0.082924,0.307069,0.905448,0.031106,0.024991,0.02671,-0.00177,0.067169,-0.002598,0.022445,0.559901,-0.828255,0.02244599940589933
-0.280838,-0.082499,0.307184,0.905518,0.039621,0.030966,0.013392,-0.001686,0.08775,-0.00428,0.02313,0.559292,-0.828648,0.023131284121385192
-0.280525,-0.081965,0.307194,0.905659,0.055916,0.03864,0.002852,-0.000741,0.110997,-0.012752,0.023886,0.558479,-0.829174,0.023888785883697135
-0.280018,-0.081551,0.307048,0.905903,0.080158,0.020665,-0.032591,-0.001117,0.131692,-0.011628,0.024204,0.557418,-0.829879,0.024205706305400594
-0.279114,-0.081214,0.306604,0.906363,0.137176,0.016672,-0.066722,-0.002047,0.136412,-0.00115,0.023937,0.555758,-0.830999,0.023938494614296663
-0.277464,-0.080677,0.306049,0.907105,0.233699,0.028817,-0.072072,-0.001283,0.132494,0.012204,0.02347,0.55276,-0.83301,0.023472294580650154
-0.274979,-0.079605,0.305572,0.908116,0.324932,0.051829,-0.057882,-0.003481,0.131503,0.011586,0.023471,0.548076,-0.836099,0.023472773026446302
-0.271848,-0.078332,0.305186,0.909299,0.376375,0.035712,-0.068196,-0.00662,0.126278,0.016557,0.023474,0.542193,-0.839926,0.023476145259538547
-0.268282,-0.076999,0.304774,0.910609,0.413966,0.033428,-0.065908,-0.009539,0.110419,0.024373,0.023299,0.535534,-0.844192,0.023300900163950793
-0.264329,-0.075537,0.30448,0.911985,0.465168,0.03167,-0.048973,-0.011513,0.095807,0.033031,0.023188,0.528128,-0.848848,0.023190644572053443
-0.259937,-0.073823,0.304391,0.913416,0.513319,0.04597,-0.02728,-0.011148,0.091005,0.036976,0.023382,0.519803,-0.853966,0.02338487928664969
-0.255357,-0.071808,0.30445,0.914848,0.526985,0.054692,-0.015163,-0.014806,0.095862,0.033412,0.0241,0.510949,-0.859273,0.024102400481565985
-0.250768,-0.069871,0.304519,0.916243,0.511641,0.044803,-0.029746,-0.018789,0.101727,0.035609,0.02469,0.502084,-0.864467,0.024692120935974202
-0.246315,-0.068073,0.304393,0.917627,0.498671,0.049211,-0.049096,-0.021348,0.098179,0.044168,0.025023,0.493493,-0.86939,0.025024489793448106
-0.241905,-0.066218,0.304111,0.919029,0.505606,0.052787,-0.050652,-0.023931,0.085742,0.045832,0.02542,0.48491,-0.874194,0.025422156508330296
-0.237327,-0.064321,0.303838,0.920446,0.535292,0.059888,-0.052484,-0.021995,0.072615,0.059733,0.02581,0.475979,-0.879078,0.025812774130095317
-0.232621,-0.062094,0.303522,0.921904,0.554311,0.106184,-0.044292,-0.02014,0.06021,0.065452,0.026722,0.466602,-0.884064,0.026724949520339884
-0.22799,-0.0596,0.303185,0.923335,0.540727,0.105975,-0.043788,-0.021351,0.049646,0.059943,0.028184,0.457161,-0.888937,0.028188497207815227
-0.223529,-0.057099,0.302778,0.924716,0.519402,0.121018,-0.048447,-0.020706,0.034989,0.055097,0.029758,0.447978,-0.893549,0.02976300335317888
-0.219253,-0.054684,0.30236,0.926022,0.498836,0.105601,-0.046719,-0.019196,0.020746,0.051637,0.031309,0.439134,-0.897876,0.0313146176929899
-0.215083,-0.052297,0.301916,0.927281,0.484677,0.117802,-0.049355,-0.014798,0.003253,0.046086,0.032886,0.430464,-0.902008,0.03289189965315111
-0.211033,-0.050012,0.301459,0.928486,0.468372,0.102242,-0.051115,-0.010433,-0.012596,0.045465,0.034365,0.422035,-0.905928,0.0343714779656461
-0.207061,-0.047732,0.300998,0.929649,0.461633,0.115607,-0.042072,-0.006883,-0.030607,0.043857,0.035902,0.413722,-0.909695,0.03590959868935615
-0.203212,-0.045358,0.300634,0.930735,0.442213,0.117249,-0.027304,-0.006681,-0.03883,0.030552,0.037752,0.405545,-0.913295,0.037761289981308795
-0.199598,-0.043147,0.300378,0.931704,0.40624,0.092067,-0.024862,-0.005476,-0.044405,0.020055,0.039509,0.397853,-0.916598,0.039519517187935456
-0.196214,-0.041252,0.30009,0.932601,0.379637,0.080475,-0.031173,-0.000637,-0.054806,0.018049,0.04082,0.390737,-0.919597,0.04083175066950489
-0.192912,-0.039406,0.29985,0.933446,0.376485,0.081816,-0.021714,5e-05,-0.061598,0.012094,0.042123,0.383777,-0.922464,0.04213504663586368
-0.189585,-0.037604,0.299713,0.934246,0.380663,0.066568,-0.009526,-0.001206,-0.066139,0.004544,0.043378,0.376778,-0.925287,0.0433930216062467
-0.186143,-0.035933,0.299694,0.93501,0.382271,0.05253,0.001668,-0.001903,-0.067569,0.001128,0.044376,0.36963,-0.928119,0.04439102961145676
-0.182737,-0.034367,0.299776,0.935714,0.364846,0.039187,0.004139,-0.002364,-0.068636,-0.002299,0.045244,0.362584,-0.930852,0.04526041886828218
-0.179506,-0.033021,0.299864,0.93636,0.33688,0.01889,0.0014,-0.00228,-0.073415,-0.006894,0.045816,0.355967,-0.933375,0.04583173085123656
-0.176445,-0.031957,0.29997,0.936944,0.318856,0.003229,0.003532,-0.001911,-0.078747,-0.005986,0.045972,0.34981,-0.935692,0.04598878357239933
-0.173471,-0.031038,0.300118,0.937483,0.306071,-0.002083,0.009529,-0.002898,-0.081187,-0.005444,0.045929,0.343883,-0.937889,0.04594450676768237
-0.17064,-0.03016,0.300324,0.937965,0.286749,-0.007127,0.012462,-0.001033,-0.080921,-0.008677,0.045916,0.338224,-0.939945,0.04593267575806735
-0.167958,-0.029379,0.300534,0.938406,0.268158,-0.003727,0.011553,0.001872,-0.081,-0.005014,0.045816,0.332885,-0.941854,0.04583136261255596
-0.165497,-0.028505,0.300737,0.938805,0.244235,0.015598,0.0164,0.003998,-0.081594,-0.006381,0.046021,0.327884,-0.943596,0.04603712978648826
-0.163322,-0.027551,0.300996,0.939131,0.220583,0.018878,0.032095,0.002871,-0.083366,-0.013553,0.046571,0.323348,-0.945134,0.046587391329445844
-0.16133,-0.026718,0.301403,0.93937,0.203208,0.009896,0.045075,0.004098,-0.082102,-0.014376,0.047054,0.319202,-0.946518,0.04707189810055684
-0.159466,-0.025887,0.301933,0.939541,0.190566,0.012793,0.056734,0.005891,-0.083494,-0.014351,0.047652,0.315283,-0.947801,0.047670352618926874
-0.157684,-0.025057,0.302616,0.939644,0.188703,0.015689,0.080987,0.008091,-0.083028,-0.015073,0.048346,0.3115,-0.949016,0.04836493667824585
-0.155904,-0.024184,0.303504,0.939678,0.188338,0.015909,0.097885,0.00998,-0.077381,-0.009961,0.049184,0.307678,-0.950218,0.04920448199779564
-0.154206,-0.023251,0.304499,0.93966,0.173752,0.028,0.105625,0.010509,-0.071179,-0.008744,0.050215,0.303962,-0.95136,0.050236203586714746
-0.152741,-0.022309,0.305531,0.939587,0.141442,0.02519,0.109307,0.009891,-0.065459,-0.010163,0.051412,0.300658,-0.952345,0.0514344034437766
-0.151569,-0.02152,0.30655,0.939463,0.11195,0.020082,0.108143,0.009906,-0.061927,-0.010327,0.052493,0.29798,-0.953128,0.052516603127231484
-0.150593,-0.020828,0.307557,0.939307,0.096124,0.021217,0.105682,0.011601,-0.05775,-0.006691,0.053504,0.295718,-0.953776,0.05352965073423455
-0.149751,-0.020141,0.308568,0.939125,0.084077,0.025159,0.105641,0.012348,-0.050995,-0.006163,0.054587,0.293699,-0.954338,0.054614045334436076
-0.1491,-0.019457,0.309494,0.938938,0.057943,0.027802,0.091518,0.012523,-0.044867,-0.007073,0.055753,0.292035,-0.954781,0.05578220212019921
-0.148671,-0.018933,0.310293,0.938753,0.037805,0.023106,0.083083,0.012146,-0.040974,-0.006489,0.056716,0.29088,-0.955077,0.05674677115926869
-0.148361,-0.018449,0.311034,0.938566,0.035677,0.01924,0.079566,0.01201,-0.033857,-0.011202,0.057659,0.289971,-0.955297,0.05769141934529116
-0.148023,-0.018088,0.311719,0.938399,0.035403,0.004561,0.054797,0.013679,-0.022638,-0.013973,0.058336,0.289085,-0.955524,0.05836877810843174
-0.147626,-0.017808,0.312199,0.938308,0.038596,0.005572,0.044712,0.014217,-0.016925,-0.011263,0.058759,0.288156,-0.955779,0.058792465455377765
-0.147231,-0.017579,0.312608,0.938238,0.035208,-0.006308,0.032315,0.012433,-0.010298,-0.012639,0.059065,0.287266,-0.956028,0.05909900171977194
-0.146831,-0.017522,0.312915,0.938199,0.032489,-0.020577,0.023319,0.010417,-0.008586,-0.010022,0.059013,0.286479,-0.956267,0.059047305226984946
-0.146363,-0.017574,0.313217,0.938171,0.046506,-0.026207,0.031395,0.008439,-0.010442,-0.005052,0.058712,0.285635,-0.956538,0.05874570854797653
-0.145718,-0.017606,0.313619,0.938136,0.063203,-0.0339,0.043865,0.005648,-0.007801,-0.001368,0.058366,0.28445,-0.956913,0.05839941150567317
-0.145023,-0.017609,0.314093,0.938085,0.056847,-0.032312,0.045639,0.004204,-0.007633,-0.000546,0.058064,0.283149,-0.957317,0.05809661667987593
-0.144333,-0.017719,0.314692,0.937989,0.063529,-0.039502,0.052568,0.003882,-0.00881,0.001965,0.057601,0.281917,-0.957708,0.05763232554225672
-0.143643,-0.017828,0.315291,0.937891,0.070212,-0.046693,0.059496,0.003562,-0.009987,0.004473,0.057137,0.280686,-0.958098,0.05716838348963101
-0.142843,-0.017866,0.315925,0.937799,0.070982,-0.02713,0.062704,0.002496,-0.011686,0.005468,0.056746,0.279205,-0.958553,0.056776414474027856
-0.14221,-0.017732,0.316585,0.937676,0.05592,-0.013023,0.066611,0.000578,-0.008167,0.004352,0.05679,0.277922,-0.958924,0.056819933005260996
-0.141765,-0.017524,0.317244,0.937524,0.029957,-0.002599,0.065872,-0.000175,-0.00256,0.003322,0.057091,0.276935,-0.959191,0.05712090743193604
-0.141604,-0.017447,0.317832,0.937351,0.000391,-0.003632,0.050473,-0.001017,0.00097,0.003015,0.057305,0.276556,-0.959288,0.05733604873470901
-0.141698,-0.01746,0.318265,0.93719,-0.021766,-0.004264,0.036084,0.000325,0.002547,0.004634,0.057468,0.276709,-0.959234,0.05750003285263088
-0.141937,-0.017525,0.318565,0.93705,-0.031163,-0.000224,0.023136,0.000407,0.003942,0.00511,0.057588,0.27717,-0.959094,0.05762059769467353
-0.142282,-0.017631,0.318659,0.936964,-0.038325,-0.001546,-0.002824,-0.001079,0.006447,0.004875,0.05764,0.277863,-0.95889,0.057671619243392175
-0.142652,-0.017827,0.318556,0.936939,-0.041336,-0.006424,-0.015916,-0.001148,0.007285,0.002736,0.05748,0.27867,-0.958665,0.05751137638145494
-0.143037,-0.01808,0.31834,0.936949,-0.045186,-0.00774,-0.028255,-0.000754,0.009236,0.003498,0.057188,0.279549,-0.958427,0.057219940382388354
-0.143451,-0.018351,0.31805,0.936979,-0.050713,-0.008535,-0.032007,-0.002194,0.008737,0.001461,0.056861,0.280494,-0.95817,0.056890861419731265
-0.143896,-0.01865,0.317737,0.937011,-0.048427,-0.012793,-0.036486,-0.002284,0.0087,0.002891,0.056492,0.281516,-0.957892,0.056521746675056585
-0.144327,-0.018932,0.317419,0.937047,-0.044923,-0.007648,-0.035379,-0.001037,0.008582,0.001549,0.056144,0.2825,-0.957623,0.05617345390974954
-0.144682,-0.019175,0.317078,0.937103,-0.035165,-0.008701,-0.03322,-0.001014,0.005759,0.002925,0.055814,0.283323,-0.957399,0.055842076223766565
-0.144961,-0.019389,0.316804,0.937148,-0.025135,-0.007584,-0.022455,-0.001896,0.007418,0.002786,0.055507,0.283984,-0.957221,0.0555362679479771
-0.145146,-0.019611,0.31661,0.93718,-0.01989,-0.008589,-0.015827,-0.00238,0.00939,0.004276,0.055151,0.284475,-0.957096,0.05517927309948109
-0.145332,-0.019795,0.316422,0.937211,-0.020287,-0.008323,-0.023324,-0.001989,0.011156,0.005564,0.054869,0.284941,-0.956973,0.054895868529636425
-0.14551,-0.019992,0.316192,0.937256,-0.022423,-0.006742,-0.024976,-0.001661,0.012223,0.008457,0.054543,0.285404,-0.956854,0.054570031814177807
-0.145713,-0.020184,0.315792,0.937356,-0.021011,-0.000159,-0.048244,-0.001622,0.01413,0.007509,0.05419,0.285918,-0.956721,0.054217370684182115
-0.145914,-0.020332,0.315293,0.937489,-0.022233,0.002031,-0.052642,-0.002135,0.013313,0.006357,0.053889,0.286407,-0.956591,0.05391538994349652
-0.146148,-0.020486,0.314739,0.937636,-0.020744,0.007608,-0.052081,-0.002666,0.01354,0.004516,0.053581,0.286963,-0.956442,0.05360579830289673
-0.146363,-0.020602,0.314213,0.937776,-0.018503,0.004588,-0.052742,-0.002755,0.012294,0.004336,0.053338,0.287458,-0.956307,0.053363515628964284
-0.146578,-0.020718,0.313687,0.937916,-0.016263,0.001569,-0.053403,-0.002843,0.011049,0.004156,0.053095,0.287953,-0.956172,0.053120718039698374
-0.146723,-0.020802,0.313191,0.938057,-0.012581,0.001939,-0.051915,-0.002611,0.010282,0.004646,0.052877,0.288299,-0.956079,0.05290239530508043
-0.146835,-0.02087,0.312719,0.938196,-0.010714,0.006919,-0.04542,-0.001755,0.009811,0.004099,0.052676,0.288573,-0.956008,0.052700278553339856
-0.146999,-0.020962,0.312292,0.93831,-0.015467,0.001696,-0.038489,-0.002527,0.008818,0.001419,0.052476,0.288954,-0.955904,0.052499628327978956
-0.147174,-0.021129,0.311889,0.938413,-0.019055,-0.009489,-0.042749,-0.003039,0.009642,0.000846,0.052149,0.289399,-0.955787,0.052172111729818366
-0.147334,-0.021373,0.311523,0.938504,-0.019568,-0.014082,-0.036888,-0.001769,0.006796,0.002891,0.051679,0.289863,-0.955672,0.05170159783935709
-0.147481,-0.021598,0.311225,0.938574,-0.016287,-0.010413,-0.026358,-0.002972,0.005723,0.003561,0.051256,0.290288,-0.955566,0.05127937681484816
-0.147617,-0.021829,0.310973,0.938631,-0.02112,-0.016188,-0.029831,-0.003258,0.007252,0.001926,0.05083,0.290692,-0.955465,0.05085296548254091
-0.147733,-0.022096,0.310715,0.938692,-0.015285,-0.016239,-0.028211,-0.003145,0.007608,0.002709,0.050323,0.291083,-0.955373,0.05034430531652519
-0.147819,-0.02237,0.310505,0.938742,-0.010944,-0.017553,-0.021497,-0.003775,0.006866,0.00243,0.049797,0.291419,-0.955298,0.04981836466589472
-0.147881,-0.022637,0.31032,0.938787,-0.008857,-0.02333,-0.023598,-0.005484,0.006792,0.003191,0.049279,0.291706,-0.955238,0.049298187098806956
-0.147858,-0.022891,0.310162,0.938836,-0.00518,-0.0185,-0.013259,-0.006454,0.005959,0.002896,0.048738,0.291829,-0.955228,0.048757392299645354
-0.147837,-0.02309,0.310102,0.938855,0.001436,-0.018071,-0.007683,-0.004576,0.005288,0.003714,0.048332,0.291915,-0.955222,0.04835161267804289
-0.147726,-0.023251,0.310065,0.93888,0.008674,-0.015961,-0.007758,-0.005014,0.004918,0.003985,0.047951,0.291813,-0.955273,0.04796791957187672
-0.147582,-0.023395,0.310051,0.938904,0.014198,-0.015397,-0.00258,-0.004287,0.007564,0.003772,0.047585,0.291637,-0.955345,0.047602551086772436
-0.147405,-0.023508,0.310042,0.938932,0.013814,-0.012048,-0.002883,-0.003527,0.006367,0.00431,0.047258,0.291383,-0.955439,0.04727626390395252
-0.147249,-0.02357,0.310016,0.938963,0.012919,-0.005619,-0.006657,-0.003601,0.007347,0.005553,0.047037,0.291138,-0.955524,0.04705373748020945
-0.147117,-0.023557,0.309955,0.939004,0.01223,-0.003578,-0.008395,-0.005627,0.007447,0.004264,0.046959,0.29089,-0.955604,0.0469763408226213
-0.146997,-0.023599,0.309872,0.93905,0.008004,-0.0084,-0.011366,-0.004848,0.005949,0.002182,0.046778,0.2907,-0.95567,0.04679630482360492
-0.146916,-0.023669,0.309749,0.939101,0.002403,-0.008229,-0.018315,-0.003702,0.002936,0.002471,0.046559,0.290601,-0.955711,0.04657584277040782
-0.146927,-0.023771,0.309515,0.939174,-0.003689,-0.002378,-0.028467,-0.005831,0.001128,0.002323,0.046302,0.290694,-0.955695,0.04631857077961977
-0.14695,-0.023877,0.309267,0.93925,-0.003392,-0.00125,-0.022649,-0.00333,0.000546,0.001894,0.04604,0.290814,-0.955671,0.04605690802295769
-0.146946,-0.023954,0.309019,0.93933,-0.002883,0.001615,-0.024585,-0.004423,-0.001278,0.000912,0.045816,0.290866,-0.955666,0.045832835070794345
-0.146976,-0.02406,0.308868,0.939372,-0.004623,-0.012841,-0.010176,-0.005414,0.000152,-0.001015,0.045591,0.290992,-0.955638,0.045605593003700436
-0.146932,-0.024207,0.308819,0.939391,0.001428,-0.005946,0.001316,-0.003901,-0.00239,0.003011,0.045271,0.291004,-0.95565,0.04528658867770242
-0.146927,-0.024302,0.308829,0.939386,-0.003989,-0.004606,0.00097,-0.005323,-0.001889,0.001148,0.045092,0.291053,-0.955644,0.045108015394108164
-0.146897,-0.024362,0.308849,0.939383,0.002767,-0.009908,8.2e-05,-0.004404,-0.000165,-0.000555,0.044968,0.291034,-0.955655,0.044982654223471065
-0.146807,-0.024486,0.308855,0.939392,0.007753,-0.012951,-0.001814,-0.004037,0.000753,0.002375,0.044681,0.290943,-0.955697,0.04469512636177271
-0.146671,-0.024565,0.308847,0.939414,0.009469,-0.010154,0.000223,-0.00503,0.000497,0.001541,0.044445,0.290742,-0.955769,0.04445903173436307
-0.14656,-0.02462,0.30887,0.939422,0.004812,-0.015527,-0.005019,-0.007498,0.00169,0.00113,0.044278,0.290572,-0.955828,0.044293316860367436
-0.146462,-0.024795,0.30884,0.939442,0.008,-0.013426,-0.002229,-0.005018,0.001327,0.004594,0.04388,0.290501,-0.955868,0.04389381281426769
-0.146385,-0.024889,0.30886,0.939445,0.001148,-0.002073,0.001117,-0.005027,0.001236,0.003583,0.043661,0.290415,-0.955904,0.043675132843811845
-0.1464,-0.024906,0.308842,0.939449,-0.008685,-0.004412,-0.002309,-0.007153,0.001886,0.003807,0.043633,0.290454,-0.955894,0.04364696101828361
-0.146472,-0.024959,0.308799,0.93945,-0.003862,0.004125,0.000172,-0.006117,0.001629,0.004316,0.043565,0.290622,-0.955846,0.04357914167296471
-0.146548,-0.02488,0.308775,0.939448,-0.004925,0.011088,-0.006457,-0.004321,0.002195,0.004049,0.043754,0.290713,-0.955809,0.04376775728855565
-0.146635,-0.024782,0.308715,0.939457,-0.005414,0.014073,-0.004174,-0.005577,0.005259,0.002083,0.043973,0.290815,-0.955768,0.043987785442591604
-0.146712,-0.024714,0.308599,0.939485,-0.006206,0.011153,-0.014587,-0.003611,0.007471,0.000236,0.044114,0.290921,-0.955729,0.044127808413281705
-0.14679,-0.024727,0.308423,0.93953,-0.005677,0.009123,-0.015459,-0.003736,0.006017,0.002375,0.044083,0.291081,-0.955682,0.04409759834870215
-0.146868,-0.024741,0.308247,0.939575,-0.005147,0.007092,-0.01633,-0.003861,0.004563,0.004513,0.044052,0.29124,-0.955635,0.044065450040771406
-0.146925,-0.024631,0.308091,0.93962,-0.002924,0.007779,-0.013974,-0.004163,0.003718,0.00121,0.044244,0.291285,-0.955613,0.04425942843840873
-0.146938,-0.024638,0.307956,0.939662,0.000881,0.00184,-0.015603,-0.002848,0.004141,0.003702,0.044198,0.29132,-0.955604,0.04421249536009123
-0.146983,-0.024592,0.307802,0.939707,-0.003976,0.011763,-0.012574,-0.004506,0.005766,0.003204,0.044264,0.291382,-0.955582,0.04427924158388249
-0.147093,-0.024525,0.307624,0.93975,-0.006236,0.011042,-0.014982,-0.005729,0.00464,-5.1e-05,0.044404,0.29155,-0.955524,0.0444185414707365
-0.147099,-0.024529,0.307557,0.939771,0.002755,0.006701,-0.007692,-0.003381,0.003953,0.003145,0.044379,0.291568,-0.95552,0.04439394923182223
-0.147086,-0.024443,0.307535,0.939782,0.002929,0.013396,0.0004,-0.002749,0.00417,0.002671,0.044527,0.291492,-0.955536,0.044540728925034044
-0.147079,-0.024327,0.307535,0.939786,0.003667,0.009559,0.000418,-0.003439,0.004684,0.000441,0.044739,0.291409,-0.955552,0.04475447124590042
-0.147048,-0.024248,0.307547,0.939789,0.008044,0.005294,0.000641,-0.003461,0.005042,0.00142,0.044873,0.291304,-0.955578,0.04488740743450394
-0.146984,-0.024157,0.307556,0.939799,0.00921,0.005095,-0.001336,-0.002644,0.005495,0.001047,0.045006,0.29113,-0.955624,0.0450213809391717
-0.146898,-0.024105,0.307516,0.939826,0.01025,0.002172,-0.005106,-0.003563,0.003783,0.00188,0.045038,0.290942,-0.95568,0.04505319915707931
-0.146823,-0.024055,0.307451,0.939861,0.008801,0.003833,-0.006084,-0.002905,0.002941,0.002478,0.045065,0.290778,-0.955729,0.045080311044710775
-0.146759,-0.02399,0.307401,0.939889,0.00784,0.00756,-0.002332,-0.00347,0.001859,0.002577,0.045131,0.290624,-0.955772,0.045147187950806224
-0.146717,-0.023879,0.307399,0.939899,0.008756,0.009826,0.002154,-0.00333,0.001849,0.002899,0.045313,0.290479,-0.955808,0.04532914333038765
-0.146696,-0.023752,0.307408,0.939902,0.006127,0.009898,0.00339,-0.002836,0.00161,0.001909,0.045543,0.290363,-0.955832,0.04555770089191145
-0.146686,-0.023616,0.307424,0.939902,0.005359,0.01162,0.003825,-0.002218,0.003901,0.001984,0.045797,0.290261,-0.955851,0.0458121655306581
-0.146687,-0.02347,0.307422,0.939906,0.003035,0.012562,-0.000805,-0.002091,0.005325,0.001663,0.046071,0.290174,-0.955864,0.046086747073740476
-0.146705,-0.023335,0.307351,0.93993,0.001906,0.012251,-0.01107,-0.0016,0.005768,0.000352,0.046313,0.290129,-0.955866,0.04632989623729268
-0.14671,-0.023263,0.307177,0.939988,0.002311,0.007809,-0.018838,-0.001217,0.004106,0.000168,0.046399,0.290103,-0.95587,0.04641465719746585
-0.14668,-0.023196,0.306967,0.940063,0.006824,0.007143,-0.020288,-0.001319,0.001678,0.001689,0.046441,0.290017,-0.955894,0.04645714577014297
-0.146627,-0.023138,0.306761,0.94014,0.007168,0.004678,-0.016126,-0.001651,0.000827,0.001319,0.046454,0.289896,-0.95593,0.04646969454316198
-0.146586,-0.023103,0.306614,0.940195,0.003972,0.003169,-0.008409,-0.000597,5.4e-05,0.000978,0.046448,0.289806,-0.955958,0.04646470694351632
-0.146561,-0.023093,0.306566,0.940215,0.001434,0.000551,-0.001544,-0.001257,-0.000302,0.000621,0.046436,0.289756,-0.955973,0.04645317412334411
-0.146554,-0.023119,0.306584,0.940209,-0.000405,-0.00011,0.00549,-0.00261,-0.000426,0.000989,0.046389,0.289759,-0.955975,0.04640549300788576
-0.14655,-0.02311,0.306695,0.940174,-0.000579,-0.000196,0.01317,-0.002002,0.0015,0.002382,0.046438,0.289739,-0.955978,0.04645416835389795
-0.146575,-0.023107,0.306836,0.940124,-0.003076,-0.002613,0.011138,-0.00204,0.003864,0.000725,0.046502,0.289779,-0.955963,0.04651885888330866
-0.14661,-0.023156,0.30694,0.940084,-0.003685,-0.00354,0.007067,-0.001745,0.006242,0.000993,0.046465,0.289866,-0.955939,0.0464805111606559
-0.146626,-0.023226,0.306998,0.940061,-0.002944,-0.00521,0.002053,-0.001923,0.006034,8.3e-05,0.04636,0.289935,-0.955923,0.04637668660984063
-0.146627,-0.023294,0.307024,0.94005,4e-06,-0.007494,-0.001323,-0.001473,0.004918,0.000788,0.046241,0.289977,-0.955916,0.04625746151954561
-0.146592,-0.023367,0.307027,0.940053,0.003229,-0.007098,-0.002444,-0.00196,0.005381,0.002321,0.046084,0.289958,-0.955929,0.04609929327700273
-0.146512,-0.023446,0.307012,0.940068,0.005399,-0.008293,-0.001445,-0.002318,0.003936,0.002343,0.04588,0.289859,-0.955969,0.04589632716280579
-0.146422,-0.023505,0.306998,0.940085,0.007665,-0.005168,0.000175,-0.002299,0.002943,0.00273,0.045709,0.28973,-0.956016,0.045725058309940676
-0.146322,-0.023531,0.307027,0.940091,0.007532,-0.003345,0.001833,-0.001962,0.003015,0.002438,0.045607,0.289561,-0.956073,0.045622872026454334
-0.146211,-0.023529,0.307066,0.940095,0.008857,-0.002887,0.003158,-0.00359,0.003267,0.00257,0.045554,0.289354,-0.956138,0.04556963328988286
-0.146101,-0.023528,0.307119,0.940095,0.009934,-0.004155,0.003742,-0.003102,0.003373,0.002836,0.045504,0.289149,-0.956202,0.045519393568689205
-0.146004,-0.023533,0.307167,0.940094,0.007982,-0.004702,0.003582,-0.002436,0.00398,0.00325,0.045449,0.288972,-0.956258,0.045464418106261444
-0.145894,-0.023552,0.307193,0.940103,0.007667,-0.003113,0.003338,-0.002544,0.004112,0.004291,0.045352,0.288782,-0.95632,0.04536818111213334
-0.14581,-0.023573,0.307217,0.940107,0.003937,-0.003616,0.000664,-0.002764,0.0037,0.002807,0.045269,0.288638,-0.956368,0.04528381200706114
-0.145767,-0.023619,0.307228,0.940109,0.001904,-0.006464,-0.001099,-0.003196,0.002993,0.002641,0.045158,0.288587,-0.956388,0.04517390149898175
-0.145731,-0.023702,0.307222,0.940115,0.002686,-0.007975,0.000305,-0.003133,0.001938,0.002569,0.044979,0.28857,-0.956402,0.044993506493722406
-0.145684,-0.023762,0.307243,0.940114,0.002256,-0.005531,0.002479,-0.003171,0.001882,0.00293,0.044843,0.28852,-0.956423,0.044857843194922586
-0.14567,-0.023801,0.307262,0.940108,0.000224,-0.006786,0.002189,-0.003747,0.002934,0.001905,0.044767,0.288517,-0.956428,0.04478165606097666
-0.145657,-0.023875,0.307303,0.940095,-0.001214,-0.007514,0.005409,-0.003959,0.002123,0.002744,0.044632,0.288537,-0.956428,0.044646961258975784
-0.145651,-0.023895,0.307376,0.940072,-0.000841,-0.003257,0.007204,-0.003837,0.003122,0.003407,0.044613,0.288534,-0.95643,0.044628015167014506
-0.145654,-0.023904,0.307472,0.94004,-0.000306,-0.002197,0.008753,-0.004231,0.004671,0.003287,0.044627,0.288541,-0.956427,0.044642447925848636
-0.145667,-0.023935,0.307533,0.940017,-0.001468,0.000353,0.0054,-0.003107,0.007028,0.003365,0.044597,0.288581,-0.956416,0.04461100079286115
-0.145698,-0.023929,0.307557,0.940004,-0.004849,0.000449,-0.000451,-0.003777,0.007199,0.002374,0.044635,0.288633,-0.956399,0.044649001540229404
-0.145743,-0.023985,0.307531,0.940005,-0.003556,-0.00034,-0.003231,-0.00306,0.006306,0.002276,0.04455,0.288751,-0.956367,0.044563689756735615
-0.145781,-0.024007,0.307484,0.940013,-0.002707,0.001178,-0.006174,-0.002835,0.006351,0.002642,0.044517,0.288837,-0.956343,0.044531582513720795
-0.145804,-0.024022,0.307386,0.940042,-0.002885,0.003362,-0.007369,-0.002289,0.005215,0.003197,0.044474,0.288892,-0.956328,0.04448751188076281
-0.145827,-0.024014,0.3073,0.940066,-0.002044,0.001926,-0.007037,-0.00192,0.003061,0.000964,0.044477,0.288933,-0.956316,0.04449046031015034
-0.145817,-0.024023,0.307244,0.940086,0.001277,0.000589,-0.005637,-0.001451,0.001863,0.0013,0.044436,0.288923,-0.95632,0.04445006075757062
-0.145801,-0.023999,0.3072,0.940104,0.000504,0.000232,-0.002225,-0.002498,0.000974,0.000797,0.044456,0.288881,-0.956332,0.0444716799901656
-0.145813,-0.024031,0.307215,0.940096,-0.001704,-0.003205,0.003836,-0.001743,0.001453,0.001652,0.044409,0.288922,-0.956322,0.044423597532306056
-0.145843,-0.024066,0.307288,0.940066,-0.003318,-0.003923,0.010576,-0.003412,9.6e-05,0.002367,0.044386,0.288995,-0.956301,0.044398936434012784
-0.145887,-0.024115,0.307396,0.940023,-0.00381,-0.00505,0.012375,-0.002804,-0.000905,0.00162,0.044353,0.2891,-0.956271,0.04436740574149148
-0.14589,-0.024169,0.307519,0.939981,-0.000482,-0.005208,0.011659,-0.002977,0.000361,0.002171,0.04429,0.289132,-0.956264,0.04430558601915142
-0.145883,-0.024218,0.307626,0.939946,-0.000116,-0.004669,0.007167,-0.001958,0.003463,0.002519,0.044227,0.289145,-0.956263,0.04424201454188556
-0.145927,-0.024259,0.307698,0.939914,-0.008659,-0.003737,0.001528,-0.00243,0.005725,-0.000311,0.0442,0.289247,-0.956234,0.044214549263285725
-0.146038,-0.024399,0.307683,0.939898,-0.017359,-0.012463,-0.004565,-0.004322,0.006014,-0.001096,0.044001,0.289537,-0.956155,0.044015888646376074
-0.146148,-0.024598,0.307635,0.939892,-0.015198,-0.012117,-0.00613,-0.003259,0.004885,0.002781,0.043682,0.289861,-0.956071,0.043695456371488854
-0.146244,-0.024755,0.307577,0.939892,-0.010619,-0.007065,-0.00578,-0.004588,0.003885,0.004528,0.043428,0.290135,-0.956,0.04344219155782842
-0.146355,-0.024829,0.307526,0.939889,-0.007708,-0.001099,-0.006039,-0.00436,0.002835,0.004217,0.043343,0.290385,-0.955928,0.043356509721441415
-0.146405,-0.024858,0.30749,0.939892,-0.005432,0.000218,-0.001439,-0.003588,0.002271,0.002962,0.043308,0.290497,-0.955895,0.043322026071323926
-0.146456,-0.024888,0.307455,0.939895,-0.003156,0.001535,0.00316,-0.002817,0.001708,0.001707,0.043273,0.290609,-0.955863,0.0432865620363416
-0.146521,-0.024886,0.307499,0.939871,-0.004259,0.000435,0.006104,-0.002231,0.002539,0.001152,0.04333,0.290727,-0.955824,0.04334443342394641
-0.146544,-0.024908,0.307552,0.939849,-0.001592,-0.00175,0.005883,-0.003552,0.003732,0.001593,0.043321,0.29078,-0.955809,0.04333384372628932
-0.146574,-0.024937,0.307569,0.939838,-0.003052,-0.002388,-0.000167,-0.002385,0.004708,0.000567,0.043289,0.290851,-0.955789,0.043303289070892925
-0.146613,-0.024997,0.307523,0.939846,-0.003398,-0.005389,-0.006747,-0.001551,0.004247,0.001088,0.043187,0.290961,-0.95576,0.04320051442818338
-0.146634,-0.025081,0.307432,0.93987,-0.00245,-0.007035,-0.011936,-0.001929,0.004335,0.001818,0.043014,0.291056,-0.955739,0.04302748419911657
-0.146664,-0.025181,0.30731,0.939902,-0.003768,-0.005297,-0.010855,-0.002237,0.003351,0.003069,0.042807,0.291177,-0.955711,0.042820367745795895
-0.146711,-0.025281,0.307228,0.939919,-0.009194,-0.005398,-0.008761,-0.001966,0.004574,0.004748,0.042623,0.291327,-0.955674,0.04263618622248977
-0.146848,-0.025352,0.307128,0.939928,-0.01473,0.002015,-0.006925,-0.003376,0.001604,0.002017,0.042544,0.291627,-0.955586,0.04255700043121913
-0.14696,-0.025444,0.307089,0.939921,-0.007882,-0.013873,0.000722,-0.003676,0.001626,8.1e-05,0.04243,0.291888,-0.955511,0.04244163952084715
-0.146946,-0.025591,0.307104,0.939915,0.005433,-0.002891,0.001724,-0.00118,0.002978,0.005042,0.042149,0.291952,-0.955504,0.04216116882498077
-0.146942,-0.025545,0.307122,0.939911,-2e-06,0.006272,0.004238,-0.003147,0.004459,0.000497,0.042239,0.291915,-0.955511,0.042250758227910135
-0.146947,-0.025545,0.30714,0.939904,-0.001135,-0.003251,0.000872,-0.005172,0.004489,-0.001713,0.042248,0.291924,-0.955508,0.042259484959520185
-0.146934,-0.025597,0.307172,0.939894,0.001104,-0.004507,0.002125,-0.003872,0.004163,0.000126,0.042152,0.291931,-0.95551,0.04216357958943013
-0.146908,-0.025651,0.307197,0.939888,0.001673,-0.003975,0.00346,-0.003633,0.003004,0.001754,0.042041,0.291914,-0.95552,0.04205365386316486
-0.146899,-0.025692,0.307243,0.939874,0.001855,-0.003805,0.003888,-0.003009,0.003313,0.002637,0.041974,0.29192,-0.955521,0.04198522718582635
-0.146896,-0.025728,0.307297,0.939856,0.001312,-0.001948,0.004026,-0.00293,0.002868,0.005368,0.04192,0.291934,-0.955519,0.04193245733079734
-0.146909,-0.025672,0.307353,0.939837,0.000725,0.005537,0.00669,-0.003273,0.00311,0.004811,0.042051,0.291921,-0.955517,0.04206325560423836
-0.146905,-0.025601,0.307384,0.939829,0.002288,0.005411,0.004455,-0.002862,0.005383,0.003477,0.042191,0.291871,-0.955527,0.04220389617714754
-0.146934,-0.025496,0.307379,0.939829,0.001731,0.006049,-0.000989,-0.003905,0.007215,0.002702,0.042406,0.29186,-0.955521,0.04241781064672284
-0.146952,-0.025432,0.307311,0.93985,-0.001885,0.0051,-0.007943,-0.002711,0.007763,0.002727,0.042515,0.291856,-0.955517,0.04252822035899805
-0.147004,-0.025426,0.307141,0.939898,-0.003373,0.001612,-0.018685,-0.002421,0.007394,0.001291,0.042506,0.291957,-0.955487,0.04251902833747416
-0.147045,-0.025453,0.306914,0.939965,-0.001519,0.001347,-0.024242,-0.001796,0.005916,0.001347,0.042411,0.292058,-0.95546,0.04242320386454143
-0.147052,-0.025511,0.306672,0.940041,-0.0022,-0.002254,-0.022515,-0.001804,0.004381,0.002444,0.04223,0.292117,-0.95545,0.04224325265890098
-0.14704,-0.025549,0.306481,0.940104,0.002867,-0.000511,-0.011946,-0.001835,0.001843,0.002871,0.042093,0.292127,-0.955453,0.04210493797201462
-0.147007,-0.025558,0.306388,0.94014,0.004065,-0.00115,-0.003801,-0.003694,0.001028,0.000764,0.042025,0.292075,-0.955472,0.04203854612684088
-0.146934,-0.025568,0.306393,0.940149,0.006246,-0.002831,0.006382,-0.003171,0.000619,0.001536,0.041963,0.291948,-0.955513,0.0419759645869598
-0.146882,-0.025541,0.306493,0.940125,0.004802,-0.003989,0.013631,-0.002249,0.002353,0.001031,0.042014,0.291831,-0.955547,0.04202551382650817
-0.146819,-0.025559,0.306648,0.940084,0.004181,-0.007575,0.016841,-0.002664,0.002605,0.001006,0.041989,0.291719,-0.955582,0.04200063898646393
-0.14676,-0.025606,0.306831,0.940032,0.004574,-0.007285,0.014478,-0.002944,0.003686,0.002002,0.041921,0.291632,-0.955612,0.041932403731681826
-0.146696,-0.025684,0.306981,0.939991,0.004538,-0.008326,0.010826,-0.003539,0.003799,0.00339,0.041779,0.291554,-0.955641,0.04179247666890926
-0.146646,-0.025714,0.307092,0.939962,0.001562,-0.005264,0.008077,-0.003088,0.003494,0.002121,0.041728,0.291476,-0.955668,0.041739379628588494
-0.146624,-0.025755,0.307192,0.939931,0.002638,-0.004942,0.008149,-0.004505,0.003987,0.003043,0.041667,0.291457,-0.955676,0.04167966036778705
-0.146618,-0.025792,0.30726,0.939909,0.001227,-0.00542,0.006355,-0.004939,0.003545,0.001743,0.041616,0.291464,-0.955676,0.041627448778289895
-0.146616,-0.025826,0.30732,0.939889,-0.000103,-0.003666,0.003851,-0.006025,0.002557,0.003193,0.041568,0.291479,-0.955674,0.041580892599889216
-0.146639,-0.025886,0.307375,0.939866,-0.001932,0.001794,0.004273,-0.003965,0.002536,0.003715,0.041488,0.291556,-0.955654,0.04149949346529511
-0.146694,-0.025885,0.307371,0.939859,-0.00703,0.000456,-0.000118,-0.003509,0.004186,0.002162,0.041524,0.291656,-0.955622,0.041534403367324196
-0.146782,-0.025894,0.30735,0.939851,-0.008326,0.003467,-0.004537,-0.003313,0.00405,0.001269,0.041554,0.291823,-0.955569,0.041565859810832564
-0.146895,-0.025929,0.307236,0.93987,-0.005426,0.000753,-0.01237,-0.003636,0.002771,0.00118,0.041522,0.292057,-0.955499,0.041535027367488334
-0.146964,-0.025961,0.307075,0.939911,-0.004761,0.000131,-0.014166,-0.004331,0.001706,0.00075,0.041456,0.292211,-0.955455,0.041467765128696286
-0.147023,-0.026019,0.306946,0.939942,-0.004135,0.001278,-0.009249,-0.003447,0.001811,0.00266,0.041344,0.292359,-0.955414,0.041355328794967845
-0.147087,-0.026015,0.3069,0.939947,-0.001397,0.00125,-0.003058,-0.003881,0.001054,0.002668,0.041377,0.292476,-0.955377,0.04138837354112639
-0.147101,-0.026057,0.30686,0.939957,-0.001558,-0.001306,-0.001476,-0.005296,0.002173,0.002257,0.041295,0.292529,-0.955365,0.041305651273197345
-0.147112,-0.026083,0.306865,0.939953,-0.00017,0.000933,0.002944,-0.002906,0.002151,0.00288,0.041253,0.292566,-0.955355,0.041265169717990456
-0.147123,-0.026064,0.306911,0.939937,-6.4e-05,0.002497,0.00495,-0.002926,0.003138,0.001922,0.041311,0.292571,-0.955351,0.04132205681998314
-0.14715,-0.026,0.30698,0.939912,0.00066,0.000711,0.005354,-0.004015,0.004145,0.001854,0.041469,0.292579,-0.955342,0.041480684580551465
-0.147146,-0.025996,0.307025,0.939898,-0.001783,-0.002855,0.003733,-0.004062,0.0044,0.002941,0.041487,0.292568,-0.955344,0.04149973545964874
-0.147189,-0.025988,0.307046,0.939884,-0.00253,0.001096,0.000957,-0.002323,0.004441,0.003452,0.041536,0.29264,-0.95532,0.04154812929487867
-0.14724,-0.025979,0.307063,0.939871,-0.001705,0.003356,-0.000934,-0.00372,0.006847,0.003122,0.041591,0.292728,-0.955291,0.04160209414501733
-0.147295,-0.025941,0.307032,0.939874,-0.001898,0.00366,-0.003523,-0.003823,0.003754,0.002065,0.041686,0.292806,-0.955263,0.041698096592201334
-0.147314,-0.025925,0.306995,0.939883,0.00216,0.002671,-0.002251,-0.003747,0.002629,0.001311,0.041717,0.292833,-0.955253,0.04172849833587214
-0.147326,-0.025839,0.306942,0.939901,0.00506,0.011702,-0.001662,-0.004891,0.000836,0.001437,0.041869,0.292807,-0.955255,0.041881112670191636
-0.147292,-0.025806,0.306967,0.939899,0.001651,-0.003903,0.003402,-0.005435,0.000418,-0.000822,0.041917,0.292723,-0.955278,0.04192978463354816
-0.147268,-0.02582,0.307036,0.93988,0.003117,0.004001,0.005756,-0.002417,0.000769,0.002427,0.041897,0.292683,-0.955291,0.04191001982595801
-0.14729,-0.025759,0.30711,0.939854,-0.002487,0.003311,0.009494,-0.005659,0.000202,0.000588,0.042049,0.292684,-0.955284,0.0420614666239019
-0.147311,-0.025742,0.307185,0.939827,-0.000432,0.005418,0.010703,-0.00306,0.002386,0.002098,0.042117,0.292709,-0.955274,0.04212986759377102
-0.147331,-0.025685,0.307293,0.93979,-9.3e-05,0.003254,0.006209,-0.004107,0.004105,0.001875,0.04227,0.292706,-0.955268,0.04228315597081708
-0.147343,-0.025697,0.307324,0.939778,0.001102,-0.001692,0.003204,-0.005094,0.005959,8.2e-05,0.042266,0.292734,-0.95526,0.042277723181616815
-0.147307,-0.025726,0.30733,0.93978,0.000344,-0.00142,-0.000759,-0.004075,0.006599,0.002063,0.04219,0.292686,-0.955277,0.042202686578088205
-0.147303,-0.025777,0.307297,0.93979,0.001038,-0.006195,-0.006054,-0.004653,0.007079,0.004249,0.042081,0.292711,-0.955275,0.042094036346601756
-0.147285,-0.025792,0.307228,0.939816,0.001268,0.003471,-0.007266,-0.003073,0.005772,0.006186,0.042021,0.292689,-0.955284,0.04203305950409953
-0.147312,-0.025715,0.307151,0.939838,0.001738,0.009947,-0.005274,-0.004343,0.005771,0.003549,0.042158,0.292695,-0.955276,0.04217068593026945
-0.147344,-0.025627,0.307074,0.939861,-0.000206,0.01004,-0.007189,-0.003391,0.00549,0.003708,0.042319,0.292705,-0.955266,0.042332029256236414
-0.147397,-0.025548,0.306978,0.939886,-0.002468,0.011971,-0.00468,-0.002654,0.005671,0.002366,0.042471,0.292759,-0.955243,0.04248363582041315
-0.147481,-0.025451,0.306912,0.939897,-0.001337,0.008696,-0.003192,-0.002867,0.006249,0.001611,0.042684,0.292856,-0.955203,0.0426977127295403
-0.147519,-0.025392,0.306887,0.939901,-0.002469,0.005316,-0.005236,-0.002645,0.00771,0.00016,0.042811,0.292891,-0.955187,0.042824482684124254
-0.147523,-0.025405,0.306798,0.939929,-0.00039,-0.000917,-0.004192,-0.002537,0.008538,0.00189,0.042763,0.292911,-0.955183,0.04277477305781958
-0.147534,-0.025395,0.306755,0.939942,0.001857,-0.00078,-0.001881,-0.002214,0.006712,0.000162,0.042774,0.292927,-0.955178,0.04278698417252835
-0.147515,-0.025434,0.306735,0.93995,0.001831,0.000506,-0.00043,-0.00159,0.005414,0.001279,0.042682,0.292917,-0.955185,0.04269562102323403
-0.147454,-0.025457,0.306755,0.939953,0.004447,-0.005303,0.003479,-0.001754,0.006598,0.002635,0.042608,0.292817,-0.955219,0.04262063885843703
-0.147399,-0.025468,0.306742,0.939965,0.00271,0.001846,-0.004194,-0.001608,0.004004,0.004149,0.04255,0.292724,-0.95525,0.042561719804672535
-0.147365,-0.025386,0.30678,0.93996,0.009597,-0.006368,0.007871,-0.003036,0.001994,-0.00204,0.042694,0.29261,-0.955278,0.04270660086194906
-0.147137,-0.025504,0.306904,0.939952,0.02362,-0.016121,0.012246,-0.000711,0.004745,0.005729,0.042369,0.292258,-0.9554,0.04238148247348854
-0.14693,-0.025413,0.306979,0.939963,0.015174,0.008175,0.007287,-0.000993,0.004755,0.003516,0.042434,0.291819,-0.955532,0.04244703485001906
-0.146858,-0.025377,0.307042,0.939954,0.004852,-0.006674,-3.7e-05,-0.004251,0.003677,-7e-05,0.042476,0.291663,-0.955578,0.04248950639813171
-0.14673,-0.025469,0.307051,0.939969,0.011583,-0.01474,0.003037,-0.002085,0.003693,0.001475,0.042226,0.291484,-0.955643,0.04223960495701776
-0.146589,-0.025577,0.307097,0.939973,0.00696,-0.013756,0.001081,-0.003022,0.004067,0.002341,0.04195,0.29129,-0.955715,0.0419630197518691
-0.146459,-0.025708,0.307161,0.939969,0.004827,-0.012978,0.002682,-0.002745,0.004888,0.005713,0.041643,0.291126,-0.955778,0.0416555853594061
-0.146392,-0.025765,0.307241,0.939951,0.002608,-0.00505,0.005419,-0.001722,0.004522,0.004942,0.04152,0.291034,-0.955811,0.041531512270130674
-0.146358,-0.025766,0.3073,0.939937,0.005134,0.000235,0.00619,-0.002927,0.003391,0.00169,0.041515,0.29097,-0.955831,0.04152672754669442
-0.146282,-0.025798,0.307362,0.939928,0.006662,-0.003611,0.007551,-0.001484,0.00314,0.003568,0.041426,0.290848,-0.955872,0.04143838931523285
-0.146224,-0.025746,0.307379,0.939933,0.005155,-0.001663,0.002519,-0.001687,0.004539,0.00306,0.041494,0.290709,-0.955911,0.04150525948841773
-0.146166,-0.025693,0.307397,0.939938,0.003649,0.000285,-0.002513,-0.001891,0.005938,0.002552,0.041562,0.29057,-0.955951,0.04157430102729548
-0.146122,-0.025661,0.307358,0.939958,0.003288,0.002122,-0.007243,-0.001876,0.005934,0.001607,0.041584,0.290471,-0.95598,0.04159500006196296
-0.14609,-0.025632,0.307273,0.939992,0.004157,0.00264,-0.010435,-0.002228,0.005811,0.001913,0.041592,0.290398,-0.956002,0.04160327559728886
-0.146031,-0.025643,0.307156,0.940039,0.008379,0.001928,-0.010398,-0.001897,0.004059,0.001714,0.041498,0.290303,-0.956035,0.041509675053593674
-0.145937,-0.025635,0.307065,0.940083,0.009943,0.001404,-0.007424,-0.001685,0.003588,0.002665,0.041426,0.290129,-0.956091,0.041438092380331734
-0.145841,-0.025607,0.307004,0.940119,0.007374,3.2e-05,-0.002522,-0.002621,0.002264,0.001184,0.0414,0.289939,-0.956149,0.04141212196238582
-0.145772,-0.025628,0.307005,0.940129,0.004077,-0.003574,0.001046,-0.002663,0.002133,0.000736,0.041318,0.289825,-0.956187,0.04132997911002137
-0.145733,-0.02569,0.307035,0.940123,0.002358,-0.004612,0.003486,-0.001737,0.002385,0.000357,0.041187,0.289789,-0.956204,0.04119839697518557
-0.145685,-0.02576,0.3071,0.940108,0.001541,-0.010409,0.00711,-0.001764,0.002349,0.000254,0.041046,0.289741,-0.956225,0.04105689658916331
-0.145629,-0.025876,0.307174,0.940089,0.002395,-0.011877,0.00711,-0.002551,0.002577,0.000329,0.040814,0.289705,-0.956245,0.040826739841491606
-0.145572,-0.025993,0.307248,0.94007,0.003249,-0.013345,0.007109,-0.003338,0.002806,0.000404,0.040583,0.289669,-0.956266,0.04059408079831387
-0.145499,-0.026118,0.307346,0.940046,0.005517,-0.01496,0.00981,-0.003495,0.002987,0.001873,0.040333,0.289607,-0.956295,0.04034377161570527
-0.145407,-0.026241,0.307466,0.940018,0.007845,-0.013775,0.009331,-0.003459,0.003109,0.003291,0.040081,0.289507,-0.956336,0.040092132327253005
-0.145295,-0.02634,0.307577,0.939996,0.008607,-0.012555,0.008383,-0.003763,0.005374,0.003163,0.03986,0.289356,-0.956391,0.03987037361168894
-0.145156,-0.026438,0.307665,0.939986,0.00755,-0.012448,0.005203,-0.004271,0.005548,0.002459,0.039616,0.289156,-0.956462,0.03962651158692372
-0.14505,-0.02653,0.307718,0.939982,0.005388,-0.011399,0.00242,-0.004338,0.005299,0.002492,0.039394,0.289016,-0.956513,0.03940374282447678
-0.14496,-0.026619,0.307756,0.939981,0.004721,-0.011572,0.001846,-0.004023,0.004518,0.003236,0.039182,0.288904,-0.956556,0.039191943464082515
-0.144855,-0.026724,0.307787,0.939984,0.005784,-0.008848,0.001979,-0.004255,0.004026,0.004399,0.038928,0.288773,-0.956606,0.038938546029924304
-0.144753,-0.026766,0.307816,0.939989,0.006321,-0.004426,0.001877,-0.004476,0.00376,0.004204,0.038795,0.288612,-0.95666,0.038804825826398624
-0.144689,-0.026786,0.307861,0.939984,0.003598,-0.003374,0.002335,-0.005362,0.003772,0.003091,0.038731,0.288503,-0.956695,0.038741067769328015
-0.144647,-0.026789,0.307893,0.93998,0.001642,-0.001539,0.001066,-0.004899,0.004859,0.003151,0.03871,0.288427,-0.956719,0.03871902272943348
-0.144617,-0.026814,0.307898,0.939982,0.001992,-0.00187,-0.001176,-0.004272,0.004302,0.00355,0.038645,0.288386,-0.956734,0.03865484103972868
-0.144573,-0.02683,0.307891,0.93999,0.001903,-0.000511,-0.000702,-0.004956,0.004525,0.002324,0.038585,0.288317,-0.956757,0.038595168783002023
-0.144524,-0.026843,0.30788,0.940001,0.002949,-0.003535,-0.001242,-0.004648,0.004831,0.002432,0.038528,0.288235,-0.956784,0.03853674220649339
-0.144473,-0.026854,0.307867,0.940013,0.004351,-0.000571,-0.001072,-0.004089,0.003903,0.002855,0.038471,0.288147,-0.956813,0.03848021572402099
-0.144408,-0.026858,0.307863,0.940024,0.005339,7.2e-05,-0.00024,-0.00464,0.003623,0.001999,0.038422,0.288031,-0.95685,0.03843089030256483
-0.144325,-0.026853,0.307876,0.940033,0.007878,-0.001374,0.002232,-0.004897,0.004303,0.003134,0.038384,0.287875,-0.956899,0.03839242600787403
-0.144234,-0.026813,0.307918,0.940034,0.010843,0.003474,0.00434,-0.004373,0.004006,0.00279,0.038414,0.287681,-0.956955,0.0384236802958691
-0.144138,-0.026758,0.307972,0.940033,0.009417,-0.001007,0.003671,-0.00399,0.004742,0.001786,0.038475,0.287471,-0.957016,0.038483628516640354
-0.144024,-0.026738,0.307991,0.940045,0.012006,-0.002727,0.002082,-0.004852,0.004723,0.001519,0.038447,0.287248,-0.957084,0.03845582284809716
-0.143901,-0.026733,0.307993,0.940063,0.011377,-0.002422,2e-05,-0.004283,0.003795,0.001698,0.038379,0.28702,-0.957156,0.0383890214252641
-0.143793,-0.026724,0.308008,0.940075,0.010172,-0.001776,0.001621,-0.00437,0.002865,0.002251,0.038333,0.286814,-0.957219,0.03834305465895267
-0.143678,-0.026707,0.308042,0.940082,0.012233,-0.002293,0.001959,-0.003679,0.003948,0.002704,0.038305,0.286591,-0.957287,0.03831354990549639
-0.143585,-0.026667,0.308081,0.940084,0.00872,0.001013,0.004206,-0.006173,0.00307,0.001393,0.038333,0.286395,-0.957344,0.03834257493235568
-0.143501,-0.026669,0.308133,0.94008,0.00736,-0.004215,0.007088,-0.005361,0.002902,0.001737,0.038294,0.286241,-0.957392,0.038302164774724076
-0.143409,-0.02665,0.308225,0.940064,0.009992,-0.002014,0.007604,-0.005762,0.002158,0.003243,0.038299,0.286056,-0.957447,0.038308435999032865
-0.143307,-0.02661,0.308324,0.940049,0.012259,0.001828,0.013176,-0.005271,0.001221,0.003001,0.03834,0.28584,-0.95751,0.038349966808331866
-0.14315,-0.026567,0.308451,0.940032,0.019528,-0.00291,0.011621,-0.005161,0.002488,0.002017,0.038363,0.285521,-0.957604,0.038371276341295876
-0.142946,-0.02652,0.308558,0.940029,0.022517,-0.002365,0.0084,-0.004347,0.004122,0.004701,0.038355,0.285113,-0.957726,0.03836453594464824
-0.142741,-0.026441,0.308645,0.940034,0.017309,0.001689,0.005393,-0.004755,0.005414,0.002622,0.038402,0.284683,-0.957852,0.038411158618645524
-0.142599,-0.026432,0.308674,0.940047,0.010271,-0.006824,-0.00119,-0.005463,0.00577,0.001852,0.038339,0.284416,-0.957934,0.03834796102161451
-0.142477,-0.026491,0.308678,0.940062,0.008475,-0.004804,-0.001043,-0.004326,0.004668,0.003859,0.038152,0.284228,-0.957997,0.03816192799778974
-0.142376,-0.026501,0.308673,0.940079,0.008873,-0.000136,-0.001348,-0.003927,0.004626,0.005088,0.038069,0.284049,-0.958054,0.03807838831742
-0.142309,-0.026472,0.308661,0.940094,0.004671,0.000309,-0.000729,-0.004367,0.003975,0.004461,0.038079,0.283909,-0.958095,0.038087347637507485
-0.142282,-0.02646,0.308656,0.940099,0.004341,0.006175,0.004055,-0.004283,0.002926,0.004206,0.038083,0.283853,-0.958111,0.03809155783322772
-0.142283,-0.026346,0.308699,0.940089,0.002565,0.007091,0.003442,-0.004405,0.003712,0.003057,0.03831,0.283783,-0.958123,0.03831944727609108
-0.142283,-0.026233,0.308741,0.940078,0.000789,0.008007,0.002828,-0.004526,0.004498,0.001909,0.038536,0.283713,-0.958135,0.038544602547581026
-0.142296,-0.026161,0.308769,0.940069,-0.000938,0.003614,0.002129,-0.00284,0.004949,0.000755,0.038686,0.283693,-0.958135,0.03869655382703643
-0.142328,-0.026147,0.308755,0.940069,-0.001942,0.004439,-0.002488,-0.002546,0.005443,0.002472,0.038729,0.283743,-0.958118,0.03873868336432054
-0.142347,-0.026134,0.308726,0.940076,-0.000425,0.003616,-0.002823,-0.003213,0.00404,0.002917,0.038756,0.283771,-0.958108,0.03876625654779879
-0.142323,-0.026114,0.30867,0.940099,0.001967,0.001213,-0.003986,-0.00373,0.003409,0.001414,0.038761,0.283716,-0.958125,0.03877190356311667
-0.142307,-0.026126,0.308614,0.940119,0.001175,-0.002089,-0.004053,-0.003307,0.003821,0.001999,0.038712,0.283696,-0.958132,0.03872244319926006
-0.142301,-0.026131,0.308592,0.940127,-0.001581,0.004851,-0.002378,-0.004515,0.003069,0.003782,0.038694,0.283689,-0.958135,0.03870264446731826
-0.142365,-0.0261,0.308568,0.940126,-0.004723,0.004981,0.003937,-0.005084,0.000938,0.000214,0.038785,0.28379,-0.958102,0.03879371915955049
-0.142409,-0.026151,0.308628,0.940098,-0.000518,-0.013214,0.009911,-0.004465,0.000407,0.000471,0.038733,0.283899,-0.958071,0.03874349608951117
-0.142364,-0.026205,0.308737,0.940068,0.006971,0.00479,0.01089,-0.000667,1.7e-05,0.005744,0.038637,0.283844,-0.958092,0.03864672419767721
-0.142366,-0.026088,0.308838,0.940037,0.001013,0.00951,0.01005,-0.003575,0.001196,0.000362,0.038888,0.283773,-0.958102,0.03889849967161273
-0.142373,-0.026025,0.308911,0.940014,0.00276,0.001505,0.006071,-0.003867,0.001432,-0.001298,0.039033,0.283745,-0.958105,0.039043361663193034
-0.142356,-0.026037,0.308951,0.940003,-0.001739,0.00056,0.001733,-0.003416,0.003555,0.001468,0.039013,0.283717,-0.958114,0.03902224356189121
-0.142418,-0.026063,0.308961,0.93999,-0.006816,0.000936,-0.002937,-0.002838,0.003535,0.003348,0.039004,0.283847,-0.958076,0.03901519396220377
-0.142545,-0.026103,0.308908,0.939987,-0.010759,0.000371,-0.002472,-0.003589,0.001796,0.00291,0.038993,0.284108,-0.957999,0.039003508814514164
-0.142688,-0.02612,0.308882,0.939973,-0.014282,0.006085,-0.003184,-0.003782,0.000731,0.002311,0.039044,0.284382,-0.957916,0.0390532464042141
-0.142893,-0.026122,0.308838,0.939957,-0.01826,0.005278,-0.001048,-0.003775,-9.4e-05,0.001654,0.039155,0.284761,-0.957799,0.03916447450328379
-0.143083,-0.026111,0.308839,0.939928,-0.017398,0.006702,0.000185,-0.003746,0.001538,0.001325,0.039294,0.285104,-0.957691,0.039304420299792996
-0.143298,-0.026111,0.308829,0.939898,-0.023954,0.004913,-0.003755,-0.003044,0.00473,0.002357,0.039425,0.285499,-0.957568,0.039436023750334843
-0.143543,-0.02615,0.308751,0.939885,-0.027762,0.006678,-0.009616,-0.00259,0.005412,0.003162,0.039481,0.285976,-0.957423,0.039492368979320035
-0.143862,-0.026175,0.308657,0.939866,-0.035443,0.007079,-0.008752,-0.002499,0.00514,0.002073,0.039606,0.286581,-0.957237,0.039616403477804006
-0.1442,-0.026239,0.308559,0.939845,-0.030181,0.005933,-0.005861,-0.0021,0.003712,0.00125,0.039667,0.287245,-0.957035,0.03967763972171666
-0.144493,-0.026243,0.308514,0.939815,-0.024693,0.005812,0.001096,-0.000919,0.002607,0.001786,0.03983,0.287786,-0.956866,0.03983963476579942
-0.144734,-0.026255,0.308515,0.939777,-0.01658,0.008856,0.005101,-0.001518,0.003386,0.00253,0.039959,0.288236,-0.956725,0.03996817012311137
-0.144893,-0.026201,0.308536,0.939747,-0.0099,0.009222,0.003922,-0.003147,0.005633,0.002419,0.040164,0.288493,-0.956639,0.04017559789237995
-0.145002,-0.026103,0.308565,0.939724,-0.005248,0.010173,0.003116,-0.003894,0.006782,0.001918,0.040425,0.288633,-0.956586,0.040436872210551325
-0.145067,-0.02605,0.308573,0.939713,-0.002251,0.004997,0.000983,-0.003428,0.006886,0.001184,0.040568,0.288719,-0.956554,0.04057960766921569
-0.145072,-0.025965,0.308577,0.939713,0.004181,0.004187,0.000389,-0.005091,0.005814,0.000803,0.040732,0.288677,-0.95656,0.04074374085329099
-0.145036,-0.025908,0.308594,0.939714,0.007536,0.001354,0.00303,-0.004531,0.00483,0.001519,0.040823,0.288576,-0.956586,0.040833604742945465
-0.144943,-0.025873,0.308632,0.939717,0.008226,-0.003687,0.002162,-0.004887,0.005869,0.001268,0.040841,0.288381,-0.956644,0.04085286272950819
-0.144854,-0.02587,0.308674,0.939717,0.006491,-0.007915,0.00233,-0.005715,0.006455,0.001777,0.040805,0.288214,-0.956696,0.0408157012936048
-0.144781,-0.025945,0.308716,0.939713,0.003689,-0.009956,0.004734,-0.004561,0.005053,0.002778,0.04063,0.288125,-0.95673,0.04064190237141864
-0.144767,-0.026008,0.308781,0.939692,0.001296,-0.004917,0.007386,-0.00376,0.003757,0.004038,0.040524,0.288133,-0.956732,0.040534678222461165
-0.144761,-0.026012,0.308867,0.939664,0.001565,-0.001039,0.009886,-0.004144,0.005235,0.004413,0.04054,0.288122,-0.956735,0.04054982332356171
-0.144767,-0.026053,0.308946,0.939636,-0.005156,-0.004249,0.005885,-0.004798,0.007044,0.004037,0.04049,0.288154,-0.956728,0.04050076915825036
-0.144822,-0.026129,0.308977,0.939615,-0.011243,-0.004462,-0.000687,-0.003279,0.006569,0.003215,0.040391,0.288301,-0.956688,0.04040192406856136
-0.144939,-0.026239,0.308951,0.939603,-0.013273,-0.004621,-0.00452,-0.004482,0.006938,0.003207,0.040249,0.288584,-0.956608,0.04026048727905933
-0.145058,-0.026327,0.308882,0.939605,-0.011718,-0.007122,-0.006812,-0.003605,0.005863,0.003584,0.040139,0.288858,-0.95653,0.040148433627513726
-0.145178,-0.026408,0.308801,0.93961,-0.010335,0.004174,-0.005131,-0.003946,0.004841,0.003305,0.040037,0.289131,-0.956452,0.040046484435177165
-0.145306,-0.026399,0.308745,0.939609,-0.009485,0.006343,-0.003675,-0.004276,0.005017,0.00273,0.040115,0.289362,-0.956379,0.040126293111633994
-0.145395,-0.026333,0.308713,0.939608,-0.004597,0.008476,4.5e-05,-0.002725,0.002394,0.002457,0.040286,0.289488,-0.956334,0.040296162812133045
-0.145467,-0.02626,0.308716,0.939598,-0.000991,0.007653,0.002817,-0.002807,0.003691,0.003397,0.040468,0.289574,-0.9563,0.040479347636947674
-0.145501,-0.026209,0.30873,0.939589,-0.001243,0.005958,0.002755,-0.003736,0.003187,0.001219,0.04059,0.289605,-0.956285,0.04060082492122438
-0.14555,-0.026189,0.308746,0.939577,-0.003051,0.000583,0.001159,-0.003702,0.004783,0.001056,0.040663,0.289682,-0.956259,0.04067401057831196
-0.145594,-0.026185,0.30879,0.939556,-0.003364,0.000365,0.003835,-0.003724,0.002984,0.001129,0.040711,0.289758,-0.956234,0.0407226491601131
-0.145604,-0.02621,0.308844,0.939536,-0.000623,-0.008665,0.003457,-0.003282,0.003238,0.000514,0.040688,0.28979,-0.956225,0.0406986008665851
-0.145607,-0.026349,0.308884,0.939519,-0.004302,-0.011218,0.005114,-0.003537,0.002071,0.000481,0.040439,0.289878,-0.956209,0.04045160405561678
-0.145607,-0.026518,0.308921,0.939502,-0.004809,-0.016154,-0.000753,-0.002373,0.003312,0.001279,0.040135,0.289979,-0.956191,0.0401454746232051
-0.145599,-0.026759,0.308885,0.939508,-0.00836,-0.020694,-0.010056,-0.002554,0.002892,0.002112,0.039667,0.290114,-0.95617,0.03967651423192023
-0.145607,-0.026984,0.308844,0.939514,-0.005141,-0.017024,-0.007654,-0.002772,0.003862,0.003361,0.039236,0.290266,-0.956141,0.03924607911460986
-0.145643,-0.027163,0.308787,0.939522,-0.010155,-0.00791,-0.00555,-0.003784,0.004328,0.003236,0.038906,0.290443,-0.956101,0.03891467892151714
-0.145752,-0.027238,0.308752,0.939514,-0.011808,-0.002642,-0.001876,-0.004473,0.003707,0.003863,0.038821,0.290691,-0.956029,0.038831236318087436
-0.145877,-0.027291,0.308722,0.939503,-0.008781,-0.001507,-0.000491,-0.004233,0.003704,0.001731,0.038791,0.290955,-0.95595,0.03880066058508826
-0.14593,-0.027284,0.308742,0.939489,-0.005191,0.000994,0.001542,-0.004584,0.004224,0.000268,0.038843,0.291047,-0.95592,0.038853178892575474
-0.145983,-0.027277,0.308761,0.939474,-0.001602,0.003495,0.003575,-0.004935,0.004744,-0.001196,0.038895,0.291138,-0.95589,0.038905463566402676
-0.145955,-0.027306,0.308816,0.93946,0.001407,0.002048,0.004743,-0.00428,0.002758,0.001441,0.038841,0.291102,-0.955903,0.0388504615139409
-0.145926,-0.027335,0.30887,0.939445,0.004416,0.0006,0.005911,-0.003625,0.000772,0.004078,0.038786,0.291065,-0.955917,0.03879459947189663
-0.145868,-0.027313,0.308931,0.939435,0.004939,-0.004424,0.006386,-0.004006,0.000219,0.001279,0.038808,0.290943,-0.955953,0.03881846625669844
-0.145777,-0.027398,0.309024,0.939416,0.006056,-0.014534,0.004496,-0.003534,0.002664,0.003955,0.038621,0.290824,-0.955997,0.03863055163080784
-0.145743,-0.027521,0.309042,0.939412,-0.004348,-0.008009,-0.001528,-0.003259,0.001989,0.003334,0.038374,0.290835,-0.956003,0.038383725604010654
-0.145808,-0.027608,0.309024,0.939405,-0.016788,-0.004335,-0.009201,-0.006899,0.004241,0.001361,0.038246,0.291008,-0.955956,0.03825548665890909
-0.145972,-0.027788,0.308914,0.939411,-0.020722,-0.010307,-0.013437,-0.005203,0.002398,0.000186,0.037977,0.291424,-0.95584,0.03798601766274347
-0.146136,-0.027975,0.308805,0.939415,-0.018629,-0.011629,-0.008732,-0.004658,0.002771,0.002832,0.037695,0.291843,-0.955723,0.037703718156454534
-0.146291,-0.028099,0.308714,0.939418,-0.017955,-0.003177,-0.009608,-0.004262,0.004769,0.003715,0.03753,0.292205,-0.955619,0.0375395630724169
-0.146471,-0.028241,0.308623,0.939415,-0.021553,-0.006743,-0.010117,-0.004664,0.00678,0.004435,0.037348,0.292626,-0.955497,0.037357289330153656
-0.146646,-0.028367,0.308517,0.939419,-0.018028,-0.002226,-0.007508,-0.003674,0.006825,0.004994,0.037189,0.293028,-0.95538,0.03719714765915267
-0.146821,-0.028444,0.308442,0.939414,-0.014757,0.001858,-0.005311,-0.004389,0.005923,0.003461,0.03713,0.293397,-0.955269,0.0371386789919127
-0.14692,-0.028522,0.308409,0.939407,-0.00736,-0.000241,-0.001123,-0.004443,0.007061,0.000768,0.037036,0.293628,-0.955202,0.03704383928094449
-0.146972,-0.028552,0.308369,0.939411,-0.000976,-0.002529,-0.004864,-0.004827,0.008355,0.000384,0.036999,0.293743,-0.955168,0.037007538341276264
-0.146961,-0.02864,0.308314,0.939428,0.000663,-0.00512,-0.005382,-0.004236,0.008112,0.003291,0.03681,0.293779,-0.955164,0.036818149404934074
-0.146936,-0.028726,0.308249,0.93945,0.001188,-0.00653,-0.00542,-0.004088,0.00745,0.002858,0.036612,0.293788,-0.955169,0.036620653336172204
-0.146911,-0.028813,0.308184,0.939473,0.001713,-0.007939,-0.005459,-0.003939,0.006788,0.002425,0.036414,0.293797,-0.955174,0.0364212197724937
-0.146843,-0.028917,0.308112,0.939504,0.003967,-0.008669,-0.004534,-0.004259,0.005948,0.00432,0.036152,0.293738,-0.955202,0.03616078663655322
-0.146778,-0.028996,0.308091,0.939519,-0.000992,-0.002719,-0.001434,-0.004296,0.005851,0.004539,0.035957,0.293668,-0.955231,0.0359651286718268
-0.146819,-0.029045,0.308067,0.939519,-0.003349,-0.003969,-0.004482,-0.005871,0.005322,-0.000186,0.035884,0.293774,-0.955201,0.03589122426578572
-0.146794,-0.029226,0.308065,0.939517,-0.00038,-0.025354,-0.005495,-0.005074,0.004269,0.00301,0.035527,0.293839,-0.955194,0.03553501763026464
-0.146705,-0.029331,0.308018,0.939544,0.011797,0.000298,-0.003724,-0.001884,0.003214,0.008611,0.035261,0.293741,-0.955235,0.03526734163137724
-0.146619,-0.029239,0.307986,0.939571,0.006728,0.003269,-0.005195,-0.005362,0.007191,0.000555,0.035369,0.293527,-0.955296,0.03537634409987748
-0.146553,-0.029318,0.307882,0.939613,0.003687,-0.008052,-0.009494,-0.005507,0.004907,0.001251,0.035147,0.29346,-0.955325,0.035154153845640926
-0.146519,-0.029393,0.307804,0.939641,0.003728,-0.004821,-0.011386,-0.004832,0.004274,0.004464,0.03496,0.293446,-0.955336,0.034967658332710067
-0.146488,-0.029386,0.307712,0.939676,0.000149,0.003717,-0.004869,-0.006186,0.003078,0.005627,0.034925,0.293388,-0.955355,0.0349326972961677
-0.146547,-0.029335,0.307631,0.939695,-0.00785,0.005821,-0.012502,-0.006816,0.00077,0.003931,0.035034,0.293468,-0.955327,0.035040064624837074
-0.146654,-0.029466,0.307546,0.939702,-0.010302,-0.011213,-0.011817,-0.005647,0.003094,0.004178,0.034827,0.293746,-0.955249,0.03483422825488234
-0.146622,-0.02976,0.307361,0.939758,-0.006608,-0.030254,-0.024774,-0.004548,0.004265,0.000654,0.034198,0.293872,-0.955233,0.034204041845915654
-0.146583,-0.030114,0.307133,0.939827,-0.002845,-0.02441,-0.026295,-0.003692,0.004583,0.005706,0.033438,0.294022,-0.955213,0.03344328629958351
-0.146633,-0.030289,0.306881,0.939896,-0.010166,-0.008102,-0.025999,-0.002716,0.004551,0.005326,0.033061,0.29423,-0.955163,0.033066769057928075
-0.146683,-0.030464,0.306628,0.939966,-0.017486,0.008206,-0.025703,-0.00174,0.004519,0.004945,0.032683,0.294437,-0.955112,0.03268980326949086
-0.146929,-0.030385,0.30642,0.939998,-0.014292,0.031153,-0.00955,-0.003056,0.001225,0.002568,0.03292,0.294847,-0.954977,0.032926239004350856
-0.147115,-0.030074,0.306332,0.940007,-0.006943,0.032641,-0.000715,-0.002144,0.004335,0.002212,0.033593,0.295003,-0.954906,0.033598844490957444
-0.147536,-0.029411,0.306271,0.939982,-0.008157,0.049664,0.012754,-0.004589,-7.7e-05,0.003506,0.03508,0.295377,-0.954736,0.035087574471849375
-0.147289,-0.029822,0.306246,0.940016,-0.011555,0.035418,0.001393,-0.00181,0.003766,0.002882,0.034147,0.295173,-0.954833,0.034153659380532476
