quat_x,quat_y,quat_z,quat_w,rot_x,rot_y,rot_z,acc_x,acc_y,acc_z,grav_x,grav_y,grav_z,pitch_rad
-0.008206,0.514691,0.0,0.857337,-0.016224,-0.010546,-0.014608,-0.75026,0.213892,-0.491397,0.882526,0.014071,-0.470052,1.0812095902375773
-0.07923,0.198751,-0.152907,0.9648,-0.009047,-0.012959,-0.021811,-0.229097,0.015379,-0.051167,0.359281,0.213663,-0.908441,0.3674965714728625
-0.100383,0.088414,-0.19875,0.970878,-0.011941,-0.014029,-0.008857,-0.002217,0.007283,-0.000845,0.131776,0.230065,-0.964212,0.1321605651783531
-0.1005,0.088193,-0.198686,0.970899,-0.013464,-0.010014,0.004256,-0.001962,0.006097,-0.000959,0.131316,0.230195,-0.964244,0.1316974734287263
-0.100616,0.087971,-0.198623,0.97092,-0.014986,-0.005998,0.017368,-0.001708,0.004911,-0.001072,0.130857,0.230326,-0.964275,0.13123266060142738
-0.102087,0.088022,-0.198403,0.970807,-0.013804,0.004823,0.018466,-0.005045,-0.003147,-0.000672,0.130396,0.233142,-0.963661,0.13076839289196
-0.102856,0.087873,-0.198376,0.970745,0.002016,-0.001534,0.00689,-0.00032,-0.003486,-0.001697,0.129796,0.234558,-0.963398,0.13016346551035254
-0.103188,0.087873,-0.19837,0.970711,0.006949,0.001674,0.004197,0.001115,-0.002883,-0.001293,0.129659,0.235193,-0.963261,0.13002584378218024
-0.10339,0.087961,-0.198356,0.970684,0.009104,0.015613,0.00346,0.001875,-0.004144,-0.001552,0.129748,0.235614,-0.963147,0.13011544938667302
-0.103019,0.087778,-0.198416,0.970728,0.019624,0.002983,-0.005947,0.000263,-0.002289,0.000311,0.129535,0.234839,-0.963364,0.12990091085179686
-0.102749,0.087713,-0.198471,0.970751,0.020142,0.003065,-0.006245,0.000453,-0.000682,-6.6e-05,0.12951,0.234305,-0.963498,0.1298743696890674
-0.102479,0.087649,-0.198526,0.970774,0.020661,0.003148,-0.006544,0.000642,0.000925,-0.000443,0.129485,0.23377,-0.963631,0.1298498405236109
-0.101876,0.087889,-0.198566,0.970808,0.01679,0.014268,0.001374,0.001782,0.001337,-0.002799,0.130188,0.232708,-0.963793,0.1305590641022454
-0.101642,0.088005,-0.198546,0.970826,0.022505,0.010447,0.000602,0.000618,0.000766,-0.001109,0.130513,0.2323,-0.963848,0.13088725446453037
-0.101384,0.088012,-0.198656,0.97083,0.023073,0.010576,-0.003348,0.004115,0.00213,-0.002205,0.130608,0.231821,-0.96395,0.13098251074885867
-0.101311,0.088273,-0.198765,0.970792,0.009529,0.019691,-0.007738,0.006305,0.002194,-0.003212,0.131115,0.231795,-0.963888,0.13149389079544238
-0.10129,0.088387,-0.198811,0.970774,0.006042,0.020347,-0.009091,0.006437,0.001459,-0.001823,0.131334,0.231803,-0.963856,0.13171297334938545
-0.101268,0.088502,-0.198857,0.970756,0.002554,0.021003,-0.010444,0.006569,0.000725,-0.000434,0.131552,0.231812,-0.963824,0.13193441761352867
-0.101281,0.088836,-0.199062,0.970683,0.003601,0.010952,-0.013983,0.003768,0.000197,0.001733,0.13214,0.231992,-0.963701,0.13252840247592224
-0.101276,0.088951,-0.199118,0.970661,0.00449,0.007943,-0.013697,0.004424,-2.4e-05,0.003148,0.132351,0.232033,-0.963662,0.1327402541330253
-0.101124,0.089169,-0.199273,0.970625,0.013971,-0.005414,-0.007599,0.002666,0.00148,0.004016,0.132797,0.231846,-0.963645,0.13319019718080335
-0.100872,0.08905,-0.199334,0.97065,0.020698,-0.018554,0.001306,0.003081,0.004799,-0.002564,0.132659,0.231324,-0.96379,0.13305053246366716
-0.100773,0.089026,-0.199267,0.970676,0.020953,-0.01818,0.004445,0.002167,0.003249,-0.002182,0.13267,0.231115,-0.963838,0.13306164051270453
-0.100674,0.089002,-0.199201,0.970702,0.021208,-0.017805,0.007583,0.001252,0.001699,-0.001799,0.132681,0.230907,-0.963887,0.13307251614731158
-0.100574,0.088978,-0.199134,0.970728,0.021463,-0.017431,0.010722,0.000338,0.00015,-0.001417,0.132692,0.230698,-0.963935,0.1330839676759958
-0.100373,0.088853,-0.198971,0.970794,0.024309,-0.013256,0.007853,-0.000458,-0.002069,-0.001366,0.132573,0.230241,-0.964061,0.1329647343472851
-0.100282,0.08881,-0.198939,0.970814,0.021981,-0.008835,0.00571,-0.000414,-0.002723,-0.002909,0.132535,0.230046,-0.964113,0.13292709711103465
-0.100191,0.088767,-0.198907,0.970834,0.019653,-0.004415,0.003567,-0.000369,-0.003376,-0.004452,0.132498,0.229851,-0.964164,0.13288944484198822
-0.09996,0.088707,-0.198924,0.970859,0.010375,0.003824,-0.004179,-0.000419,-0.004225,-0.002666,0.132476,0.229387,-0.964278,0.13286566689769044
-0.0998,0.088696,-0.199052,0.970851,0.003231,0.003476,-0.009218,-0.000436,-0.001484,-0.000161,0.132489,0.229093,-0.964346,0.1328811320643377
-0.099765,0.088684,-0.199084,0.970849,-0.000933,-0.000781,-0.002723,-0.000739,-0.000352,-0.000158,0.132474,0.229025,-0.964364,0.1328648823489814
-0.099755,0.08868,-0.199092,0.970848,-0.00454,0.003837,0.000552,0.000907,-0.0024,-0.002883,0.13247,0.229006,-0.964369,0.13285927437282177
-0.099745,0.088677,-0.199101,0.970848,-0.008148,0.008456,0.003826,0.002554,-0.004449,-0.005608,0.132465,0.228987,-0.964374,0.1328556033637776
-0.099564,0.088689,-0.199071,0.970872,0.015898,-0.004854,-0.002053,-0.002744,-0.006899,0.002587,0.13257,0.228638,-0.964443,0.13296214885612967
-0.099473,0.08863,-0.199112,0.970878,0.02438,-0.01039,-0.005685,-0.002877,-0.005842,0.005445,0.132485,0.228447,-0.9645,0.13287596343696523
-0.099153,0.088266,-0.199193,0.970927,0.022344,-0.008592,0.000677,0.00312,0.002511,-0.006541,0.131899,0.227705,-0.964756,0.13228398811448655
-0.09875,0.088489,-0.19907,0.970973,0.005378,0.034528,0.014001,0.002733,0.001768,-0.006459,0.132524,0.226998,-0.964836,0.13291554875250208
-0.098592,0.088726,-0.199013,0.97098,0.01339,0.030765,0.005896,0.000734,-0.002251,-0.002597,0.133059,0.226777,-0.964815,0.13345596371279175
-0.098434,0.088963,-0.198955,0.970986,0.021401,0.027002,-0.00221,-0.001265,-0.006269,0.001264,0.133595,0.226555,-0.964793,0.1339964073440885
-0.098242,0.089056,-0.199052,0.970977,0.026968,0.017008,-0.011139,0.001142,-0.003801,0.000951,0.133833,0.226236,-0.964835,0.13423488907803852
-0.098051,0.08915,-0.199149,0.970968,0.032535,0.007014,-0.020067,0.003548,-0.001334,0.000637,0.134071,0.225917,-0.964877,0.13447500798999798
-0.09774,0.089243,-0.19934,0.970951,0.017163,0.004321,-0.005938,0.000758,-0.000669,0.003343,0.134334,0.225382,-0.964965,0.13474151863564082
-0.097381,0.089084,-0.19941,0.970987,0.017606,-0.010223,-0.000988,-5.4e-05,-0.002167,0.002199,0.134161,0.22464,-0.965162,0.13456708402841513
-0.097268,0.088971,-0.19939,0.971013,0.016352,-0.014836,0.005793,0.000127,-0.000722,-0.000253,0.133996,0.224377,-0.965246,0.13439971360522804
-0.097204,0.088901,-0.199305,0.971044,0.008608,-0.0127,0.011407,0.000426,0.000723,-0.003499,0.133906,0.224215,-0.965296,0.1343105264857204
-0.097183,0.088817,-0.199018,0.971112,-0.00346,-0.003248,0.026211,-0.000779,-0.003377,-0.002049,0.13382,0.224104,-0.965334,0.13422283481179545
-0.097197,0.088756,-0.198861,0.971148,-0.002299,0.002453,0.025181,-0.000888,-0.00334,-0.002684,0.133734,0.224086,-0.96535,0.1341349065921238
-0.097212,0.088696,-0.198703,0.971185,-0.001138,0.008154,0.024151,-0.000997,-0.003303,-0.003318,0.133648,0.224069,-0.965366,0.13404891355083984
-0.097226,0.088635,-0.198545,0.971221,2.2e-05,0.013856,0.023121,-0.001106,-0.003266,-0.003952,0.133562,0.224052,-0.965382,0.13396118391482628
-0.09724,0.088575,-0.198387,0.971258,0.001183,0.019557,0.022092,-0.001215,-0.003228,-0.004587,0.133476,0.224034,-0.965398,0.1338755941822294
-0.097143,0.088599,-0.198295,0.971284,0.01114,0.012818,0.016042,-0.004449,-0.00433,-0.000318,0.133584,0.223843,-0.965427,0.13398415529156504
-0.097045,0.088623,-0.198203,0.97131,0.021098,0.006078,0.009993,-0.007683,-0.005432,0.003951,0.133692,0.223653,-0.965456,0.13409308448554463
-0.096568,0.088552,-0.198211,0.971363,0.017498,0.004204,0.007021,-0.001563,0.003952,-0.001446,0.13375,0.222709,-0.965666,0.1341526202418492
-0.096466,0.08861,-0.198175,0.971375,0.009001,0.011349,0.003834,-0.000611,0.001267,-0.003391,0.133912,0.22253,-0.965685,0.1343162778372272
-0.096365,0.088667,-0.198139,0.971387,0.000504,0.018495,0.000647,0.000342,-0.001418,-0.005337,0.134074,0.222352,-0.965704,0.13447756667663469
-0.09628,0.088861,-0.198061,0.971394,0.001873,0.019876,0.007202,0.000658,-0.004392,-0.004485,0.134499,0.222251,-0.965668,0.13490831364243305
-0.096263,0.088978,-0.198053,0.971386,0.009198,0.028339,0.000424,0.001769,-0.006318,-0.004966,0.134733,0.222261,-0.965633,0.13514462140088027
-0.095956,0.089332,-0.198229,0.971348,0.016813,0.033712,-0.009113,0.001288,-0.003954,-0.000729,0.135503,0.22183,-0.965624,0.13592051684600248
-0.095726,0.089705,-0.198474,0.971287,-0.007154,0.026026,-0.010062,0.000828,0.003934,0.004128,0.136261,0.221563,-0.965579,0.13668557388023184
-0.095753,0.08985,-0.198528,0.97126,-0.018257,0.012325,-0.006165,0.001807,0.002584,0.004345,0.136515,0.221677,-0.965517,0.13694374881592644
-0.09584,0.08995,-0.198542,0.971239,-0.023436,0.009823,-0.006093,0.003655,-0.00019,0.002842,0.136669,0.221886,-0.965447,0.13709844545117153
-0.096128,0.090107,-0.19858,0.971188,-0.022735,0.003013,-0.005345,0.004922,-0.004631,-0.001684,0.136844,0.222504,-0.96528,0.1372742090139693
-0.096277,0.09014,-0.198636,0.971159,-0.016769,-0.002987,-0.009917,0.002848,-0.005448,0.00045,0.136833,0.22281,-0.965211,0.1372630141327418
-0.096525,0.09012,-0.198717,0.971119,-0.024637,-0.008361,-0.008302,0.002173,-0.003031,4.1e-05,0.136671,0.223292,-0.965123,0.13710127820221818
-0.096774,0.090099,-0.198798,0.97108,-0.032504,-0.013735,-0.006686,0.001497,-0.000613,-0.000368,0.136509,0.223773,-0.965034,0.13693728803598287
-0.097048,0.090054,-0.19882,0.971052,-0.042954,-0.014304,-0.006965,0.001356,-0.000107,-0.000454,0.136304,0.224287,-0.964944,0.13672969601127116
-0.097808,0.089997,-0.198781,0.970989,-0.063854,-0.01514,0.000441,0.002513,-0.002406,-0.000915,0.135887,0.225721,-0.964668,0.1363091663424256
-0.098143,0.089975,-0.198776,0.970959,-0.067924,-0.014505,-0.005127,0.002476,-0.004219,-0.00118,0.135707,0.226355,-0.964545,0.13612715646375045
-0.099223,0.089987,-0.198851,0.970832,-0.076331,-0.013802,-0.032015,0.001285,-0.012075,-0.000599,0.135263,0.228445,-0.964115,0.1356792330299028
-0.099722,0.089949,-0.199151,0.970723,-0.076781,-0.016418,-0.046227,0.000622,-0.010926,-0.000311,0.134911,0.229432,-0.963929,0.13532430099311868
-0.100222,0.089911,-0.199451,0.970614,-0.077231,-0.019034,-0.060438,-4.1e-05,-0.009777,-2.4e-05,0.134559,0.230418,-0.963743,0.13496839596925353
-0.100721,0.089873,-0.199751,0.970504,-0.07768,-0.021651,-0.074649,-0.000703,-0.008628,0.000262,0.134206,0.231405,-0.963556,0.1346121411493059
-0.101768,0.089643,-0.200928,0.970173,-0.059258,-0.017964,-0.08513,0.001938,-0.003537,-0.003023,0.133042,0.23349,-0.963215,0.13343799546190574
-0.102514,0.089515,-0.201948,0.969894,-0.050296,-0.010819,-0.047404,-0.000645,0.003852,0.002157,0.132235,0.235011,-0.962956,0.13262357277086592
-0.102802,0.089455,-0.202143,0.969829,-0.046726,-0.019748,-0.037133,-0.003348,0.004752,0.003552,0.131951,0.235565,-0.962859,0.13233662710426536
-0.103084,0.089317,-0.202289,0.969781,-0.045397,-0.024861,-0.025585,-0.002091,0.005153,0.000917,0.13153,0.236074,-0.962792,0.13191257474447804
-0.103764,0.089036,-0.202477,0.969695,-0.036688,-0.025822,-0.013901,0.001526,0.0049,-0.004966,0.130655,0.237294,-0.962611,0.1310305030712093
-0.104075,0.088966,-0.202559,0.969651,-0.042717,-0.013894,-0.013516,0.002965,0.0069,-0.005321,0.13037,0.237876,-0.962507,0.13074143527092733
-0.104366,0.088961,-0.202569,0.969618,-0.051783,-0.01006,-0.007224,0.002344,0.006853,-0.003728,0.130234,0.238432,-0.962387,0.13060472514299737
-0.104656,0.088956,-0.20258,0.969585,-0.06085,-0.006225,-0.000933,0.001724,0.006806,-0.002136,0.130098,0.238987,-0.962268,0.13046820392058028
-0.105667,0.088901,-0.202552,0.969486,-0.05399,-0.023647,-0.008053,-3e-06,0.001316,0.0026,0.12957,0.240899,-0.961862,0.12993574082616802
-0.10646,0.088652,-0.202652,0.969401,-0.038991,-0.027753,-0.010149,0.00145,0.00169,0.000858,0.12873,0.242336,-0.961614,0.1290882285790692
-0.106759,0.088528,-0.20267,0.969376,-0.033139,-0.02672,-0.00838,0.000734,0.000938,0.003636,0.128361,0.242864,-0.96153,0.12871526729781352
-0.106992,0.088365,-0.20269,0.969361,-0.027677,-0.032212,-0.012652,0.000194,0.002345,0.003447,0.127943,0.24325,-0.961488,0.12829440570054076
-0.107548,0.087889,-0.20277,0.969326,-0.033142,-0.046075,-0.006058,-0.001257,0.008061,0.000289,0.12677,0.24414,-0.961418,0.1271132041811633
-0.107882,0.087666,-0.202725,0.969319,-0.042678,-0.039884,-0.000387,-0.001275,0.009238,-0.00614,0.126212,0.244687,-0.961353,0.1265493877236539
-0.108681,0.087451,-0.202516,0.969293,-0.05716,-0.009574,0.013454,-0.000404,0.002562,-0.005549,0.125511,0.246109,-0.961081,0.12584389696742684
-0.109024,0.087484,-0.202415,0.969272,-0.049346,-0.006295,0.00696,-0.003821,-0.002179,-0.003013,0.125456,0.246764,-0.960921,0.1257868418677367
-0.109321,0.087436,-0.202358,0.969255,-0.034914,-0.015198,0.001444,-0.003038,-0.000631,-0.003108,0.125251,0.247307,-0.960808,0.1255814267296879
-0.109629,0.087396,-0.202383,0.969219,-0.022884,-0.007277,-0.00371,-0.001748,0.000701,-0.003841,0.125038,0.247885,-0.960687,0.12536576441224176
-0.110033,0.087534,-0.2024,0.969157,-0.022045,0.02183,0.005108,-0.004466,0.004696,-0.003155,0.125128,0.248713,-0.960461,0.12545585559747838
-0.110108,0.087655,-0.202347,0.969148,-0.013199,0.012254,0.006035,-0.007039,0.003655,0.001957,0.125341,0.248895,-0.960386,0.1256718255352472
-0.110034,0.087689,-0.20232,0.969159,-0.007335,0.014228,0.003782,-0.005618,0.002747,0.000483,0.125446,0.248763,-0.960406,0.1257763711139185
-0.109959,0.087724,-0.202294,0.96917,-0.001472,0.016203,0.001529,-0.004197,0.001839,-0.000991,0.125551,0.248631,-0.960427,0.125883051467466
-0.109885,0.087759,-0.202267,0.969181,0.004391,0.018177,-0.000723,-0.002776,0.00093,-0.002465,0.125656,0.248498,-0.960447,0.12598954070907806
-0.109811,0.087794,-0.202241,0.969192,0.010255,0.020152,-0.002976,-0.001355,2.2e-05,-0.003939,0.125762,0.248366,-0.960468,0.12609580350374003
-0.109626,0.088002,-0.202277,0.969186,0.003972,0.02315,0.00059,-8.2e-05,0.003535,-0.003686,0.12623,0.248098,-0.960476,0.12656863559838222
-0.109632,0.088151,-0.202304,0.969166,-0.006148,0.024578,-0.002912,0.000852,0.002247,-0.003479,0.126508,0.248171,-0.96042,0.1268478176689843
-0.109655,0.088351,-0.202332,0.96914,-0.01307,0.028103,-0.00145,0.001677,0.000986,-0.002524,0.126875,0.248294,-0.96034,0.1272184294941816
-0.109769,0.088854,-0.20242,0.969062,-0.014107,0.032675,-0.006056,0.002221,-0.003801,-0.000868,0.127772,0.248717,-0.960111,0.12812142131723123
-0.109794,0.089067,-0.20248,0.969027,-0.007156,0.032156,-0.010137,0.003079,-0.004985,-0.000677,0.128155,0.248855,-0.960025,0.12850788791756484
-0.109784,0.089423,-0.202751,0.968939,-0.000908,0.023604,-0.018796,0.004309,-0.004074,0.00113,0.128772,0.24901,-0.959902,0.1291318131005938
-0.109758,0.089531,-0.202867,0.968908,-0.001271,0.017462,-0.015538,0.003018,-0.002471,0.00198,0.128963,0.249016,-0.959875,0.1293222198479379
-0.109764,0.08967,-0.20309,0.968848,-0.007136,-0.002897,-0.010771,0.000717,-5e-06,0.002908,0.129169,0.249111,-0.959822,0.1295311744097415
-0.109789,0.089606,-0.203145,0.968839,-0.009443,-0.010977,-0.005623,0.001538,0.000605,0.003004,0.129022,0.249142,-0.959834,0.12938206998979676
-0.109853,0.089548,-0.203133,0.96884,-0.012783,-0.013392,-0.000658,0.002899,0.000307,0.000669,0.128886,0.24924,-0.959827,0.12924535619917904
-0.109917,0.08949,-0.20312,0.968841,-0.016124,-0.015807,0.004308,0.00426,9e-06,-0.001667,0.12875,0.249338,-0.95982,0.12910886938060284
-0.110207,0.089239,-0.202954,0.968866,-0.0155,-0.018256,0.00728,0.002813,-0.001833,-0.000336,0.128187,0.249774,-0.959782,0.12854104702477803
-0.110387,0.089079,-0.202902,0.968871,-0.01649,-0.016033,0.001581,0.003072,-0.002155,-0.000507,0.127817,0.250049,-0.959759,0.1281672425512498
-0.110566,0.08892,-0.20285,0.968876,-0.017479,-0.013809,-0.004118,0.003331,-0.002476,-0.000677,0.127448,0.250325,-0.959737,0.1277958533249561
-0.110745,0.088843,-0.20285,0.968862,-0.018759,-0.016948,-0.006047,0.001643,-0.00038,0.000434,0.127225,0.250636,-0.959685,0.12756969752293412
-0.111069,0.088619,-0.202855,0.968845,-0.017474,-0.023254,-0.004326,-0.001132,0.00472,0.003768,0.126655,0.251172,-0.95962,0.12699543127899396
-0.11119,0.088413,-0.202843,0.968852,-0.013175,-0.031661,-0.004197,-0.001663,0.005908,0.000777,0.126209,0.251321,-0.95964,0.12654748793586168
-0.111465,0.088086,-0.202758,0.968868,-0.018148,-0.025896,0.006815,-0.000808,0.007706,0.000519,0.125486,0.251711,-0.959633,0.12581826517705252
-0.111661,0.087924,-0.202635,0.968886,-0.020854,-0.031095,0.012514,-0.002427,0.005706,0.001835,0.125123,0.252007,-0.959602,0.1254526227724893
-0.111832,0.087705,-0.202553,0.968903,-0.01572,-0.040166,0.006477,-0.002205,0.00284,0.001389,0.124652,0.252239,-0.959603,0.12497654468086004
-0.112146,0.087129,-0.202418,0.968947,-0.002605,-0.024373,7e-06,0.001918,-0.001022,-0.006436,0.123447,0.252601,-0.959663,0.1237617287492897
-0.112186,0.087046,-0.202426,0.968948,0.000995,-0.004089,-0.004939,0.003468,0.000332,-0.008957,0.123267,0.252646,-0.959674,0.1235816941903643
-0.112218,0.087107,-0.202469,0.96893,-0.004528,0.010093,-0.002853,0.00102,0.001927,-0.007304,0.12336,0.252737,-0.959639,0.12367487516269142
-0.112343,0.08737,-0.202504,0.968885,-0.011682,0.007536,0.001211,-0.00338,0.001123,0.00368,0.123803,0.25308,-0.959491,0.12412161228275259
-0.112395,0.087392,-0.20254,0.968869,-0.004494,-0.006821,-0.010392,-0.003524,0.001169,0.004615,0.123814,0.253194,-0.95946,0.12413237664232664
-0.112528,0.087275,-0.202683,0.968834,-0.013762,-0.004723,-0.006882,0.001429,0.004614,-0.00182,0.123495,0.253421,-0.959441,0.12381102715060786
-0.112664,0.087268,-0.202686,0.968819,-0.018477,-0.005113,0.00365,-0.001017,0.00299,0.001162,0.123423,0.253677,-0.959382,0.1237384847016011
-0.112771,0.087261,-0.202664,0.968811,-0.015987,-0.005497,0.002067,-0.001616,0.001503,0.001117,0.12337,0.253876,-0.959337,0.12368470113738605
-0.112878,0.087254,-0.202642,0.968804,-0.013498,-0.005882,0.000484,-0.002214,1.6e-05,0.00107,0.123317,0.254075,-0.959291,0.12363110349711891
-0.113215,0.087069,-0.202736,0.968762,-0.014652,-0.004876,-0.005062,-0.002135,0.000389,-0.001691,0.122793,0.254662,-0.959202,0.1231034569221869
-0.11338,0.087048,-0.202766,0.968738,-0.024018,0.005489,-0.00801,0.00065,0.001013,-0.003778,0.122675,0.254971,-0.959135,0.1229839816613909
-0.113581,0.087094,-0.202781,0.968707,-0.024036,0.001404,-0.007384,-0.000802,8.9e-05,-0.002653,0.122673,0.255376,-0.959028,0.12298277727071384
-0.113782,0.08714,-0.202796,0.968676,-0.024054,-0.002681,-0.006757,-0.002253,-0.000836,-0.001528,0.122671,0.25578,-0.95892,0.12298155498102875
-0.114173,0.087097,-0.20291,0.968611,-0.020941,0.005483,-0.013235,0.001516,-0.000512,-0.003918,0.122392,0.256523,-0.958758,0.12270018809001478
-0.11426,0.087169,-0.202959,0.968583,-0.022112,0.009316,-0.010347,0.000376,-0.000128,-0.002153,0.122481,0.256724,-0.958692,0.12278895060918575
-0.114347,0.087241,-0.203009,0.968556,-0.023284,0.013148,-0.007458,-0.000765,0.000255,-0.000388,0.12257,0.256925,-0.958627,0.12287763417001195
-0.11466,0.087398,-0.203094,0.968487,-0.018778,-0.000375,-0.006372,-0.004598,0.002618,0.001606,0.122714,0.257594,-0.958429,0.12302423064545191
-0.114913,0.087358,-0.203155,0.968448,-0.017656,0.002093,-0.004033,0.000797,0.001102,-0.004895,0.122513,0.258068,-0.958327,0.12282162403997565
-0.115044,0.087432,-0.20316,0.968425,-0.018153,0.005243,-0.003311,-0.001728,0.001443,-0.001954,0.122599,0.258348,-0.958241,0.1229072005268023
-0.115168,0.087469,-0.203164,0.968406,-0.019383,0.002978,-0.001753,-0.00227,0.001162,-0.00116,0.122615,0.258599,-0.958171,0.12292436462774343
-0.115478,0.087489,-0.203174,0.968365,-0.018209,0.000255,-0.002808,-0.000878,0.001027,-0.005082,0.122518,0.259201,-0.958021,0.1228269208309434
-0.115757,0.087664,-0.20318,0.968315,-0.027294,0.00745,-0.005362,-7e-06,0.00115,-0.002956,0.122733,0.259801,-0.957831,0.12304396001071524
-0.115973,0.087782,-0.203263,0.968261,-0.02617,0.007525,-0.009471,8.1e-05,0.001008,-0.002347,0.122845,0.26027,-0.957689,0.12315683074237704
-0.11619,0.0879,-0.203347,0.968206,-0.025046,0.007601,-0.013579,0.00017,0.000867,-0.001738,0.122957,0.26074,-0.957547,0.12326878400528211
-0.116406,0.088018,-0.203431,0.968152,-0.023922,0.007676,-0.017687,0.000258,0.000725,-0.00113,0.123069,0.261209,-0.957405,0.12338122655472061
-0.116771,0.088207,-0.203726,0.968029,-0.014426,0.005046,-0.021855,0.001749,0.000971,0.003018,0.123195,0.262016,-0.957168,0.12350906235849468
-0.116847,0.08822,-0.203861,0.96799,-0.005669,0.004044,-0.018613,0.00083,0.002239,0.002814,0.123151,0.262183,-0.957128,0.1234644955427281
-0.116828,0.088156,-0.204122,0.967943,0.009675,-0.003455,-0.012556,-0.000655,0.004221,0.001904,0.122966,0.262156,-0.957159,0.12327764851786487
-0.116795,0.088113,-0.204175,0.96794,0.009071,-0.004232,-0.002401,-0.002717,0.006357,0.001945,0.122883,0.262082,-0.95719,0.12319433669115827
-0.116734,0.088046,-0.204163,0.967956,0.009752,-0.00721,0.003558,-0.000674,0.005465,0.000295,0.122785,0.261938,-0.957242,0.12309440441284808
-0.116591,0.087926,-0.204014,0.968015,0.012051,-0.007198,0.013117,0.000391,0.000884,-0.001809,0.122655,0.261601,-0.957351,0.12296462402005655
-0.116521,0.087896,-0.203918,0.968047,0.014755,0.000454,0.012237,-0.000429,-0.000266,-0.003248,0.122653,0.261442,-0.957395,0.12296309088003038
-0.116334,0.087881,-0.203845,0.968086,0.009344,0.005142,-0.000246,-0.001217,-0.001524,-0.001968,0.122725,0.261071,-0.957486,0.12303469524298206
-0.116281,0.087919,-0.203882,0.968081,0.002773,0.002195,-0.001089,-0.000902,0.000379,-8.3e-05,0.122811,0.260989,-0.957498,0.1231210465717823
-0.116286,0.08796,-0.20392,0.968069,-0.006312,0.007275,-0.001673,-0.000219,9.2e-05,-2e-05,0.122877,0.26102,-0.957481,0.12318794832734371
-0.11634,0.088015,-0.203926,0.968056,-0.008462,0.004071,-0.001585,-0.000543,-0.00092,0.001029,0.122958,0.261145,-0.957437,0.12326934532458156
-0.11644,0.088012,-0.203912,0.968047,-0.008903,0.001159,-0.000261,0.000152,-4.4e-05,-0.001185,0.122913,0.261331,-0.957391,0.12322408457770322
-0.116539,0.088009,-0.203899,0.968038,-0.009345,-0.001754,0.001062,0.000848,0.000833,-0.003398,0.122868,0.261518,-0.957346,0.12317900588805117
-0.116643,0.087983,-0.203857,0.968037,-0.007188,-0.006674,0.000594,-0.001013,-0.00061,-0.000583,0.122785,0.261702,-0.957306,0.12309524474329783
-0.116748,0.087958,-0.203816,0.968035,-0.005031,-0.011594,0.000126,-0.002875,-0.002053,0.002231,0.122703,0.261887,-0.957267,0.1230126297266491
-0.116792,0.087721,-0.203801,0.968055,0.004662,-0.024749,-0.002268,-0.001018,-0.002593,-0.001576,0.122233,0.261878,-0.957329,0.12253929489367314
-0.11677,0.087581,-0.203784,0.968073,0.006466,-0.004155,-0.00085,0.0019,0.002057,-0.007699,0.121977,0.261779,-0.957389,0.12228240758185212
-0.116709,0.087658,-0.2038,0.96807,9e-05,0.016338,0.00412,0.001724,0.004536,-0.006083,0.122148,0.261695,-0.95739,0.1224533702284608
-0.116736,0.087919,-0.203731,0.968058,-0.015531,0.026882,0.014684,-0.001347,0.004427,-0.003441,0.122656,0.261837,-0.957286,0.12296554833929989
-0.116804,0.088181,-0.203624,0.968048,-0.01463,0.013158,0.00667,-0.003503,0.000372,0.002554,0.12316,0.262055,-0.957162,0.12347217693561505
-0.116887,0.088256,-0.203611,0.968035,-0.005227,0.000214,-0.001925,-0.000432,0.002222,0.002691,0.123271,0.262241,-0.957097,0.12358518809942769
-0.116965,0.088298,-0.203649,0.968013,-0.008097,0.003494,-0.000577,0.001384,0.00283,0.001253,0.123307,0.262411,-0.957045,0.12362224800959855
-0.117076,0.08832,-0.203622,0.968004,-0.003864,0.001459,0.003881,-0.002145,0.002571,0.004165,0.123309,0.262628,-0.956986,0.12362437911138964
-0.11702,0.088155,-0.203528,0.968045,0.004716,-0.008519,0.008,-0.001622,0.002861,0.002201,0.123043,0.262445,-0.95707,0.12335491994941525
-0.116964,0.087991,-0.203434,0.968087,0.013296,-0.018496,0.012119,-0.0011,0.00315,0.000237,0.122777,0.262263,-0.957154,0.12308754956212935
-0.116883,0.087814,-0.203266,0.968148,0.009779,-0.016587,0.01418,0.000357,0.005056,-0.004468,0.122518,0.262018,-0.957254,0.12282581304725586
-0.116888,0.087775,-0.203084,0.968189,0.003473,-0.013108,0.012131,-0.001353,0.001742,-0.003607,0.122488,0.261991,-0.957265,0.1227977986235323
-0.116894,0.087735,-0.202901,0.96823,-0.002832,-0.009628,0.010082,-0.003063,-0.001572,-0.002747,0.122459,0.261964,-0.957277,0.12276765705372182
-0.116938,0.087618,-0.202783,0.96826,0.006823,-0.018302,0.004067,-0.00156,-0.00232,-0.003934,0.122249,0.261988,-0.957297,0.12255448876578083
-0.116888,0.087509,-0.202791,0.968274,0.007481,-0.001216,-0.000569,0.000851,0.000285,-0.006216,0.122058,0.261851,-0.957359,0.12236283116392964
-0.116846,0.087597,-0.202766,0.968277,0.002103,0.020355,0.007824,0.000674,-0.000103,-0.004529,0.122251,0.261801,-0.957348,0.12255811215749424
-0.116764,0.087733,-0.202721,0.968284,0.008068,0.003924,0.00501,-0.0053,-0.002265,0.002247,0.12256,0.261692,-0.957338,0.12286881055505984
-0.116622,0.087698,-0.202704,0.968307,0.014942,-0.002488,0.004337,-0.003305,-0.001458,0.001836,0.122558,0.261405,-0.957417,0.12286658592413584
-0.116522,0.087648,-0.202644,0.968337,0.005553,0.005622,0.007666,-0.000693,-0.002604,-0.003993,0.122522,0.261188,-0.957481,0.1228292562154752
-0.116442,0.087726,-0.202606,0.968347,0.005524,0.007812,-0.001494,-0.000762,-0.003224,-0.002436,0.122715,0.26106,-0.957491,0.12302481966525007
-0.116386,0.087776,-0.202632,0.968344,-0.000599,0.007944,0.002497,-0.001159,-0.00205,-0.002249,0.122828,0.260975,-0.957499,0.12313862847270185
-0.116414,0.087853,-0.202698,0.96832,-0.00727,0.013316,-0.00345,0.000279,-0.000564,-0.003731,0.122947,0.261068,-0.957459,0.12325772513429939
-0.116479,0.088057,-0.202771,0.968278,-0.012142,0.016737,-0.008665,0.000484,0.000337,-0.00237,0.12329,0.261279,-0.957357,0.12360468589930443
-0.116626,0.088253,-0.202856,0.968225,-0.025013,0.023742,-0.016348,0.00077,-0.000156,-0.004864,0.123581,0.261645,-0.95722,0.12389769573111285
-0.116802,0.088415,-0.202958,0.968167,-0.026541,0.009413,-0.004422,0.000515,0.002205,0.001292,0.123789,0.262058,-0.95708,0.1241075227232015
-0.117006,0.088589,-0.202968,0.968125,-0.028382,0.011942,-0.002657,0.001025,0.001285,0.001478,0.124035,0.262514,-0.956923,0.12435375401208672
-0.117094,0.088663,-0.203017,0.968097,-0.013263,0.005132,-0.001657,0.001077,0.00119,0.001497,0.124126,0.262716,-0.956856,0.12444558343114548
-0.117181,0.088737,-0.203066,0.968069,0.001857,-0.001677,-0.000656,0.00113,0.001094,0.001516,0.124217,0.262919,-0.956788,0.12453779747171556
-0.117141,0.088703,-0.203078,0.968075,0.011252,-0.006334,0.004147,0.000578,0.002454,0.00251,0.124164,0.262829,-0.95682,0.12448606663218004
-0.11705,0.088636,-0.203006,0.968107,0.01209,-0.00809,0.008375,0.001444,0.004174,-0.000103,0.124094,0.262621,-0.956886,0.12441528525933604
-0.116959,0.088553,-0.202887,0.968151,0.009421,-0.006269,0.009748,-0.000136,0.00207,-0.000145,0.124006,0.2624,-0.956958,0.12432646947388191
-0.116901,0.088442,-0.202756,0.968195,0.007226,-0.014973,0.012485,0.000336,0.001444,-2.4e-05,0.123853,0.26223,-0.957025,0.12417229728378941
-0.11689,0.08829,-0.202589,0.968245,-0.001596,-0.014899,0.015059,5.8e-05,0.000251,-4e-06,0.123611,0.262129,-0.957083,0.12392842287053236
-0.116945,0.088179,-0.202412,0.968286,-0.001084,-0.014363,0.014638,0.000846,-0.000837,-0.001566,0.123423,0.26217,-0.957096,0.12373836149155736
-0.11697,0.088112,-0.202268,0.968319,0.002132,-0.011685,0.011433,4.9e-05,-0.000714,-0.000833,0.123322,0.262174,-0.957108,0.12363722064514357
-0.117015,0.088037,-0.202161,0.968343,-0.003058,-0.00931,0.007582,-8.6e-05,-0.000693,-0.000708,0.123188,0.262216,-0.957114,0.12350200463699272
-0.117077,0.087927,-0.202073,0.968364,-0.006346,-0.009323,0.010084,8.1e-05,0.00046,0.000452,0.122975,0.262282,-0.957123,0.12328656159472103
-0.117145,0.087883,-0.201956,0.968384,-0.005636,-0.010984,0.006722,-0.001232,-0.000321,0.001035,0.122892,0.26238,-0.957107,0.12320416590503346
-0.117214,0.087838,-0.201839,0.968404,-0.004926,-0.012644,0.003359,-0.002545,-0.001102,0.001619,0.122809,0.262478,-0.957091,0.12311944123784141
-0.117252,0.087737,-0.2018,0.968417,-0.004527,-0.008112,0.000267,8.7e-05,0.00211,-0.003306,0.122609,0.262509,-0.957108,0.12291839129097745
-0.117349,0.087716,-0.20174,0.968419,-0.008602,-0.006014,0.006137,-0.001527,0.000847,-0.000784,0.122545,0.262678,-0.95707,0.12285250447375007
-0.117398,0.087566,-0.201721,0.968431,-0.002962,-0.007825,0.001247,-0.001682,-0.000587,-0.003069,0.122241,0.262711,-0.9571,0.12254647015083892
-0.117447,0.087416,-0.201702,0.968443,0.002678,-0.009636,-0.003643,-0.001838,-0.002021,-0.005354,0.121937,0.262744,-0.957129,0.12224044386049727
-0.117391,0.087394,-0.201703,0.968451,0.004856,0.011878,-0.000534,0.001239,-0.000184,-0.009487,0.121918,0.262629,-0.957163,0.12222144476402695
-0.117311,0.087615,-0.201728,0.968436,0.00022,0.027945,0.002106,-0.000692,0.002748,-0.006451,0.122369,0.262566,-0.957123,0.12267668722896699
-0.117337,0.087954,-0.201733,0.968401,-0.017908,0.038634,0.006549,-0.002974,0.004466,-0.002202,0.123008,0.262745,-0.956992,0.12332032942027031
-0.117432,0.088293,-0.201716,0.968362,-0.017268,0.022996,-0.004529,-0.00232,-0.001199,0.001865,0.123623,0.263053,-0.956828,0.12394041467622219
-0.1175,0.088461,-0.201842,0.968312,-0.008053,0.011432,-0.015065,-0.000337,-0.000174,0.000271,0.123882,0.263264,-0.956737,0.1242019048972788
-0.117568,0.08858,-0.201947,0.968271,-0.005126,0.008436,-0.01028,-0.000375,-3.1e-05,0.001406,0.124055,0.263452,-0.956663,0.12437428954701381
-0.117635,0.0887,-0.202052,0.96823,-0.0022,0.00544,-0.005494,-0.000412,0.000113,0.00254,0.124227,0.26364,-0.956589,0.12454898829634665
-0.117636,0.088728,-0.202101,0.968217,0.001894,-0.003737,-0.001406,-0.001762,-0.000674,0.003739,0.124267,0.263658,-0.956578,0.12458928204076526
-0.117589,0.088618,-0.202076,0.968238,0.003391,-0.010358,0.004401,-0.000473,0.001243,-0.000797,0.124083,0.263524,-0.956639,0.12440343480473709
-0.117595,0.088511,-0.201987,0.968266,-0.003191,-0.012788,0.010284,-0.000165,0.002727,-0.005092,0.1239,0.263482,-0.956675,0.12421826660851994
-0.117686,0.088528,-0.201787,0.968295,-0.015158,0.00319,0.023125,0.00044,0.000842,-0.002449,0.123947,0.263636,-0.956626,0.1242670107719696
-0.117808,0.088568,-0.201553,0.968325,-0.014828,0.002152,0.017988,-0.002654,-0.006577,-0.002835,0.124037,0.263855,-0.956554,0.12435637617880434
-0.117916,0.08854,-0.201416,0.968343,0.000963,-0.014648,0.009592,-0.000667,-0.008346,-0.002478,0.123974,0.264033,-0.956513,0.1242936266284424
-0.117919,0.088518,-0.201382,0.968352,-0.003716,0.013411,0.010861,0.0017,-0.00673,-0.005867,0.12394,0.264027,-0.956519,0.12425915701378143
-0.117943,0.088724,-0.201211,0.968365,-0.008413,0.019597,0.018838,-0.002273,-0.004466,-0.003992,0.124372,0.264128,-0.956435,0.12469446310287795
-0.117965,0.088806,-0.200954,0.968408,-0.007327,-0.017283,0.033021,-0.005792,-0.006374,-0.001042,0.124589,0.264169,-0.956396,0.12491440369655406
-0.117938,0.088821,-0.200571,0.96849,-0.006942,0.001181,0.045962,-0.002669,-0.005227,-0.002668,0.124735,0.264074,-0.956403,0.1250603531210063
-0.117896,0.088983,-0.199955,0.968608,-0.01269,0.024574,0.069025,-3e-06,-0.012277,-0.003388,0.125232,0.263975,-0.956365,0.12556116665148548
-0.117836,0.089292,-0.199263,0.968729,-0.001502,0.022088,0.067637,0.001016,-0.030096,0.002435,0.126038,0.263888,-0.956283,0.12637490232989596
-0.117627,0.089606,-0.198776,0.968825,0.019337,0.038561,0.039861,0.002176,-0.046712,0.006476,0.126863,0.263544,-0.956269,0.1272049923512979
-0.117127,0.089823,-0.198669,0.968888,0.055772,0.032997,-0.003711,0.001429,-0.051537,0.006324,0.127517,0.262656,-0.956426,0.12786598966709342
-0.116398,0.089946,-0.198977,0.968901,0.076667,0.021595,-0.030368,-0.000903,-0.04159,0.007309,0.127977,0.26135,-0.956723,0.12832842176372572
-0.115513,0.089815,-0.199405,0.968931,0.074699,0.000954,-0.035451,0.000294,-0.024721,0.002475,0.127981,0.259667,-0.95718,0.1283333089516132
-0.114664,0.089671,-0.199688,0.968987,0.048442,0.013928,-0.006907,0.005756,-0.016207,-0.010717,0.127986,0.258029,-0.957623,0.12833802865515986
-0.113923,0.089739,-0.199659,0.969074,0.041356,0.021941,0.012663,0.005679,-0.019682,-0.011346,0.128436,0.256633,-0.957937,0.1287917149388633
-0.113181,0.090004,-0.199515,0.969166,0.051839,0.04129,0.029313,0.007774,-0.032548,-0.004164,0.129295,0.255297,-0.958179,0.12965799800385344
-0.112209,0.090276,-0.199288,0.969301,0.090375,0.043839,0.044276,0.006733,-0.038683,0.005444,0.130286,0.253511,-0.958519,0.13065684771119365
-0.110883,0.090607,-0.198955,0.969491,0.142875,0.055482,0.058981,0.005295,-0.048726,0.012344,0.131563,0.251054,-0.958991,0.13194641576769087
-0.108685,0.090735,-0.198595,0.969801,0.186622,0.049967,0.063001,0.005072,-0.045362,0.009484,0.132822,0.246845,-0.959909,0.13321485235892555
-0.106486,0.090863,-0.198233,0.970107,0.230369,0.044453,0.067021,0.004854,-0.041992,0.006604,0.134076,0.24263,-0.960809,0.13448056718529944
-0.103959,0.09104,-0.197719,0.97047,0.22226,0.055897,0.105775,0.006167,-0.034835,0.01195,0.135594,0.23778,-0.961808,0.13601281199367998
-0.101578,0.091266,-0.197006,0.970846,0.19462,0.045939,0.088963,0.004583,-0.04098,0.025933,0.137188,0.233194,-0.962705,0.1376215179031486
-0.099535,0.091349,-0.196444,0.971163,0.153658,0.037952,0.07554,0.008708,-0.039591,0.028329,0.138323,0.22922,-0.963496,0.13876837131885536
-0.097984,0.09144,-0.195934,0.971415,0.120976,0.027013,0.046004,0.01181,-0.051772,0.027636,0.139256,0.226198,-0.964076,0.13970963135451145
-0.096698,0.091428,-0.19594,0.971544,0.112823,0.010608,-0.022223,0.011251,-0.051809,0.022895,0.139759,0.223721,-0.964581,0.14021765563033264
-0.095596,0.09128,-0.196559,0.971542,0.094988,0.017819,-0.079769,0.0091,-0.036967,0.013054,0.139785,0.221634,-0.965059,0.1402434708053477
-0.094695,0.091163,-0.197426,0.971465,0.073737,0.003407,-0.076077,0.005901,-0.013241,0.012009,0.139734,0.219983,-0.965444,0.14019157978507923
-0.094012,0.091024,-0.198048,0.971418,0.036291,0.003457,-0.044975,0.010044,0.00058,0.004203,0.139607,0.218704,-0.965753,0.14006444306879173
-0.093634,0.091056,-0.198385,0.971383,0.003791,0.006591,-0.00971,0.003883,-0.00036,0.009269,0.139749,0.218037,-0.965883,0.1402082647627683
-0.093438,0.091059,-0.198474,0.971383,0.003817,-0.01569,-0.018888,-5.3e-05,-0.012176,0.012931,0.139817,0.217674,-0.965955,0.14027589196804774
-0.093278,0.090831,-0.198738,0.971366,0.02112,-0.017468,-0.029925,0.000378,-0.007054,0.01495,0.139384,0.217318,-0.966098,0.1398398441432095
-0.093017,0.090626,-0.198932,0.971371,0.042437,-0.020257,-0.005057,-0.006516,-0.002396,0.035475,0.139055,0.216765,-0.966269,0.13950689859888357
-0.09265,0.090186,-0.198963,0.97144,0.048435,-0.061757,0.003197,-0.004987,0.003408,0.036095,0.138353,0.215896,-0.966565,0.1387979568680139
-0.092326,0.089775,-0.198764,0.97155,0.041541,-0.034324,0.035416,-0.004915,0.002383,0.033555,0.137739,0.215087,-0.966833,0.1381789307656667
-0.09175,0.089192,-0.198442,0.971724,0.07368,-0.038103,0.021294,0.000294,0.004758,0.007605,0.136926,0.213709,-0.967254,0.137357421558668
-0.09117,0.088893,-0.198406,0.971813,0.055127,-0.008024,0.001308,-0.001878,0.017451,0.004549,0.136598,0.212474,-0.967572,0.13702579454595118
-0.091041,0.088996,-0.19834,0.971829,-0.018165,0.023166,0.016993,-0.006497,0.015424,0.019811,0.136863,0.212256,-0.967583,0.1372945662856443
-0.091424,0.089035,-0.198309,0.971796,-0.036391,-0.041232,-0.02527,-0.014221,0.008787,0.028402,0.136787,0.213004,-0.967429,0.13721750776324834
-0.092124,0.088482,-0.198726,0.971695,-0.066114,-0.076277,-0.072875,-0.009384,0.030472,0.000384,0.13534,0.2142,-0.967368,0.13575677922063967
-0.093383,0.087872,-0.199326,0.971508,-0.130384,-0.065153,-0.079865,-0.008882,0.049505,-0.025847,0.133508,0.216475,-0.967116,0.13390922649434547
-0.095316,0.087502,-0.199873,0.971241,-0.189905,-0.072331,-0.079084,-0.010264,0.062656,-0.029764,0.13187,0.220128,-0.966516,0.13225407898614794
-0.097664,0.087176,-0.200188,0.970972,-0.241891,-0.060286,-0.034666,-0.007035,0.071904,-0.037943,0.130189,0.224562,-0.965724,0.13055918461590618
-0.100364,0.087158,-0.200179,0.9707,-0.257213,-0.058194,-0.021718,-0.011907,0.061917,-0.035099,0.129027,0.229741,-0.964661,0.12938772609668095
-0.103154,0.087084,-0.200155,0.970419,-0.271921,-0.035022,-0.023272,-0.007359,0.067089,-0.039987,0.127722,0.235066,-0.963551,0.12807218866105613
-0.106158,0.087411,-0.199862,0.970126,-0.304265,-0.025167,0.027121,-0.013203,0.067085,-0.017228,0.127166,0.240913,-0.96218,0.1275107188322364
-0.109364,0.087698,-0.199063,0.969908,-0.316568,-0.055244,0.071945,-0.016854,0.062567,-0.016917,0.126578,0.247062,-0.960697,0.12691779200878342
-0.11261,0.087948,-0.198045,0.969723,-0.326058,-0.028667,0.060672,-0.00464,0.058372,-0.031245,0.125967,0.253237,-0.959168,0.12630223507203708
-0.115956,0.088805,-0.197082,0.969446,-0.364385,0.06603,0.084201,-0.000316,0.051919,-0.025806,0.126477,0.259831,-0.957336,0.1268172757418413
-0.119281,0.090272,-0.196022,0.969122,-0.32184,0.061979,0.0723,-0.014479,0.033579,0.010188,0.128206,0.266587,-0.955246,0.12855959911416112
-0.122085,0.091224,-0.195424,0.968805,-0.252872,0.019099,0.010181,-0.018242,0.038059,0.010671,0.129041,0.272207,-0.953547,0.1294006800606627
-0.124489,0.091716,-0.195327,0.968472,-0.222582,-0.007079,-0.01946,-0.014759,0.052067,0.011216,0.129016,0.276957,-0.952182,0.12937725781017534
-0.126856,0.091838,-0.195226,0.968174,-0.223212,-0.019305,-0.014247,-0.008225,0.050707,-0.002352,0.128299,0.281495,-0.950947,0.12865376347358087
-0.129222,0.091959,-0.195124,0.96787,-0.223842,-0.031532,-0.009035,-0.00169,0.049354,-0.015942,0.127581,0.286028,-0.94969,0.1279287441101575
-0.131521,0.092136,-0.195021,0.967564,-0.206448,-0.011237,-0.010147,0.001768,0.040946,-0.022043,0.126996,0.290447,-0.948426,0.12734010792646508
-0.133508,0.09233,-0.194977,0.967282,-0.158692,-0.002361,-0.015854,0.004177,0.037947,-0.023636,0.126556,0.294284,-0.947302,0.1268966054119375
-0.134823,0.092622,-0.194939,0.96708,-0.123625,0.002714,-0.003007,0.003314,0.041515,-0.020786,0.126581,0.296879,-0.946488,0.12692173797015205
-0.135948,0.092908,-0.194807,0.966921,-0.107323,0.007836,0.009415,0.006025,0.038593,-0.01935,0.126702,0.299099,-0.945773,0.12704362185300314
-0.136981,0.093268,-0.194591,0.966784,-0.097323,0.016352,0.016302,0.005842,0.028857,-0.013532,0.127029,0.30116,-0.945075,0.12737362049842935
-0.137868,0.093599,-0.194424,0.96666,-0.071508,0.012927,0.0057,0.005345,0.015341,-0.006743,0.127347,0.302938,-0.944464,0.12769386325681625
-0.138524,0.093831,-0.194426,0.966543,-0.041213,0.008355,-0.01509,0.0056,0.005518,-0.003137,0.127517,0.304266,-0.944014,0.12786620371048743
-0.13897,0.093952,-0.194661,0.96642,-0.01998,0.003298,-0.03633,0.004072,0.000826,-0.000551,0.127489,0.305185,-0.943721,0.1278380210065485
-0.139287,0.094003,-0.195082,0.966284,-0.013656,0.002198,-0.050404,0.000868,-0.001791,0.002138,0.127322,0.305859,-0.943525,0.12766895451459162
-0.139517,0.093957,-0.195633,0.966144,-0.011178,-0.005498,-0.061364,-0.002411,0.002641,0.002923,0.126964,0.306349,-0.943414,0.1273073281513558
-0.139741,0.093834,-0.19614,0.966021,-0.017054,-0.01656,-0.045512,-0.003809,0.005496,0.003312,0.126473,0.306794,-0.943335,0.12681324968344587
-0.139998,0.093664,-0.196438,0.96594,-0.023282,-0.019446,-0.025537,-0.002107,0.003157,-0.002337,0.125946,0.307258,-0.943255,0.12628111906392647
-0.140199,0.093537,-0.196541,0.965902,-0.015809,-0.015209,-0.019222,-0.00153,-7.1e-05,-0.005002,0.125586,0.307605,-0.94319,0.12591792868274504
-0.140399,0.09341,-0.196643,0.965864,-0.008335,-0.010971,-0.012907,-0.000953,-0.003298,-0.007667,0.125226,0.307951,-0.943125,0.12555537042104145
-0.140541,0.09335,-0.196749,0.965828,-0.004222,-0.003831,-0.014985,-0.000339,-0.00425,-0.009671,0.125017,0.308209,-0.943068,0.12534545459456495
-0.140619,0.093327,-0.196918,0.965784,0.000457,0.006226,-0.018782,0.001772,-0.005693,-0.010685,0.124886,0.308371,-0.943033,0.1252135579616863
-0.140604,0.093365,-0.197172,0.965731,0.005534,0.012468,-0.028153,0.002387,-0.00552,-0.006995,0.124884,0.308388,-0.943027,0.12521152565303909
-0.140519,0.093424,-0.197487,0.965673,0.008077,0.014004,-0.029784,0.001352,-0.005741,-0.001079,0.124932,0.30829,-0.943053,0.12526001676757545
-0.140357,0.093454,-0.197825,0.965625,0.01654,0.002637,-0.033892,-0.000776,-0.00531,0.00297,0.12495,0.30804,-0.943132,0.12527823275865654
-0.140113,0.093333,-0.198175,0.9656,0.026616,0.000344,-0.032987,0.001531,-0.002094,0.000634,0.124711,0.307579,-0.943315,0.1250364531673586
-0.139812,0.093242,-0.198445,0.965597,0.029407,-0.003083,-0.018356,-0.000325,-0.001039,0.003385,0.124579,0.30701,-0.943517,0.12490291598840454
-0.139504,0.093083,-0.198614,0.965622,0.02981,-0.015683,-0.01445,-0.001609,-0.000776,0.006478,0.124352,0.306392,-0.943748,0.12467381860559125
-0.139282,0.09282,-0.198707,0.965661,0.022221,-0.024464,-0.010007,-0.000236,-0.002434,0.002238,0.123913,0.305885,-0.94397,0.12423200242707434
-0.13914,0.092576,-0.198772,0.965691,0.015188,-0.017811,-0.011083,0.00347,-0.003116,-0.00478,0.123486,0.305536,-0.944139,0.12380135151131201
-0.13908,0.092448,-0.198892,0.965687,0.003416,-0.004262,-0.011955,0.003102,-0.000464,-0.008656,0.123229,0.30539,-0.94422,0.12354188678468657
-0.13915,0.09245,-0.199035,0.965648,-0.01572,0.003751,-0.013065,0.000572,0.003109,-0.008103,0.123156,0.305541,-0.944181,0.1234703517567151
-0.1394,0.092526,-0.199211,0.965568,-0.031376,0.003722,-0.021656,-0.002772,0.002891,-0.005522,0.12314,0.306065,-0.944013,0.12345361237666527
-0.139766,0.092569,-0.199381,0.965476,-0.033401,0.001725,-0.016165,-0.002621,0.00416,-0.002908,0.123013,0.306795,-0.943793,0.12332530010072809
-0.140132,0.092612,-0.199551,0.965384,-0.035427,-0.000273,-0.010673,-0.002469,0.005429,-0.000294,0.122886,0.307524,-0.943572,0.12319672313999773
-0.140464,0.092626,-0.199623,0.965319,-0.025888,-0.003226,-0.003406,-0.002463,0.003023,0.00183,0.122747,0.308166,-0.943381,0.12305793310837794
-0.140689,0.092607,-0.199633,0.965286,-0.016187,-0.000265,-0.002277,-0.001454,0.001155,0.001942,0.122613,0.308584,-0.943261,0.12292146394661578
-0.140808,0.092603,-0.199627,0.96527,-0.003612,-0.003023,0.001153,-0.003412,-0.000452,0.005316,0.122555,0.308807,-0.943196,0.12286452598733963
-0.14084,0.092519,-0.199635,0.965272,0.006026,-0.006307,-0.003149,-0.001196,-0.001115,-0.001756,0.122378,0.308838,-0.943209,0.12268636000098272
-0.140814,0.092473,-0.199691,0.965269,0.006395,0.005759,-0.005062,-0.000468,-0.001325,-0.002981,0.122284,0.308779,-0.94324,0.12259089296710414
-0.140759,0.092495,-0.199802,0.965252,0.004713,0.004476,-0.008847,-0.002123,-0.001524,-0.001662,0.122313,0.308697,-0.943263,0.12262116472637884
-0.140737,0.092452,-0.199934,0.965232,0.006925,-0.002495,-0.01502,-0.000515,-0.001264,-0.004734,0.122199,0.308657,-0.943291,0.12250522195299732
-0.140708,0.092552,-0.200137,0.965184,-0.000966,0.011776,-0.014727,-2e-06,-0.000183,-0.003804,0.122338,0.308665,-0.94327,0.12264490007914931
-0.140679,0.092653,-0.20034,0.965137,-0.008857,0.026047,-0.014435,0.000511,0.000897,-0.002874,0.122478,0.308674,-0.94325,0.12278671661755326
-0.1407,0.092846,-0.200527,0.965076,-0.0036,0.022105,-0.01682,-0.001499,-0.002078,0.000721,0.122779,0.308809,-0.943166,0.12308917900015301
-0.140677,0.092978,-0.20074,0.965022,-0.000349,0.015363,-0.019066,-0.001219,-0.001964,0.001421,0.122973,0.308842,-0.94313,0.12328469488429161
-0.140657,0.093089,-0.200944,0.964972,-0.002675,0.015015,-0.017891,-8.8e-05,-0.001085,0.00075,0.123128,0.308872,-0.9431,0.12344145371354139
-0.140679,0.093188,-0.20114,0.964919,-0.006337,0.012609,-0.013163,0.000515,0.000463,0.002246,0.123245,0.308975,-0.943051,0.12355955203333344
-0.140734,0.093293,-0.201271,0.964873,-0.008072,0.006061,-0.008442,-3.3e-05,0.000692,0.00359,0.12338,0.309135,-0.942981,0.12369564302813486
-0.140809,0.093319,-0.201339,0.964845,-0.005678,0.000367,-0.004115,0.000329,0.000985,0.000952,0.123376,0.309295,-0.942929,0.12369121606286561
-0.14084,0.093288,-0.201361,0.964839,-0.003131,-0.006661,0.000586,0.001654,0.003845,-0.001733,0.123298,0.309345,-0.942923,0.12361098365949223
-0.140903,0.093291,-0.201327,0.964837,-0.007355,-0.001923,0.004534,0.002557,0.005475,-0.004077,0.123286,0.309461,-0.942886,0.12360052968923674
-0.140974,0.093298,-0.201258,0.96484,-0.005419,-0.001015,0.007044,0.002195,0.005331,-0.005621,0.123291,0.309589,-0.942844,0.12360550110079334
-0.140992,0.093368,-0.201187,0.964846,0.000677,0.005475,0.002719,0.001223,0.003971,-0.004153,0.123441,0.309639,-0.942807,0.12375562141635911
-0.140946,0.093449,-0.201198,0.964842,0.007251,0.008035,-0.002446,-0.000352,0.002539,-0.001728,0.123611,0.309584,-0.942803,0.12392790673212659
-0.140861,0.093498,-0.201259,0.964837,0.011331,0.005756,-0.004516,-0.001677,0.00285,0.001512,0.123721,0.30945,-0.942833,0.12403940072888063
-0.140739,0.093516,-0.201344,0.964836,0.016687,0.001977,-0.004809,-0.002353,0.002624,0.002648,0.123782,0.309238,-0.942895,0.12409959207081
-0.140567,0.093466,-0.201389,0.964856,0.02243,-0.000868,0.00013,-0.002676,0.001741,0.001705,0.123745,0.3089,-0.94301,0.12406317846084071
-0.140339,0.093404,-0.201377,0.964898,0.026257,-0.003365,0.006424,-0.002948,0.00059,0.000533,0.123727,0.308445,-0.943161,0.12404645525609014
-0.140105,0.093351,-0.201338,0.964945,0.022446,-0.001868,0.007585,-0.002867,-0.000405,0.00118,0.123741,0.307978,-0.943312,0.12405821405005216
-0.139943,0.093289,-0.20127,0.964989,0.016138,-0.00202,0.006706,-0.001738,-0.002013,-0.000567,0.123713,0.307639,-0.943426,0.12403082561861613
-0.139827,0.093262,-0.201242,0.965014,0.011375,0.00327,0.001202,-0.001083,-0.004373,-0.002026,0.123721,0.307407,-0.943501,0.12403795906667797
-0.139714,0.093305,-0.201296,0.965015,0.012325,0.010193,-0.010934,-4.9e-05,-0.004912,-0.00261,0.123834,0.307216,-0.943549,0.1241524085695454
-0.139591,0.093353,-0.201481,0.96499,0.010422,0.013354,-0.016093,0.000391,-0.001194,-0.001561,0.123919,0.307026,-0.943599,0.12423891883997129
-0.139515,0.093438,-0.201714,0.964944,0.004907,0.015563,-0.023009,0.000592,0.000507,-0.001081,0.124041,0.306943,-0.94361,0.12436092326603404
-0.139488,0.093535,-0.201978,0.964883,-0.002215,0.010171,-0.02503,0.000588,0.004884,8.7e-05,0.124153,0.306963,-0.943589,0.12447483454978585
-0.139539,0.093588,-0.20221,0.964822,-0.013173,0.009481,-0.017297,0.003454,0.007118,-0.002388,0.124159,0.307108,-0.943541,0.12448038954063641
-0.139683,0.093716,-0.20232,0.964766,-0.02078,0.008441,-0.006498,0.000701,0.005105,0.000985,0.124307,0.307444,-0.943412,0.12462907287830251
-0.139875,0.093736,-0.202361,0.964727,-0.015086,-0.01102,-0.00537,-0.001611,0.00215,0.004753,0.124249,0.307819,-0.943297,0.12457073924703406
-0.140073,0.093607,-0.20234,0.964715,-0.012715,-0.01818,-0.000371,-2.7e-05,-0.00046,0.001942,0.123924,0.308142,-0.943234,0.12424280678011063
-0.140234,0.09349,-0.202304,0.964711,-0.008951,-0.011917,-0.002013,0.002709,-0.002709,-0.003191,0.123642,0.308398,-0.943188,0.12395907685130707
-0.140385,0.093459,-0.202336,0.964685,-0.013021,4.6e-05,-0.004865,0.002853,-0.002158,-0.00614,0.123506,0.308675,-0.943115,0.12382328363884085
-0.140618,0.093565,-0.202385,0.964631,-0.029021,0.007757,-0.006129,-0.001238,-0.000128,-0.003186,0.123594,0.309161,-0.942944,0.12391028930906169
-0.140941,0.093619,-0.202468,0.964561,-0.034127,-0.00392,-0.014883,-0.003582,0.000953,-0.001943,0.12353,0.309802,-0.942742,0.12384673888552518
-0.141287,0.093591,-0.202619,0.964481,-0.032146,-0.010588,-0.019632,-0.002962,0.002892,-0.001588,0.123279,0.310464,-0.942557,0.12359303316703851
-0.141603,0.093537,-0.202751,0.964412,-0.0289,-0.008725,-0.019317,-0.001821,0.004279,-0.002096,0.122996,0.311057,-0.942399,0.12330835621674781
-0.141861,0.093488,-0.202845,0.96436,-0.019635,-0.006478,-0.007966,-0.002312,0.004018,0.001832,0.12276,0.311536,-0.942271,0.12307103320888413
-0.142019,0.093412,-0.202852,0.964342,-0.005685,-0.007949,0.002614,-0.00214,0.00377,0.004429,0.122545,0.311807,-0.94221,0.12285335684199382
-0.141987,0.093321,-0.202761,0.964375,0.003314,-0.007952,0.003391,-0.00211,0.002147,0.002245,0.122414,0.3117,-0.942262,0.12272183976292976
-0.141954,0.09323,-0.202671,0.964407,0.012312,-0.007956,0.004168,-0.00208,0.000524,6.1e-05,0.122283,0.311593,-0.942314,0.12259023545862308
-0.141907,0.093151,-0.202611,0.964435,0.004634,0.001623,0.003023,-0.000389,0.000464,-0.002634,0.122173,0.311466,-0.942371,0.12247831636035525
-0.141905,0.093132,-0.202583,0.964443,0.00209,-0.002552,0.001504,-0.002821,-0.000539,-0.000751,0.122146,0.311453,-0.942379,0.12245171584250308
-0.14192,0.093034,-0.202579,0.964451,0.00651,-0.009495,-0.007454,-0.00121,-0.002279,-0.004529,0.121954,0.311443,-0.942407,0.1222577815739549
-0.141878,0.09301,-0.202688,0.964436,0.006439,0.006065,-0.011078,6.5e-05,-0.000382,-0.004282,0.121891,0.311368,-0.942439,0.12219431135048495
-0.141826,0.093111,-0.202794,0.964412,-0.003087,0.01689,-0.004122,-0.000786,0.001741,-0.003669,0.122071,0.311323,-0.942431,0.12237703503854254
-0.141837,0.093254,-0.20284,0.964387,-0.001351,0.007395,-0.001805,-0.004058,-4.9e-05,0.001403,0.122326,0.311403,-0.942372,0.12263259898116009
-0.141826,0.093286,-0.202893,0.964374,-0.000892,0.004974,-0.002497,-0.001988,0.000462,-0.000626,0.122374,0.311401,-0.942366,0.1226816920716564
-0.141816,0.093367,-0.202917,0.964363,-0.003637,0.007355,0.00052,-0.001049,-0.000149,0.000111,0.122526,0.311415,-0.942342,0.12283426543866904
-0.141821,0.093441,-0.202917,0.964355,-0.000595,0.006161,0.00023,-0.001123,-0.001079,0.001972,0.122665,0.311453,-0.942311,0.12297452494829655
-0.141788,0.093426,-0.202951,0.964354,0.006789,0.001152,-0.002699,-0.001823,-0.000436,0.001837,0.12264,0.311389,-0.942335,0.12294896540269508
-0.141732,0.09338,-0.203022,0.964352,0.007495,0.000637,-0.006819,-0.001398,0.003318,-0.002643,0.122552,0.311275,-0.942385,0.12286181850179988
-0.141683,0.093369,-0.203109,0.964342,0.003304,0.002737,-0.005444,0.000321,0.006088,-0.004409,0.122525,0.31119,-0.942416,0.12283376728930434
-0.141666,0.09341,-0.203158,0.96433,-0.001196,0.003712,-0.002878,0.001011,0.007718,-0.004011,0.122596,0.31118,-0.942411,0.12290415457396214
-0.141656,0.093462,-0.20318,0.964322,-0.00067,0.005792,0.000917,0.001983,0.007368,-0.002886,0.122692,0.311183,-0.942397,0.1230015147880001
-0.141606,0.093521,-0.203193,0.964321,0.007097,0.004174,0.002241,0.001263,0.005936,-0.001714,0.122822,0.311112,-0.942403,0.12313274651875515
-0.141512,0.093573,-0.203225,0.964323,0.015461,0.006804,-0.006172,0.000791,0.003294,-0.000734,0.122952,0.31096,-0.942437,0.12326354507204436
-0.141358,0.093564,-0.203289,0.964333,0.019256,0.002855,0.000103,0.001112,0.001984,-0.000224,0.12298,0.310672,-0.942528,0.12329277988092859
-0.141174,0.093551,-0.203279,0.964363,0.025314,-0.000314,0.001943,-0.000266,-0.000576,0.001465,0.123039,0.31032,-0.942636,0.12335139930227453
-0.140906,0.093503,-0.203286,0.964405,0.032803,-0.002475,0.007537,-0.000605,-0.000919,0.002188,0.123061,0.309797,-0.942805,0.12337383002908445
-0.140573,0.093435,-0.203202,0.964478,0.036679,-0.004462,0.010886,-0.001011,-0.00265,0.000928,0.123103,0.309132,-0.943018,0.12341563506261283
-0.140252,0.093329,-0.203098,0.964557,0.034604,-0.008259,0.014303,-0.00137,-0.003745,0.000783,0.123073,0.308473,-0.943238,0.12338530920529123
-0.13997,0.093229,-0.202974,0.964634,0.027021,-0.008476,0.015464,-0.001126,-0.005181,2.4e-05,0.123043,0.307885,-0.943434,0.12335579054676157
-0.13977,0.09311,-0.202836,0.964703,0.017578,-0.007326,0.012514,-5.6e-05,-0.00485,-0.000601,0.122946,0.307445,-0.94359,0.12325808107872267
-0.139647,0.093035,-0.202724,0.964752,0.011004,-0.006814,0.005203,-0.000582,-0.006488,-0.002141,0.122892,0.30717,-0.943687,0.12320325588711423
-0.139585,0.092964,-0.202688,0.964775,0.001005,-0.000809,-0.000903,0.000606,-0.005118,-0.003487,0.122794,0.307021,-0.943748,0.1231049810201947
-0.139603,0.092951,-0.202704,0.96477,-0.00871,0.000175,-0.002618,6.7e-05,-0.002508,-0.001068,0.122757,0.307053,-0.943742,0.1230669153094288
-0.139712,0.092966,-0.202727,0.964748,-0.016226,0.001732,-0.002297,-0.001035,-0.000695,-0.000628,0.122731,0.307268,-0.943675,0.12304095538319668
-0.139846,0.092968,-0.202731,0.964728,-0.020349,-0.004073,-0.001989,-0.001365,0.000868,0.000351,0.122676,0.307521,-0.9436,0.12298522491981996
-0.140046,0.092968,-0.202713,0.964703,-0.025762,-0.005275,0.000776,-0.000682,0.003372,-0.000429,0.122595,0.307897,-0.943488,0.12290391201227116
-0.140307,0.092969,-0.202639,0.96468,-0.030962,-0.003096,0.002979,-0.001286,0.002161,3.9e-05,0.122507,0.30838,-0.943342,0.12281585030389396
-0.140601,0.092938,-0.202608,0.964647,-0.024965,-0.010006,-0.009195,-0.001812,-0.002937,1.1e-05,0.122331,0.30892,-0.943188,0.1226381350788983
-0.140871,0.092856,-0.202719,0.964592,-0.019821,-0.007781,-0.01984,0.000313,-0.005831,-0.004521,0.122021,0.309414,-0.943066,0.12232670401103239
-0.141071,0.092859,-0.202975,0.964509,-0.01473,0.011825,-0.033765,0.002723,-0.003265,-0.007996,0.121859,0.309825,-0.942952,0.12216253590027754
-0.141227,0.093011,-0.203316,0.9644,-0.01789,0.023392,-0.030634,0.003279,0.003077,-0.007297,0.121972,0.310219,-0.942808,0.12227667666001928
-0.141402,0.093282,-0.2036,0.964288,-0.027539,0.028368,-0.023217,-0.001449,0.006056,-0.002431,0.122322,0.31069,-0.942608,0.12262965244935993
-0.141608,0.093481,-0.203812,0.964194,-0.026442,0.013262,-0.01853,-0.002765,0.005783,0.000156,0.122544,0.31118,-0.942417,0.12285362466457347
-0.141804,0.093614,-0.203961,0.96412,-0.025088,0.005029,-0.011404,-0.001832,0.006898,0.00221,0.122665,0.31162,-0.942256,0.12297500928192227
-0.142025,0.093674,-0.204025,0.964068,-0.017003,0.002589,-0.007375,-0.001154,0.003811,0.001618,0.122663,0.312067,-0.942108,0.12297261353180403
-0.14216,0.093697,-0.204049,0.964041,-0.007169,0.001135,-0.001385,0.000501,0.002087,0.003269,0.12264,0.312333,-0.942023,0.12294981848440416
-0.142207,0.093694,-0.204047,0.964035,0.003222,-0.002453,0.001355,-0.000497,-0.000219,0.003351,0.122614,0.312422,-0.941997,0.12292410405958074
-0.142202,0.093628,-0.204036,0.964045,0.007834,-0.003173,0.00166,-0.000269,-0.000498,0.000951,0.122495,0.312384,-0.942025,0.12280297985075025
-0.142158,0.093568,-0.204033,0.964057,0.008072,-0.006386,-0.001656,0.000618,-0.000875,-0.001555,0.1224,0.312278,-0.942072,0.12270763069863708
-0.142123,0.093511,-0.204067,0.964061,0.003841,0.001578,-0.00329,0.001705,-0.001702,-0.004511,0.122295,0.312196,-0.942114,0.12260230293927998
-0.142086,0.093462,-0.204139,0.964056,0.007153,-0.007323,-0.005919,-0.001409,-0.001292,-0.001687,0.122194,0.312117,-0.942153,0.12250076940913072
-0.14204,0.093321,-0.204202,0.964063,0.01109,-0.016133,-0.010507,-7e-06,-0.001135,-0.005168,0.121924,0.311983,-0.942232,0.1222290642510162
-0.14195,0.093212,-0.204312,0.964064,0.007998,-0.001524,-0.0081,0.002121,0.000588,-0.005151,0.12172,0.311787,-0.942323,0.12202307809009068
-0.141845,0.093254,-0.204338,0.964069,0.005492,0.016116,0.00133,0.00071,-0.000593,-0.002876,0.121838,0.311608,-0.942367,0.12214140224751836
-0.141706,0.093327,-0.20432,0.964086,0.013332,0.00357,0.003225,-0.00195,-0.003002,0.002861,0.122044,0.31137,-0.942419,0.12234878443666088
-0.141534,0.093295,-0.204308,0.964117,0.014828,-0.002645,0.003791,-0.001647,-0.001341,0.002275,0.122062,0.311033,-0.942528,0.1223666839420383
-0.141408,0.093204,-0.204247,0.964158,0.012367,-0.008498,0.00794,-0.001043,-0.001281,0.001723,0.121962,0.310752,-0.942634,0.12226684886282993
-0.141334,0.09311,-0.204154,0.964197,0.008462,-0.008961,0.008197,-0.00033,-0.002734,-0.000465,0.121846,0.310565,-0.94271,0.1221484836429141
-0.141285,0.093,-0.204082,0.96423,0.001215,-0.009882,0.003221,-3.6e-05,-0.002432,0.000323,0.121679,0.310423,-0.942779,0.1219816087701774
-0.141297,0.092865,-0.204051,0.964248,-0.001667,-0.012001,-0.002055,0.000171,-0.001457,-0.001943,0.121426,0.310389,-0.942823,0.12172658121898298
-0.141376,0.092773,-0.204068,0.964242,-0.010636,-0.006679,-0.005642,0.001246,0.001695,-0.003245,0.121211,0.310505,-0.942812,0.12150939525559944
-0.141505,0.092746,-0.204081,0.964223,-0.013741,-0.002071,-0.004556,0.000776,0.0019,-0.004268,0.121098,0.310741,-0.942749,0.12139664258923409
-0.141635,0.092746,-0.204128,0.964193,-0.0154,0.002546,-0.003486,0.001416,0.002594,-0.004573,0.121027,0.310991,-0.942675,0.12132417003342155
-0.141757,0.09281,-0.204155,0.964164,-0.013278,0.005203,-0.002685,0.000851,0.003135,-0.00312,0.121088,0.31125,-0.942582,0.12138519041860982
-0.141845,0.092907,-0.204164,0.96414,-0.007694,0.006431,6.1e-05,0.000667,0.002439,-0.000791,0.121231,0.311453,-0.942497,0.1215303636904612
-0.141851,0.092935,-0.204193,0.96413,0.004408,0.000918,-0.001338,-0.001051,0.001824,0.001594,0.121272,0.311478,-0.942483,0.1215721276498841
-0.14177,0.092905,-0.204185,0.964146,0.013076,-0.00255,0.002235,-0.0005,0.002077,0.000102,0.121254,0.311315,-0.94254,0.12155245522120892
-0.141638,0.092865,-0.20414,0.964179,0.015041,-0.003431,0.005102,-0.001377,0.001641,0.001107,0.121249,0.311045,-0.942629,0.12154807255527471
-0.141503,0.092789,-0.204068,0.964222,0.015989,-0.006527,0.007236,-0.001291,0.000435,0.000748,0.121186,0.310752,-0.942734,0.12148452281591436
-0.141364,0.09267,-0.204008,0.964266,0.016611,-0.007801,0.006371,-0.000494,0.000166,0.000286,0.121037,0.310436,-0.942857,0.12133579269693463
-0.141258,0.092556,-0.20394,0.964307,0.014187,-0.008302,0.006498,-0.0002,-0.000831,-0.001579,0.120888,0.310185,-0.942959,0.1211848822850499
-0.141184,0.092499,-0.203868,0.964338,0.008796,-0.004292,0.00305,-0.000643,-0.000127,-0.000697,0.120834,0.310014,-0.943022,0.12113080340840131
-0.141138,0.092422,-0.203841,0.964358,0.005324,-0.004097,-0.000152,-0.000314,-0.000476,-0.000688,0.120717,0.309894,-0.943076,0.12101149619604372
-0.141109,0.092351,-0.203843,0.964369,0.002867,-0.003643,-0.001562,0.000283,0.000592,-0.001107,0.120593,0.309813,-0.943119,0.12088693746711526
-0.141109,0.092299,-0.203855,0.964371,-0.000484,-0.003569,-0.003334,0.000201,0.001102,-0.003061,0.120491,0.309794,-0.943138,0.12078286682351334
-0.141135,0.092281,-0.203893,0.964361,-0.00306,0.001436,-0.001834,0.00118,0.000957,-0.002754,0.120431,0.309842,-0.94313,0.12072455248985282
-0.141153,0.092286,-0.20392,0.964353,0.0004,0.000933,-0.001344,3.8e-05,-0.000418,-0.000181,0.120426,0.30988,-0.943118,0.12071770729486367
-0.141131,0.092279,-0.203955,0.964349,0.003825,-0.002695,-0.005042,0.000419,0.000622,-0.00092,0.120409,0.309841,-0.943133,0.120702450412334
-0.141077,0.092299,-0.204007,0.964344,0.00307,0.003927,-0.001873,0.000359,0.000621,-0.00077,0.120454,0.309753,-0.943156,0.12074778648983508
-0.141038,0.092318,-0.204004,0.964348,0.004732,0.001174,0.000749,-0.002031,-0.001337,0.001657,0.120509,0.309686,-0.943171,0.1208023261712076
-0.140953,0.092221,-0.203994,0.964372,0.013276,-0.015326,0.001952,-0.003929,-0.000814,0.003225,0.120364,0.309488,-0.943255,0.12065610467188417
-0.140875,0.09204,-0.203942,0.964412,0.008632,-0.011503,0.005996,-0.001546,-0.002559,-0.002681,0.120069,0.309265,-0.943366,0.1203586822943744
-0.140827,0.091985,-0.2039,0.964433,-0.000389,0.004313,0.001234,0.002667,-0.002015,-0.006623,0.119998,0.309149,-0.943413,0.12028735252405211
-0.140899,0.092125,-0.203893,0.964411,-0.019819,0.021021,0.00707,0.002411,0.002005,-0.00545,0.120237,0.309337,-0.943321,0.12052769135953849
-0.141121,0.092423,-0.203823,0.964365,-0.030575,0.021938,0.004506,-0.001802,-0.000214,0.000291,0.120733,0.30986,-0.943086,0.12102684202167424
-0.141368,0.092565,-0.203823,0.964315,-0.026404,0.004811,-0.008508,-0.00188,0.000789,0.001206,0.120896,0.310381,-0.942893,0.12119198626602849
-0.141625,0.092581,-0.203874,0.964265,-0.028211,-0.004063,-0.006555,-0.000471,0.003917,-0.001485,0.120798,0.310878,-0.942742,0.12109365482032566
-0.141888,0.092629,-0.203859,0.964225,-0.025189,-0.003915,0.002566,-0.00015,0.005586,-0.0003,0.12078,0.31139,-0.942575,0.12107570140505684
-0.142074,0.092638,-0.203775,0.964214,-0.012894,-0.004815,0.008547,-0.001379,0.004323,0.000465,0.120743,0.311733,-0.942467,0.12103878210979312
-0.142126,0.092603,-0.203622,0.964242,-0.000428,-0.003169,0.014529,-0.000292,0.001959,-0.000267,0.120704,0.3118,-0.94245,0.12099847606255423
-0.142084,0.092576,-0.203484,0.96428,0.009838,-0.004483,0.010517,-0.000324,-0.000616,-0.001406,0.120715,0.311692,-0.942484,0.12100984533553058
-0.141993,0.092499,-0.203425,0.964313,0.015177,-0.003627,0.002082,-0.000274,-0.002031,-0.003128,0.120626,0.311485,-0.942564,0.12092058817598017
-0.141896,0.092459,-0.203482,0.96432,0.009609,0.008529,-0.004492,0.000746,-0.001939,-0.004522,0.120573,0.311293,-0.942634,0.12086763940563133
-0.141844,0.092499,-0.203553,0.964308,0.005343,-0.000398,-0.003837,-0.002022,-0.002739,-6.5e-05,0.12065,0.31122,-0.942648,0.12094414380845188
-0.141819,0.092453,-0.203628,0.9643,0.007503,-0.011378,-0.008955,-0.001429,-0.00355,-0.000905,0.120548,0.311164,-0.94268,0.12084210830006809
-0.141759,0.09236,-0.203743,0.964294,-0.000736,0.002742,-0.009453,0.001521,-0.002871,-0.00354,0.120359,0.311031,-0.942748,0.12065208741289417
-0.141767,0.092488,-0.203809,0.964267,-0.010686,0.015737,-0.000255,0.000108,-0.002753,-0.002135,0.120579,0.311102,-0.942696,0.12087359240852463
-0.141863,0.092637,-0.203804,0.964239,-0.012204,0.007422,-0.002385,-0.002659,-0.00573,0.001788,0.120824,0.31134,-0.942586,0.1211198439939749
-0.141955,0.092652,-0.203873,0.96421,-0.012764,0.00261,-0.006677,-0.001144,-0.002416,0.00107,0.120791,0.311528,-0.942528,0.12108606018922427
-0.142086,0.092674,-0.203929,0.964176,-0.018531,0.002769,-0.00368,-0.000401,-0.000846,0.000375,0.120758,0.311791,-0.942446,0.12105261038854706
-0.142246,0.092704,-0.203967,0.964142,-0.01944,0.004353,-0.006177,-0.00035,-0.0007,0.000574,0.120733,0.312108,-0.942344,0.12102790836988066
-0.142386,0.092726,-0.204025,0.964107,-0.015284,0.001516,-0.008019,0.000362,7.3e-05,-0.002023,0.120696,0.312388,-0.942256,0.12098993457280477
-0.142501,0.09278,-0.204105,0.964068,-0.01205,0.008497,-0.011526,0.000685,0.000792,-0.002482,0.120722,0.312636,-0.94217,0.12101729544172798
-0.142617,0.092879,-0.204243,0.964012,-0.013595,0.01181,-0.011367,0.000246,0.003608,-0.002396,0.120816,0.312909,-0.942067,0.12111175519098771
-0.142729,0.093012,-0.204363,0.963957,-0.016177,0.011728,-0.00973,0.000694,0.004382,-0.002264,0.120983,0.313185,-0.941954,0.12127917371708152
-0.142831,0.093144,-0.204465,0.963908,-0.013386,0.008553,-0.004768,-0.000565,0.004642,-0.001976,0.121156,0.31344,-0.941847,0.12145499601710495
-0.142912,0.093226,-0.204498,0.963881,-0.008613,0.003312,-0.001349,-0.000145,0.003966,-0.000327,0.121267,0.313628,-0.94177,0.12156630794388756
-0.14292,0.093267,-0.204485,0.963878,0.001985,0.004284,0.001061,0.000377,0.00217,-0.001009,0.121346,0.313658,-0.941751,0.12164581770834977
-0.142861,0.093309,-0.204472,0.963885,0.011642,0.0026,0.002911,0.000594,0.00058,0.000661,0.121456,0.313563,-0.941768,0.12175675393840547
-0.142746,0.093289,-0.204473,0.963904,0.018407,-9.7e-05,0.003255,-0.000215,0.000331,0.00293,0.121468,0.313337,-0.941842,0.12176857410395091
-0.142579,0.093215,-0.204467,0.963937,0.018758,-0.003257,0.002258,-0.000817,0.000359,0.001788,0.121401,0.312993,-0.941964,0.12170157761988755
-0.142418,0.093141,-0.204458,0.96397,0.017588,-0.006798,0.004634,-0.000414,0.000166,0.001506,0.121333,0.312661,-0.942084,0.12163295688029745
-0.142297,0.093069,-0.204394,0.964009,0.012328,-0.006365,0.004606,-0.000202,0.000559,0.001865,0.12127,0.312396,-0.942179,0.1215686223708875
-0.142216,0.092999,-0.204349,0.964037,0.005687,-0.004592,0.003766,-0.000601,0.000849,0.000973,0.121186,0.312212,-0.942251,0.12148415737254134
-0.142208,0.092941,-0.204319,0.96405,0.001027,-0.003185,0.00307,-0.002032,0.000894,1.2e-05,0.121088,0.312171,-0.942278,0.1213858234626613
-0.142247,0.092906,-0.204294,0.964053,-0.000245,-0.002807,0.001014,-0.001515,0.003009,0.002079,0.121012,0.312228,-0.942268,0.12130951170062748
-0.142302,0.092878,-0.20427,0.964053,-0.000765,-0.007527,-0.000379,-0.002136,0.004952,0.001643,0.120943,0.312318,-0.942248,0.12123936769941764
-0.142366,0.092813,-0.204246,0.964055,-0.00652,0.000593,0.001578,0.000381,0.006161,-0.005156,0.120798,0.31241,-0.942236,0.12109403352151839
-0.142368,0.092826,-0.204252,0.964052,0.006834,0.000145,-0.002809,-0.000698,0.005231,-0.002915,0.120821,0.31242,-0.942229,0.12111617879335954
-0.142222,0.092675,-0.204351,0.964067,0.030265,-0.009283,-0.018772,-0.000995,0.01179,-0.013827,0.120563,0.312099,-0.942369,0.12085740533823357
-0.141922,0.092476,-0.204655,0.964066,0.042571,-0.008994,-0.028164,-0.003573,0.030001,-0.020937,0.120216,0.311496,-0.942613,0.12050729730835921
-0.141593,0.092236,-0.204947,0.964075,0.041484,-0.01805,-0.019244,-0.008277,0.052486,-0.026089,0.119808,0.31082,-0.942888,0.12009520013050842
-0.14133,0.091953,-0.204983,0.964133,0.024979,-0.023532,0.015425,-0.007876,0.069509,-0.040749,0.11937,0.310219,-0.943141,0.11965466513168538
-0.141159,0.091824,-0.204739,0.964222,0.022866,-0.002664,0.035481,-0.0101,0.07628,-0.041633,0.119277,0.309817,-0.943285,0.11956058108718028
-0.140857,0.091812,-0.204375,0.964345,0.048277,0.006237,0.042975,-0.010488,0.076355,-0.031295,0.119501,0.309197,-0.94346,0.1197878573381632
-0.140078,0.091731,-0.204037,0.964538,0.081394,0.003826,0.039301,-0.01049,0.081074,-0.032951,0.119794,0.307653,-0.943927,0.12008226550143315
-0.139299,0.09165,-0.203699,0.96473,0.114512,0.001416,0.035626,-0.010491,0.085795,-0.034609,0.120085,0.306109,-0.944392,0.12037537561470471
-0.138273,0.091534,-0.203506,0.964929,0.122088,0.005625,0.028016,-0.009413,0.092905,-0.030465,0.120368,0.304102,-0.945004,0.12066142740651709
-0.137256,0.091396,-0.203367,0.965116,0.117389,0.003338,0.026615,-0.005684,0.08753,-0.022021,0.120588,0.302109,-0.945615,0.1208829913737335
-0.136303,0.091285,-0.203295,0.965277,0.104963,0.014284,0.012384,0.00061,0.079126,-0.016317,0.120811,0.300255,-0.946177,0.12110701233661415
-0.135507,0.091234,-0.20329,0.965395,0.091351,0.006925,0.018512,-0.00236,0.071114,-0.004432,0.121059,0.298729,-0.946629,0.12135692024104655
-0.134877,0.091071,-0.203124,0.965533,0.081758,-0.018696,0.031379,-0.004408,0.056434,0.003095,0.12107,0.297455,-0.947028,0.12136834566975464
-0.134348,0.090579,-0.202862,0.965709,0.084943,-0.050841,0.027879,-0.001113,0.047554,-0.009199,0.120437,0.296232,-0.947492,0.12073078313911456
-0.133946,0.090062,-0.202564,0.965875,0.063754,-0.043341,0.03026,0.003791,0.033437,-0.015719,0.119713,0.295237,-0.947894,0.11999978457387572
-0.133678,0.089621,-0.202424,0.965983,0.058995,-0.030477,-0.001258,0.006255,0.014124,-0.014416,0.119026,0.294543,-0.948197,0.11930830097676913
-0.133428,0.089278,-0.202668,0.965998,0.05744,-0.017349,-0.04348,0.00252,0.002094,-0.008086,0.118402,0.29397,-0.948453,0.11867997089838954
-0.133222,0.088917,-0.203426,0.9659,0.049678,-0.031609,-0.054874,-0.002421,0.006714,0.001256,0.117568,0.293534,-0.948692,0.11784076572795261
-0.133015,0.088555,-0.204185,0.965802,0.041915,-0.04587,-0.066268,-0.007362,0.011335,0.010598,0.116735,0.293096,-0.94893,0.11700061372138248
-0.132868,0.087868,-0.204801,0.965755,0.034019,-0.072768,-0.055778,-0.005024,0.014532,-0.0056,0.115296,0.292627,-0.94925,0.11555189664991854
-0.132801,0.087309,-0.205198,0.96573,0.013427,-0.03514,-0.027347,-0.002411,0.015365,-0.004816,0.114132,0.292332,-0.949482,0.11438209401455833
-0.132788,0.086943,-0.205194,0.965766,0.013998,-0.034292,0.023956,-0.006994,0.006159,0.012717,0.113439,0.292165,-0.949616,0.11368329853150524
-0.132697,0.086616,-0.204764,0.965899,0.042208,-0.037281,0.05755,-0.008732,-0.010281,0.019089,0.112982,0.291816,-0.949778,0.11322323443149068
-0.132189,0.086293,-0.20423,0.966111,0.083782,-0.013361,0.050755,-0.005173,-0.021149,0.015516,0.112742,0.290666,-0.950159,0.1129835384782162
-0.131395,0.086167,-0.203949,0.966289,0.084832,0.014988,0.027205,-0.005159,-0.012225,0.014181,0.112928,0.289079,-0.950621,0.11317010668294226
-0.130781,0.086333,-0.203758,0.966398,0.046211,0.026051,0.037846,-0.01199,-0.004756,0.0288,0.113569,0.287954,-0.950886,0.11381428717541854
-0.130482,0.08644,-0.203411,0.966502,0.009953,0.008771,0.03422,-0.016583,-0.009928,0.025152,0.114006,0.287388,-0.951005,0.11425433572074983
-0.130418,0.086585,-0.203065,0.966571,-0.019014,0.014993,0.032753,-0.013684,-0.016987,0.023028,0.114414,0.28728,-0.950989,0.11466554661110039
-0.130597,0.086754,-0.202803,0.966586,-0.03753,0.019152,0.017742,-0.006475,-0.024271,0.022653,0.11474,0.287654,-0.950836,0.11499274056522724
-0.131014,0.087121,-0.202736,0.966511,-0.059972,0.037472,-0.001041,-0.005791,-0.02955,0.028959,0.115285,0.288578,-0.95049,0.1155412042622337
-0.131587,0.087515,-0.20287,0.966369,-0.066961,0.029452,-0.020845,-0.008207,-0.023453,0.030497,0.115754,0.289831,-0.950052,0.11601352193511999
-0.132204,0.087802,-0.202938,0.966245,-0.072817,0.011737,0.009631,-0.003172,-0.021009,0.029285,0.116017,0.291119,-0.949626,0.11627991634116513
-0.132757,0.087974,-0.202619,0.96622,-0.055827,0.000408,0.045564,0.002599,-0.032687,0.018702,0.116206,0.292195,-0.949273,0.11646943735950277
-0.132992,0.088084,-0.202016,0.966304,-0.01525,0.000917,0.064101,0.004401,-0.051197,0.006939,0.116499,0.29261,-0.949109,0.11676396171124634
-0.132766,0.088117,-0.201464,0.966448,0.036604,-0.008196,0.051876,0.002601,-0.059863,0.010463,0.116825,0.292127,-0.949217,0.11709324886127537
-0.132171,0.087915,-0.200993,0.966645,0.057911,-0.013011,0.057632,0.005194,-0.046549,0.002078,0.116834,0.290866,-0.949603,0.1171017478228588
-0.131555,0.08787,-0.20024,0.96689,0.039935,-0.000114,0.09524,0.002847,-0.047575,0.004036,0.117237,0.289588,-0.949944,0.11750633167616766
-0.130782,0.087822,-0.199143,0.967226,0.05403,-0.009202,0.100056,0.00376,-0.05736,0.005548,0.117799,0.287969,-0.950367,0.1180729596447124
-0.130008,0.087773,-0.198046,0.96756,0.068124,-0.018289,0.104872,0.004678,-0.067143,0.007057,0.118357,0.286348,-0.950787,0.11863424129474158
-0.129235,0.087725,-0.196949,0.967892,0.082219,-0.027377,0.109688,0.005599,-0.076923,0.008565,0.11891,0.284725,-0.951205,0.11919327348487861
-0.128088,0.087342,-0.196089,0.968253,0.126015,-0.03995,0.061676,0.002638,-0.080125,0.009021,0.118905,0.282298,-0.95193,0.11918699697266236
-0.126651,0.086441,-0.195664,0.968609,0.13726,-0.08664,0.039394,0.001503,-0.054887,0.004224,0.117894,0.279178,-0.952975,0.11816779518669526
-0.125411,0.085358,-0.195116,0.968977,0.086383,-0.101592,0.077278,0.004162,-0.035195,0.001714,0.116482,0.276349,-0.953972,0.11674550893499178
-0.124652,0.084307,-0.194023,0.969386,0.02947,-0.106126,0.125781,0.008862,-0.044486,-0.006298,0.115081,0.274387,-0.954708,0.11533688432968618
-0.124109,0.083481,-0.192623,0.969806,0.031347,-0.084375,0.127141,0.011668,-0.06773,-0.013336,0.114107,0.272884,-0.955256,0.11435734393404566
-0.12334,0.082801,-0.191566,0.970172,0.078979,-0.053635,0.06997,0.007641,-0.076666,-0.014809,0.113406,0.271046,-0.955862,0.11365143061402214
-0.122243,0.082174,-0.191041,0.970468,0.115398,-0.045787,0.04084,0.006872,-0.064205,-0.014871,0.112788,0.268662,-0.956608,0.1130281337552789
-0.120804,0.081753,-0.190804,0.97073,0.137179,-0.009162,0.02086,0.009045,-0.054721,-0.012257,0.11262,0.265733,-0.957446,0.11285984311896888
-0.118914,0.081534,-0.190796,0.970983,0.168844,0.021977,-0.004212,0.008871,-0.044449,-0.010004,0.11296,0.262039,-0.958423,0.11320123983347674
-0.116555,0.081502,-0.19113,0.971206,0.206268,0.036629,-0.024239,0.00468,-0.025316,-0.002601,0.113756,0.257553,-0.959545,0.11400293114889971
-0.113964,0.081419,-0.191476,0.971453,0.233267,0.048707,-0.005524,0.009084,-0.012432,-0.008488,0.114547,0.2526,-0.960766,0.11479870622691943
-0.110874,0.081573,-0.191756,0.971742,0.253111,0.057369,-0.004662,0.007397,-0.004496,-0.003657,0.116014,0.246766,-0.962106,0.11627614544552584
-0.107783,0.081726,-0.192034,0.972022,0.272955,0.066031,-0.003799,0.005708,0.003447,0.001137,0.117482,0.240924,-0.963407,0.11775488581169118
-0.104691,0.081878,-0.19231,0.972292,0.292799,0.074694,-0.002937,0.004018,0.011398,0.005893,0.118952,0.235073,-0.964671,0.11923472062110942
-0.101869,0.082,-0.192539,0.972537,0.255845,0.057248,0.013725,0.002912,0.021802,0.009197,0.120269,0.229719,-0.965797,0.12056039878756744
-0.099571,0.082165,-0.192553,0.972758,0.205354,0.052351,0.029458,0.005309,0.019214,0.002344,0.121509,0.22536,-0.966669,0.12180893084790148
-0.097641,0.082437,-0.192484,0.972944,0.181178,0.069101,0.025553,0.009505,0.005918,-0.003972,0.122824,0.221734,-0.967341,0.12313544293649026
-0.09587,0.082872,-0.192535,0.973073,0.179518,0.082787,0.007978,0.01002,-0.00107,-0.004937,0.124364,0.218488,-0.967883,0.12468718241482736
-0.094246,0.083407,-0.192725,0.973148,0.167105,0.080352,0.007294,0.004849,-0.000512,0.002836,0.126008,0.215579,-0.968322,0.12634345135255548
-0.09277,0.08386,-0.192926,0.973212,0.150863,0.05343,-0.004125,-0.000571,0.002642,0.011888,0.127431,0.212927,-0.968723,0.12777906136816852
-0.091511,0.084047,-0.1931,0.97328,0.111251,0.03117,-0.004236,0.001494,0.008895,0.004863,0.128262,0.21059,-0.969124,0.12861527690485744
-0.09065,0.08422,-0.193141,0.973337,0.06291,0.027555,0.013004,0.003298,0.009445,0.002859,0.128932,0.208999,-0.969379,0.12929233944608753
-0.090129,0.084428,-0.193003,0.973395,0.037607,0.027862,0.02462,0.007559,-0.001077,0.000836,0.129573,0.208051,-0.969498,0.12993859079328476
-0.089743,0.084609,-0.192845,0.973447,0.045611,0.0166,0.015286,0.005356,-0.013058,0.000852,0.130112,0.207352,-0.969575,0.13048171396914282
-0.089293,0.084749,-0.192863,0.973472,0.05855,0.021331,-0.009076,0.00246,-0.013488,0.000903,0.130559,0.206539,-0.969689,0.13093270954206634
-0.088753,0.084722,-0.193118,0.973474,0.062943,-0.006844,-0.023912,-0.000972,-0.002678,0.001017,0.130669,0.205519,-0.96989,0.1310444663442108
-0.088298,0.084567,-0.193361,0.97348,0.040098,-0.007806,-0.016412,0.001133,0.006718,-0.007406,0.130502,0.204617,-0.970104,0.13087507829314
-0.087941,0.084483,-0.19348,0.973496,0.022419,-0.0006,-0.002966,0.00051,0.004841,-0.006145,0.130458,0.203912,-0.970258,0.13083098999207335
-0.087636,0.08445,-0.193495,0.973523,0.025238,0.003236,0.001145,-0.001108,-0.001816,-0.004691,0.130513,0.203312,-0.970376,0.13088717363717275
-0.087226,0.084416,-0.193567,0.973549,0.045908,0.008673,-0.012277,0.000129,-0.005026,-0.002945,0.130597,0.202518,-0.970531,0.1309721967788354
-0.086773,0.08439,-0.193788,0.973548,0.056794,0.006774,-0.019675,-0.000806,-0.003118,0.000375,0.130685,0.201663,-0.970698,0.13105916684509566
-0.086283,0.084342,-0.194043,0.973544,0.049076,0.009745,-0.020948,-0.000921,0.001786,-0.000152,0.130737,0.200733,-0.970883,0.1311113874313113
-0.085851,0.084281,-0.194273,0.973542,0.042222,0.003097,-0.015157,-0.002789,0.00183,-0.001043,0.130745,0.199906,-0.971053,0.1311205180025584
-0.085451,0.084234,-0.194407,0.973555,0.036471,0.007502,-0.006103,-0.001511,-0.000422,-0.001414,0.130788,0.199134,-0.971205,0.13116408678851912
-0.085049,0.08423,-0.19443,0.973586,0.037549,0.008825,0.001716,-0.001313,-0.001464,-0.002027,0.130939,0.198358,-0.971344,0.13131521118735082
-0.084731,0.084262,-0.194423,0.973612,0.03435,0.005725,0.007461,-0.003523,-0.002082,0.000778,0.131129,0.197754,-0.971441,0.13150841182747589
-0.084466,0.084231,-0.194406,0.973641,0.023113,0.005148,0.003834,-0.00171,-0.000139,-0.003266,0.13118,0.19723,-0.971541,0.13155928879643736
-0.084346,0.08427,-0.194407,0.973648,0.003029,0.005204,0.001418,-0.000386,-0.001162,-0.002845,0.131304,0.197012,-0.971569,0.13168397985391952
-0.084411,0.084368,-0.194417,0.973632,-0.016445,0.018257,-0.009756,0.001353,-0.005291,-0.00453,0.131466,0.197176,-0.971514,0.13184656330924777
-0.084562,0.084554,-0.194576,0.973571,-0.023169,0.015064,-0.018854,-0.001369,-0.00344,-0.00056,0.131732,0.197558,-0.9714,0.13211517020711203
-0.08484,0.084687,-0.194819,0.973486,-0.03001,0.009309,-0.027993,-0.002408,0.001697,-0.002218,0.131826,0.198179,-0.971261,0.1322111639538577
-0.085317,0.08485,-0.19496,0.973402,-0.03707,0.011884,-0.022178,-0.002336,0.00073,-0.00226,0.131919,0.199181,-0.971043,0.13230516985820967
-0.085795,0.085013,-0.195101,0.973318,-0.044131,0.014458,-0.016364,-0.002263,-0.000237,-0.002303,0.132013,0.200183,-0.970824,0.13239845663661093
-0.086272,0.085177,-0.195241,0.973233,-0.051191,0.017033,-0.010549,-0.00219,-0.001204,-0.002347,0.132106,0.201185,-0.970604,0.13249377717034627
-0.086648,0.085397,-0.195328,0.973163,-0.032234,0.014223,-0.009371,-0.002096,-0.004903,5.3e-05,0.132361,0.202006,-0.970399,0.1327503996384483
-0.086898,0.08551,-0.195456,0.973105,-0.014042,0.010042,-0.012323,-0.001653,-0.005226,-0.00108,0.13245,0.20255,-0.970273,0.13284130580447265
-0.086996,0.085608,-0.195633,0.973052,-0.000414,0.004731,-0.021227,-0.002444,-0.00384,0.001829,0.132564,0.202798,-0.970206,0.13295485525100398
-0.086998,0.085578,-0.195883,0.973004,-0.001029,-0.00104,-0.022197,-0.002225,-0.001935,-0.001519,0.132453,0.202825,-0.970216,0.13284298866338515
-0.087034,0.085544,-0.196099,0.972961,-0.004754,-0.001004,-0.018521,-0.002364,-0.002656,-0.003286,0.132327,0.202912,-0.970215,0.13271665330197607
-0.087082,0.085547,-0.196277,0.97292,-0.006911,0.009997,-0.017432,-0.001197,-0.00495,-0.005032,0.132276,0.20303,-0.970197,0.13266519719140246
-0.087078,0.085622,-0.196469,0.972875,-0.001178,0.014803,-0.018654,-0.001319,-0.006457,-0.005378,0.132384,0.203076,-0.970172,0.13277250516610745
-0.087051,0.085771,-0.196695,0.972819,-0.002212,0.022339,-0.022938,-0.001727,-0.005449,-0.00557,0.132634,0.203111,-0.970131,0.1330263159770784
-0.087073,0.086059,-0.196973,0.972735,-0.012095,0.042336,-0.029573,-0.003362,-0.004148,-0.004205,0.133123,0.2033,-0.970024,0.13351950812478453
-0.087116,0.086419,-0.197322,0.972629,-0.014536,0.027494,-0.034532,-0.008246,0.001155,0.003036,0.133728,0.203568,-0.969885,0.1341292617448128
-0.087235,0.08662,-0.19763,0.972537,-0.021209,0.016089,-0.025779,-0.003501,0.002639,0.001855,0.134003,0.203916,-0.969774,0.13440611289108093
-0.087369,0.086687,-0.197837,0.972478,-0.015732,0.003387,-0.014599,-0.000841,0.004104,0.003551,0.134032,0.204228,-0.969704,0.1344373499669034
-0.087452,0.086689,-0.197949,0.972447,-0.006814,-0.003999,-0.008768,-0.001089,0.004627,0.003741,0.133979,0.204405,-0.969674,0.13438294426120775
-0.087514,0.086545,-0.198011,0.972442,-0.00289,-0.008504,-0.007183,-0.001277,0.005369,0.000864,0.133663,0.204478,-0.969702,0.13406374564993298
-0.087623,0.086358,-0.198044,0.972442,-0.004843,-0.02276,0.002534,-0.003417,0.005608,0.002874,0.133251,0.204622,-0.969729,0.13364737829728984
-0.087785,0.086141,-0.197958,0.972464,-0.013766,-0.024878,0.005254,-0.001037,0.004732,0.000263,0.132782,0.20484,-0.969747,0.13317587155855043
-0.087993,0.085843,-0.197848,0.972494,-0.011252,-0.037416,0.008132,-0.001876,0.000207,-0.001333,0.132146,0.205114,-0.969776,0.13253277443911687
-0.088115,0.085694,-0.197767,0.972512,-0.005266,-0.01749,0.005073,0.001024,-0.000236,-0.005145,0.131824,0.20528,-0.969785,0.13220922543834637
-0.088236,0.085544,-0.197686,0.972531,0.00072,0.002436,0.002014,0.003923,-0.000678,-0.008958,0.131503,0.205447,-0.969793,0.13188432873370795
-0.088299,0.085663,-0.197576,0.972537,-0.011632,0.026026,0.018123,0.002058,0.004252,-0.006178,0.131729,0.205598,-0.96973,0.1321133285279813
-0.088389,0.086023,-0.197365,0.97254,-0.019037,0.029428,0.020115,-0.001706,0.000197,-0.000177,0.132431,0.20588,-0.969575,0.13282201662901852
-0.088438,0.086329,-0.197235,0.972535,-0.01383,0.026656,0.00648,-0.000696,-0.002861,0.001798,0.133029,0.206072,-0.969452,0.1334253380526622
-0.088474,0.086603,-0.197277,0.972499,-0.008537,0.022305,-0.008943,-0.000863,0.000986,0.002444,0.133534,0.206252,-0.969345,0.13393496593161927
-0.088552,0.086865,-0.197362,0.972451,-0.013711,0.028459,-0.003426,0.001001,0.00526,-0.001432,0.13399,0.206512,-0.969226,0.1343945171208574
-0.08862,0.087128,-0.197391,0.972415,-0.005909,0.02536,0.000187,0.000528,0.001951,-0.000231,0.134464,0.206748,-0.96911,0.13487209371634415
-0.088518,0.087397,-0.197407,0.972397,0.006844,0.023468,0.002607,-0.000171,0.001005,0.002826,0.13502,0.206655,-0.969053,0.13543467222557273
-0.088348,0.087531,-0.197439,0.972394,0.018259,0.016372,-0.003469,-0.001839,0.00015,0.000758,0.135343,0.206383,-0.969066,0.13575919237601225
-0.08813,0.087628,-0.197507,0.972391,0.021036,0.011243,-0.007626,-0.002137,0.002483,0.000302,0.135606,0.206008,-0.969109,0.13602384864887565
-0.087949,0.087742,-0.197644,0.97237,0.012286,0.017204,-0.013574,-0.002668,0.004854,0.00183,0.13587,0.205722,-0.969133,0.13629174758958287
-0.087866,0.087765,-0.197766,0.97235,0.004556,-0.0032,-0.008481,-0.006386,0.009521,0.000701,0.135922,0.205586,-0.969154,0.1363448280346778
-0.087935,0.087685,-0.197794,0.972346,-0.004288,-0.012435,0.004498,-0.001987,0.009819,-0.003442,0.135735,0.205694,-0.969157,0.13615457125505523
-0.088036,0.087551,-0.197725,0.972363,-0.005659,-0.006383,0.010844,0.000659,0.004246,-0.005864,0.13545,0.205827,-0.969169,0.135866493388374
-0.088116,0.087607,-0.197547,0.972387,-0.00402,0.008805,0.018522,0.001266,0.000862,-0.007258,0.135563,0.205978,-0.969121,0.13598038695982445
-0.088184,0.087702,-0.197387,0.972404,0.001888,0.01165,0.008522,-0.000678,-0.003943,-0.00397,0.135752,0.206123,-0.969064,0.1361712390901124
-0.088136,0.087785,-0.197386,0.972402,0.007386,0.005532,-0.001484,-0.001205,-0.002692,0.001769,0.135931,0.206062,-0.969052,0.13635311833805328
-0.08812,0.087807,-0.197419,0.972394,0.000116,0.006097,-0.005425,-0.000545,-0.001504,0.000247,0.135974,0.206044,-0.969049,0.13639539203901746
-0.088121,0.087869,-0.197523,0.972367,0.000174,0.005825,-0.013027,-0.0005,-0.003205,0.001926,0.13607,0.206084,-0.969027,0.1364934109611945
-0.0881,0.087887,-0.197688,0.972334,0.000252,0.000735,-0.01382,-0.001844,-0.0011,-0.001185,0.136078,0.206074,-0.969028,0.13650191772155962
-0.088069,0.087892,-0.197763,0.972321,-0.001352,0.00182,-0.000946,0.000213,0.000331,-0.001929,0.136085,0.206026,-0.969038,0.1365084630627798
-0.088074,0.087882,-0.197739,0.972327,-0.001664,-0.001796,0.004603,0.000853,0.000405,-0.004395,0.136069,0.206028,-0.969039,0.13649216959160335
-0.088053,0.087937,-0.197671,0.972337,-0.003098,-0.000547,0.006256,0.001469,0.000867,-0.001622,0.136198,0.206,-0.969027,0.13662237670615363
-0.088088,0.087931,-0.197576,0.972354,-0.010822,-0.000419,0.007767,0.00145,0.000325,-0.001855,0.136191,0.206052,-0.969017,0.13661654371473772
-0.088237,0.087963,-0.197486,0.972356,-0.014926,-0.004466,0.007677,-0.000674,-0.001595,0.001565,0.136212,0.20634,-0.968953,0.1366363154855164
-0.088394,0.087929,-0.19738,0.972366,-0.0168,-0.010905,0.00406,0.001344,-0.000669,0.001662,0.136103,0.206614,-0.96891,0.13652767099382163
-0.088589,0.08789,-0.19732,0.972364,-0.020051,-0.009389,0.004279,0.001755,-0.001893,-0.001936,0.135961,0.206967,-0.968855,0.13638378989798375
-0.088824,0.087825,-0.197263,0.97236,-0.01852,-0.004697,0.0019,0.000473,-0.000949,-0.003239,0.135751,0.207387,-0.968794,0.136172102862088
-0.088997,0.087755,-0.197211,0.972361,-0.013811,-0.013404,0.000301,-4.7e-05,-0.000719,-0.000973,0.135557,0.207687,-0.968757,0.1359753317585101
-0.089112,0.08765,-0.197179,0.972367,-0.009045,-0.011929,0.001888,0.000856,0.001575,-0.001923,0.135313,0.207865,-0.968753,0.1357302744751085
-0.089194,0.087555,-0.197118,0.97238,-0.007904,-0.008081,0.005714,0.000856,0.001218,-0.002638,0.13511,0.207979,-0.968757,0.13552445538811414
-0.089273,0.087558,-0.197021,0.972392,-0.007851,-0.002435,0.00586,-0.000112,-0.001101,-0.001501,0.135105,0.208119,-0.968728,0.13551851087291306
-0.089302,0.087567,-0.196992,0.972395,-0.003722,0.000717,-0.002385,-0.001699,-0.00151,0.001532,0.135116,0.208173,-0.968715,0.13553040065094554
-0.089342,0.087572,-0.197038,0.972381,-0.003625,-0.006678,-0.005428,-0.003543,0.001621,0.001435,0.135099,0.208259,-0.968698,0.13551353915696496
-0.089476,0.087434,-0.1971,0.972369,-0.013926,-0.015789,-0.005648,-0.001369,0.003781,-0.00334,0.134766,0.208473,-0.968699,0.13517607623120456
-0.089716,0.087378,-0.197072,0.972357,-0.029127,-0.002797,0.005343,0.000688,0.003385,-0.004768,0.134564,0.208912,-0.968632,0.13497364604144693
-0.089992,0.087381,-0.196981,0.97235,-0.024899,-0.003426,0.002334,-0.000589,-0.00077,-0.004297,0.134475,0.209433,-0.968532,0.1348850463524965
-0.090215,0.087408,-0.196907,0.972342,-0.018313,-0.000272,0.005371,-0.000158,-0.000697,-0.00102,0.134452,0.209863,-0.968442,0.1348614386221443
-0.090402,0.087409,-0.196835,0.972339,-0.015654,-0.000656,0.003459,-0.000118,-0.00069,-0.000713,0.134394,0.210213,-0.968374,0.1348016912542402
-0.090587,0.087439,-0.196817,0.972323,-0.016978,0.003818,-0.001006,0.000284,0.000505,-0.000684,0.13438,0.210578,-0.968297,0.13478753733739848
-0.090773,0.087503,-0.196856,0.972292,-0.022915,0.010161,-0.011541,0.000702,0.000487,-0.003173,0.134418,0.210966,-0.968207,0.13482662793554745
-0.090999,0.087703,-0.19697,0.97223,-0.026853,0.017189,-0.013301,-0.000917,-0.000972,0.003479,0.134687,0.211494,-0.968055,0.13509740520902144
-0.091207,0.087777,-0.197089,0.972179,-0.019399,-0.00621,-0.016196,-0.001981,-0.000119,0.005775,0.134718,0.211938,-0.967953,0.13512898300622359
-0.091395,0.087646,-0.197208,0.972149,-0.012391,-0.025016,-0.008166,-0.002159,0.004007,0.00317,0.134362,0.212267,-0.967931,0.13476989105686593
-0.09155,0.087451,-0.197187,0.972157,-0.01212,-0.01837,0.010104,0.001923,0.004321,-0.004157,0.133927,0.21249,-0.967942,0.13433089502072273
-0.091649,0.087382,-0.197054,0.97218,-0.007952,-0.001717,0.007456,0.002519,0.003581,-0.007877,0.133783,0.212636,-0.96793,0.13418477761623
-0.091765,0.087463,-0.196913,0.972191,-0.019632,0.010265,0.019164,0.001183,0.006012,-0.006542,0.133923,0.212872,-0.967858,0.13432562359517752
-0.092044,0.087666,-0.196708,0.972188,-0.035613,0.014833,0.013593,-0.000612,0.003361,-0.00201,0.134245,0.213457,-0.967685,0.13465060225859093
-0.092402,0.087797,-0.19667,0.972149,-0.032094,-0.005383,-0.008553,-0.001836,0.001501,0.001484,0.134358,0.214191,-0.967507,0.13476568959838342
-0.092746,0.087845,-0.196753,0.972096,-0.041093,0.000426,-0.010508,0.001002,0.003129,-0.000538,0.134292,0.214883,-0.967363,0.13469838962093697
-0.093175,0.087953,-0.196819,0.972031,-0.035784,0.007029,-0.010041,0.000365,0.000777,-0.000672,0.134308,0.215761,-0.967165,0.1347159746005576
-0.093519,0.088055,-0.19691,0.971971,-0.027966,0.006312,-0.010121,-0.001681,0.00198,0.002233,0.134344,0.216474,-0.967001,0.13475159320144428
-0.093759,0.088071,-0.197008,0.971926,-0.020019,-0.004469,-0.005803,-0.00342,0.003278,0.002757,0.134254,0.216955,-0.966906,0.13466105612724835
-0.09399,0.088017,-0.196997,0.971911,-0.01578,-0.007735,0.00177,-0.003881,0.004164,0.000707,0.134058,0.217377,-0.966838,0.13446270463565935
-0.094163,0.087992,-0.196912,0.971914,-0.01811,-0.009818,0.001886,-0.00407,0.004961,-0.002783,0.133958,0.217691,-0.966781,0.13436157159394774
-0.094407,0.088001,-0.196872,0.971897,-0.032258,0.008588,0.004133,-0.000659,0.005248,-0.005112,0.133885,0.218157,-0.966686,0.1342868605230043
-0.094753,0.088099,-0.196829,0.971863,-0.037237,-0.000165,-0.001263,-0.003664,0.003542,-0.001629,0.133941,0.218855,-0.966521,0.13434378766557126
-0.095198,0.088108,-0.196796,0.971826,-0.0363,-0.010703,-0.004842,-0.001293,0.001928,-0.001671,0.133782,0.219709,-0.966349,0.1341844322839504
-0.095534,0.088127,-0.196864,0.971778,-0.028755,0.008653,-0.010201,0.001825,-0.000538,-0.006453,0.133665,0.220373,-0.966214,0.13406660368388146
-0.095767,0.088298,-0.196927,0.971726,-0.019553,0.021877,-0.00296,-0.000662,0.001628,-0.00448,0.133885,0.220894,-0.966064,0.13428795305104763
-0.095779,0.088398,-0.196976,0.971706,-0.005716,0.011148,-0.002232,-0.001283,0.0015,-0.001427,0.134062,0.220963,-0.966024,0.1344662571573318
-0.095792,0.088498,-0.197025,0.971686,0.008122,0.000419,-0.001504,-0.001903,0.001372,0.001627,0.134238,0.221032,-0.965984,0.1346441574690533
-0.095708,0.08848,-0.197014,0.971698,0.005306,0.005373,0.004526,0.000253,0.000645,-0.000609,0.134241,0.220862,-0.966022,0.13464652752038234
-0.095633,0.088584,-0.196983,0.971702,0.004697,0.008535,0.001768,-0.000935,-0.001791,0.001967,0.134478,0.220753,-0.966015,0.1348870112624333
-0.095526,0.088589,-0.197046,0.971699,0.011655,0.006311,-0.008025,-3e-06,-0.004305,-0.002458,0.134519,0.220558,-0.966053,0.1349266752265726
-0.095403,0.088663,-0.197151,0.971683,0.013321,0.010025,-0.009607,0.000204,-0.000167,-0.001389,0.134687,0.220363,-0.966074,0.13509764401699179
-0.095292,0.08876,-0.197275,0.97166,0.007275,0.01642,-0.009523,4e-05,0.000704,-0.004854,0.134891,0.220203,-0.966082,0.13530408660327678
-0.09522,0.088933,-0.19736,0.971634,0.000225,0.023145,-0.004044,0.001047,0.001099,-0.004102,0.135236,0.220142,-0.966048,0.13565105594933333
-0.095205,0.089147,-0.197422,0.971603,-0.011042,0.021245,-0.0028,0.001235,0.000328,-0.00058,0.135639,0.220203,-0.965978,0.13605926485904501
-0.0953,0.089392,-0.197476,0.971561,-0.017611,0.02336,-0.009396,0.002366,0.001375,0.000976,0.13606,0.220485,-0.965854,0.1364839761603153
-0.095477,0.089612,-0.197581,0.971502,-0.021156,0.013007,-0.009493,0.000627,0.000528,0.00354,0.136387,0.220924,-0.965708,0.13681400865968016
-0.095678,0.089734,-0.197703,0.971446,-0.023269,0.009272,-0.016577,0.000912,-0.0003,0.000179,0.136511,0.221373,-0.965587,0.1369394047756567
-0.095913,0.089884,-0.197822,0.971384,-0.023394,0.004927,-0.012249,0.000117,0.000685,0.000681,0.136677,0.221899,-0.965443,0.1371055020687985
-0.096131,0.089967,-0.197962,0.971327,-0.019514,0.005066,-0.010246,0.001559,0.000936,-0.001204,0.136714,0.222369,-0.96533,0.1371436869386306
-0.09633,0.090053,-0.198025,0.971286,-0.016497,0.002603,-0.008259,0.001083,0.002552,-0.00136,0.136783,0.222793,-0.965222,0.13721309642796903
-0.096436,0.090124,-0.198095,0.971255,-0.009921,0.004765,-0.00596,0.00059,0.000901,-0.001702,0.136859,0.223033,-0.965156,0.13729067861529828
-0.096542,0.090194,-0.198165,0.971224,-0.003344,0.006928,-0.003662,9.7e-05,-0.000751,-0.002045,0.136935,0.223274,-0.965089,0.13736626186427606
-0.096527,0.090267,-0.198206,0.97121,0.002352,0.003594,-0.006809,-0.001122,0.000372,0.001204,0.137072,0.223278,-0.965069,0.13750486981977147
-0.096489,0.09033,-0.198267,0.971195,0.002167,0.005104,-0.00272,-0.000477,0.001615,-0.000154,0.137196,0.223237,-0.965061,0.13762899705969436
-0.096467,0.090338,-0.198317,0.971187,0.001939,0.003722,-0.004089,-0.000639,0.001304,0.000187,0.137208,0.223206,-0.965066,0.13764229356262742
-0.096457,0.090359,-0.19837,0.971175,0.000696,0.003407,-0.00356,0.000168,0.001585,-0.000932,0.13724,0.223202,-0.965063,0.13767496577765775
-0.096458,0.09038,-0.198406,0.971165,-0.000248,0.002626,-0.002611,0.000294,0.00072,-0.001834,0.137272,0.223218,-0.965055,0.13770690812779685
-0.096482,0.090417,-0.198433,0.971154,-0.001314,0.003169,-0.002981,0.000146,0.000357,-0.000911,0.137326,0.223282,-0.965032,0.13776257887447613
-0.096503,0.090415,-0.198455,0.971148,-0.001262,-0.002629,4.7e-05,0.000263,0.001583,-0.001903,0.13731,0.223325,-0.965024,0.1377448611193069
-0.096513,0.090452,-0.198418,0.971151,-0.000129,0.004399,0.008287,-5e-06,0.001565,-0.001708,0.137385,0.223351,-0.965008,0.13782116478063533
-0.096474,0.090449,-0.198315,0.971176,0.003793,-0.005005,0.010705,-0.001407,0.000872,0.001409,0.137419,0.223262,-0.965023,0.1378555365779377
-0.096349,0.090208,-0.198083,0.971258,0.010744,-0.011445,0.011335,6.3e-05,-0.000654,-0.000635,0.137061,0.222897,-0.965159,0.13749307891402138
-0.096412,0.090372,-0.198199,0.971213,0.007723,-0.014008,0.010302,-0.00134,-9.4e-05,0.003455,0.137324,0.223096,-0.965075,0.13775870363243384
-0.096232,0.09013,-0.197993,0.971295,0.014934,-0.001469,0.006856,0.000668,-0.000529,-0.004463,0.136978,0.22263,-0.965232,0.1374111325765968
-0.096105,0.090155,-0.197945,0.971315,0.007515,0.008092,0.007223,0.000577,0.00336,-0.005892,0.137092,0.222389,-0.965271,0.13752388349690448
-0.096063,0.090317,-0.197864,0.971321,-0.005852,0.017518,0.011371,-0.000455,0.00338,-0.004517,0.137439,0.222358,-0.965229,0.1378751882627103
-0.09609,0.090487,-0.197793,0.971317,-0.008015,0.011795,0.004629,-0.001097,0.00232,-0.002027,0.137771,0.222462,-0.965158,0.1382108668819053
-0.096166,0.090604,-0.197715,0.971315,-0.014849,0.010151,0.012504,0.000482,0.002283,-0.001607,0.137983,0.222643,-0.965086,0.1384247729502088
-0.096296,0.090753,-0.197573,0.971317,-0.016508,0.009528,0.013045,0.000481,-0.001572,0.001887,0.138248,0.222929,-0.964982,0.13869310164354617
-0.096421,0.090835,-0.19748,0.971315,-0.009076,0.00127,0.005671,0.000618,-0.004251,0.004374,0.138376,0.223187,-0.964904,0.13882181243595998
-0.096512,0.090785,-0.19746,0.971315,-0.003348,-0.009425,-0.004448,0.000879,-0.004133,0.004117,0.138248,0.223339,-0.964887,0.13869134611028477
-0.096583,0.090664,-0.197526,0.971306,-0.002916,-0.012366,-0.009868,-7.1e-05,-0.001098,0.000448,0.137969,0.223441,-0.964904,0.13841118288021875
-0.096675,0.090527,-0.197622,0.97129,-0.006145,-0.01714,-0.011437,-0.000331,0.002557,-0.001419,0.137646,0.22358,-0.964917,0.13808412129342937
-0.096815,0.090421,-0.19768,0.971274,-0.019087,-0.007448,-0.003755,-1.7e-05,0.004942,-0.003729,0.137371,0.223816,-0.964902,0.1378061087017537
-0.097005,0.090372,-0.197631,0.97127,-0.022296,-0.010517,0.004446,-0.001009,0.002357,-0.002321,0.137208,0.224156,-0.964846,0.13764304490467483
-0.097208,0.090289,-0.197559,0.971272,-0.013284,-0.017032,0.005974,-0.000134,0.000273,-0.001748,0.136981,0.224506,-0.964797,0.13741377016313244
-0.09733,0.090202,-0.197522,0.971275,-0.006209,-0.008308,0.001481,0.001735,-9e-05,-0.002364,0.136773,0.224702,-0.964781,0.13720231789293236
-0.097408,0.090194,-0.197533,0.971266,-0.004187,0.004667,-0.000624,0.001339,0.00092,-0.002198,0.136721,0.22485,-0.964754,0.137151722296757
-0.097456,0.090242,-0.197558,0.971252,-0.001327,-0.00099,-0.004379,-0.001741,0.00086,0.001088,0.13679,0.224964,-0.964717,0.13721923538634934
-0.097476,0.090186,-0.197608,0.971244,0.000328,-0.001544,-0.009885,-0.000541,-0.000816,-0.000457,0.13666,0.224989,-0.96473,0.13709015002960462
-0.097457,0.090155,-0.197675,0.971236,0.000753,-0.003206,-0.006718,-0.00026,-0.000392,-0.00022,0.136595,0.22495,-0.964748,0.13702230406123375
-0.097407,0.090133,-0.197759,0.971226,0.00814,0.002685,-0.008787,-0.000362,-0.001621,-0.001525,0.136553,0.224858,-0.964776,0.13698078106906217
-0.097292,0.09011,-0.197866,0.971217,0.01578,0.002635,-0.007554,-0.000242,-0.001889,-0.002507,0.136532,0.224643,-0.964829,0.13695894223879188
-0.097115,0.090123,-0.197976,0.971212,0.019504,0.004872,-0.009254,0.000162,-0.000616,-0.002266,0.136603,0.224323,-0.964893,0.13703266262006406
-0.096937,0.090147,-0.198096,0.971203,0.014169,0.008317,-0.00836,0.000415,0.000354,-0.001794,0.136697,0.224006,-0.964953,0.13712574590795548
-0.09681,0.090208,-0.198187,0.971191,0.004746,0.009213,-0.007486,5.8e-05,0.000978,-0.001649,0.136845,0.223799,-0.964981,0.13727617830397096
-0.096803,0.090277,-0.198278,0.971167,-0.006755,0.008165,-0.007337,0.000366,0.001116,-0.001499,0.13696,0.223823,-0.964959,0.1373921174657095
-0.096882,0.090371,-0.198356,0.971134,-0.014838,0.007003,-0.006165,0.000234,0.000892,-0.000355,0.13709,0.224023,-0.964894,0.13752353040721152
-0.097039,0.090434,-0.198415,0.971101,-0.018231,0.007825,-0.005604,0.000581,-0.000496,-0.001519,0.137133,0.224356,-0.96481,0.1375665970001438
-0.097185,0.09052,-0.198489,0.971063,-0.012292,0.003404,-0.007615,0.000247,-0.001375,0.000435,0.137221,0.224679,-0.964723,0.13765526450617088
-0.097289,0.090529,-0.198592,0.971031,-0.006483,-0.000458,-0.010232,0.000287,-0.000324,-0.000152,0.137171,0.224897,-0.964679,0.13760514863769083
-0.097351,0.090499,-0.19868,0.971009,-0.003042,-0.004825,-0.007555,-0.000648,0.001258,0.000843,0.137067,0.225018,-0.964666,0.13750015391429637
-0.09737,0.090431,-0.198701,0.971009,-0.000991,-0.006273,-0.001084,-0.000207,0.002866,0.001038,0.136923,0.225032,-0.964683,0.13735508959697396
-0.097359,0.090347,-0.198651,0.971029,0.001171,-0.011208,0.006068,-0.001086,0.00322,0.000244,0.136778,0.224971,-0.964718,0.13720830024240271
-0.097353,0.090222,-0.198535,0.971065,0.001123,-0.012413,0.011446,-0.001077,0.002861,-0.000409,0.136567,0.224897,-0.964765,0.13699500720200494
-0.097341,0.090098,-0.198378,0.971109,0.004008,-0.013952,0.014475,-0.000819,0.001835,-0.000636,0.13637,0.224804,-0.964814,0.1367955758322706
-0.097326,0.089975,-0.198203,0.971158,0.004918,-0.010659,0.013404,-0.001133,0.001113,-0.001911,0.13618,0.224704,-0.964864,0.1366037262709494
-0.097289,0.089886,-0.198051,0.971201,0.008707,-0.010231,0.010498,-0.000703,0.000191,-0.000533,0.136058,0.224578,-0.964911,0.13648169743973246
-0.097239,0.089787,-0.19793,0.97124,0.008537,-0.009379,0.008803,0.00027,-0.000109,-0.000892,0.135917,0.224428,-0.964966,0.13633840889624266
-0.097178,0.089691,-0.197845,0.971272,0.008516,-0.006669,0.005666,0.000126,-5.1e-05,-0.000417,0.135777,0.224262,-0.965024,0.1361970281482034
-0.097099,0.089591,-0.197787,0.971301,0.008507,-0.005402,0.004199,-0.000114,-0.000355,0.000169,0.13563,0.224064,-0.965091,0.13604912484815188
-0.097027,0.089448,-0.197765,0.971326,0.007974,-0.006362,0.004226,0.000264,0.000418,-0.000602,0.135389,0.223869,-0.96517,0.13580631601927273
-0.096956,0.089305,-0.197743,0.971351,0.00744,-0.007323,0.004253,0.000642,0.001192,-0.001373,0.135148,0.223675,-0.965248,0.1355630952712086
-0.096918,0.089177,-0.197691,0.971377,0.005909,-0.011245,0.004992,-0.001346,0.000711,-0.000522,0.134929,0.223546,-0.965309,0.13534215077590706
-0.096876,0.089039,-0.197626,0.971407,0.007942,-0.018674,0.004534,-0.002156,-0.001508,0.001868,0.134696,0.223406,-0.965374,0.13510644122271873
-0.096821,0.088816,-0.197555,0.971447,0.00913,-0.020636,0.00579,-0.000586,-0.002787,-0.002355,0.134306,0.223204,-0.965475,0.13471220419784752
-0.096737,0.088646,-0.197494,0.971483,0.012398,-0.008332,0.003115,0.000653,-0.003155,-0.006879,0.134026,0.222972,-0.965568,0.13443074115184175
-0.096622,0.08861,-0.197483,0.9715,0.009194,0.009136,-0.000187,0.00145,-0.00026,-0.007579,0.134007,0.222735,-0.965625,0.13441117996025265
-0.096568,0.088761,-0.19747,0.971495,-0.005329,0.019177,0.006011,-0.000611,0.001882,-0.005293,0.134323,0.222685,-0.965592,0.13473041044425021
-0.096611,0.088943,-0.197429,0.971482,-0.013948,0.015004,0.002954,-0.000517,0.000155,-0.002431,0.134665,0.222832,-0.965511,0.13507579987129972
-0.096701,0.089098,-0.197428,0.971459,-0.015599,0.011529,-0.001807,0.001311,-5.2e-05,-0.000491,0.134928,0.223063,-0.965421,0.1353399275715323
-0.096853,0.089243,-0.197441,0.971428,-0.020015,0.01115,-6.2e-05,0.001136,0.001771,0.000147,0.135141,0.223411,-0.965311,0.13555555627568247
-0.097028,0.089377,-0.197398,0.971407,-0.017402,0.010214,0.005288,0.000146,0.001724,0.000724,0.135337,0.223793,-0.965195,0.13575320095658672
-0.097125,0.089477,-0.197295,0.971409,-0.006772,0.004253,0.014787,-0.000795,0.002655,0.002388,0.135514,0.224003,-0.965121,0.135931192527333
-0.09709,0.089501,-0.197086,0.971453,0.002232,0.004103,0.026493,-0.001526,0.003978,8e-06,0.135621,0.223914,-0.965127,0.13604110521779147
-0.097005,0.089534,-0.196767,0.971523,0.006841,-0.003287,0.034561,-0.001527,0.004865,0.000868,0.135794,0.22372,-0.965147,0.13621475614946676
-0.096942,0.089557,-0.196425,0.971596,0.000378,0.000982,0.036538,-0.000777,0.003429,-6.2e-05,0.135944,0.22356,-0.965163,0.13636501587293434
-0.096951,0.089612,-0.1961,0.971656,-0.00339,-0.001568,0.026815,-0.001329,-0.00171,0.002664,0.13612,0.223552,-0.96514,0.13654378915398885
-0.097023,0.089614,-0.195926,0.971683,-0.004161,-0.003815,0.00804,-0.001746,-0.004777,7.8e-05,0.136134,0.223667,-0.965112,0.1365581744450193
-0.097089,0.089555,-0.195939,0.97168,-0.000519,-0.003757,-0.008345,0.00076,-0.003867,-0.002329,0.135991,0.223774,-0.965107,0.13641324416321224
-0.097132,0.089563,-0.196049,0.971652,-0.001642,0.005186,-0.008931,0.000928,-0.001134,-0.003296,0.135964,0.223875,-0.965088,0.1363852961409021
-0.09716,0.089675,-0.196153,0.971618,-0.001462,0.015398,-0.007859,-0.001093,-6e-06,-0.001739,0.136144,0.223985,-0.965037,0.1365673531123542
-0.09711,0.08976,-0.196236,0.971599,0.003437,0.007955,-0.005264,-0.001729,0.000409,0.000551,0.136309,0.223933,-0.965025,0.13673416740796143
-0.097047,0.089798,-0.196276,0.971593,0.001665,0.004325,-0.001605,-0.00128,0.000352,0.000161,0.136399,0.223831,-0.965036,0.1368247392489553
-0.097009,0.089837,-0.196285,0.971592,-0.001025,0.004133,0.000447,-0.000572,0.000157,7.2e-05,0.136487,0.223773,-0.965037,0.13691435271014624
-0.097011,0.089871,-0.196287,0.971588,-0.00071,0.000319,-0.001312,-0.000445,-0.001074,-0.001102,0.136551,0.223791,-0.965024,0.1369791353454139
-0.097032,0.089862,-0.19634,0.971576,-0.001163,0.002045,-0.005463,0.000236,-0.001832,-0.002296,0.136513,0.223836,-0.965019,0.13694059976673154
-0.097044,0.089895,-0.196427,0.971554,-0.001663,0.004534,-0.009001,0.000337,-0.00089,-0.002535,0.136553,0.223883,-0.965003,0.13697953519278785
-0.097071,0.089965,-0.196529,0.971524,-0.003181,0.009311,-0.009402,0.00017,6e-06,-0.003865,0.136652,0.223974,-0.964967,0.1370806935637621
-0.097114,0.090089,-0.196627,0.971489,-0.008416,0.011336,-0.010276,0.000309,-7.3e-05,-0.003231,0.13685,0.224117,-0.964906,0.13728127381218438
-0.097171,0.090248,-0.196734,0.971447,-0.008871,0.014048,-0.011248,-4.4e-05,-0.000379,-0.001049,0.137109,0.224302,-0.964826,0.13754187284982816
-0.097212,0.090381,-0.196866,0.971404,-0.006136,0.013457,-0.011919,0.000311,-0.000684,4e-06,0.137317,0.22445,-0.964762,0.13775270295407743
-0.097229,0.09051,-0.19699,0.971365,0.000423,0.011411,-0.012871,-0.000225,-0.000996,0.000763,0.137531,0.224549,-0.964709,0.13796749706459763
-0.097201,0.09059,-0.197144,0.971329,0.002466,0.008345,-0.01253,-9.9e-05,-0.000438,0.000336,0.137661,0.224547,-0.964691,0.13809873477819634
-0.097139,0.090625,-0.197291,0.971302,0.005055,0.005613,-0.011266,-4.3e-05,-0.000192,0.000147,0.137718,0.224462,-0.964702,0.1381582882704871
-0.097051,0.090641,-0.197392,0.971289,0.007778,0.003878,-0.007297,-0.000234,0.000398,-0.001171,0.137764,0.224314,-0.96473,0.13820255411270044
-0.096952,0.09065,-0.197473,0.971281,0.008117,0.000944,-0.004791,-0.000617,0.000346,-0.0006,0.137803,0.224138,-0.964765,0.13824234380178962
-0.096877,0.090632,-0.197521,0.971281,0.00584,-0.000353,-0.003277,-0.000238,0.001373,-0.001501,0.137788,0.223992,-0.964801,0.13822755739259648
-0.096817,0.090595,-0.197533,0.971288,0.003879,-0.002245,0.000461,0.000325,0.001688,-0.001037,0.137739,0.223866,-0.964838,0.13817785594708262
-0.096819,0.090555,-0.197514,0.971295,0.000462,-0.003861,0.001738,0.000141,0.000734,-0.000451,0.137665,0.223852,-0.964851,0.13810360230706367
-0.096849,0.090514,-0.197481,0.971303,-0.001392,-0.005268,0.003065,0.000579,0.000146,-0.000108,0.137581,0.223889,-0.964855,0.13801914186500214
-0.096906,0.090443,-0.197431,0.971314,-0.002564,-0.006583,0.004413,0.000823,-0.000539,-0.001118,0.137433,0.223965,-0.964858,0.13786895772118066
-0.096972,0.090394,-0.197373,0.971324,-0.002835,-0.007231,0.00345,0.000356,-0.000233,-0.000483,0.137324,0.224065,-0.964851,0.13775972905104894
-0.097039,0.090326,-0.197334,0.971331,-0.004251,-0.008732,0.001303,0.000153,-0.000101,-0.000208,0.137176,0.224163,-0.964849,0.13760858425219166
-0.097113,0.090263,-0.197313,0.971334,-0.007185,-0.008607,0.001574,-0.000455,0.000131,-0.000178,0.137028,0.224279,-0.964843,0.1374602103498083
-0.097207,0.090173,-0.197288,0.971338,-0.008818,-0.009262,0.002468,0.000511,0.000236,-0.000376,0.136822,0.224421,-0.964839,0.13725189509794242
-0.097305,0.090106,-0.197261,0.97134,-0.007452,-0.011893,9.1e-05,0.000427,-0.001215,-0.000463,0.136657,0.224582,-0.964825,0.13708713465756203
-0.09739,0.090015,-0.197268,0.971338,-0.007635,-0.005269,-0.002235,0.002166,-0.001594,-0.003442,0.136447,0.224712,-0.964825,0.13687308788643768
-0.097463,0.089984,-0.19729,0.971329,-0.005154,-0.009123,-0.003307,-0.001453,-0.001974,-0.000568,0.136351,0.224844,-0.964808,0.13677726011493618
-0.097538,0.089909,-0.197318,0.971323,-0.004355,-0.012352,-0.005332,-0.002411,-0.001916,0.001142,0.13617,0.224962,-0.964806,0.13659371431046327
-0.097592,0.089737,-0.19737,0.971323,-0.003705,-0.015509,-0.004452,-0.00073,-0.001328,-0.002257,0.135803,0.225009,-0.964846,0.13622469131253387
-0.097638,0.089646,-0.19739,0.971322,-0.004908,-0.002954,-0.003388,0.00072,-0.00048,-0.006843,0.135605,0.225067,-0.964861,0.13602380939428152
-0.097643,0.089718,-0.197424,0.971309,-0.007778,0.014078,-0.001462,0.002026,0.001748,-0.009183,0.135734,0.225108,-0.964833,0.1361539366015399
-0.097717,0.089985,-0.197414,0.971278,-0.01938,0.028964,0.004647,0.000888,0.001991,-0.00515,0.136219,0.225348,-0.964708,0.13664432684962366
-0.097856,0.090259,-0.197394,0.971243,-0.020716,0.02314,-0.002129,-0.001244,0.000115,-0.001171,0.136695,0.225716,-0.964555,0.13712378708875794
-0.098007,0.090462,-0.197457,0.971196,-0.017545,0.01101,-0.010416,0.000733,0.000892,0.000873,0.137008,0.226093,-0.964423,0.137440627414409
-0.098177,0.090577,-0.197566,0.971146,-0.020409,0.010669,-0.008301,0.001135,0.003054,0.000766,0.137134,0.226478,-0.964314,0.13756760534845433
-0.098343,0.090657,-0.197649,0.971105,-0.012886,0.001687,-0.004817,-3.5e-05,0.003137,0.003402,0.137201,0.22684,-0.96422,0.13763426808605816
-0.098402,0.090632,-0.197662,0.971099,-0.002718,-0.007815,0.001264,-0.001789,0.002325,0.003134,0.137124,0.226945,-0.964206,0.1375580235990809
-0.09841,0.090494,-0.1976,0.971123,0.004985,-0.017193,0.008686,-0.001425,0.002892,0.001923,0.13687,0.2269,-0.964253,0.13730096049461024
-0.098379,0.09032,-0.197485,0.971166,0.004707,-0.016546,0.012655,-0.000906,0.003011,-0.000972,0.136574,0.226759,-0.964328,0.13700285620468883
-0.098363,0.090188,-0.197336,0.97121,0.00372,-0.012577,0.012355,0.000369,0.001857,-0.003591,0.136362,0.226658,-0.964382,0.13678802676931476
-0.098369,0.090118,-0.197228,0.971238,0.003619,-0.008466,0.008059,-0.000615,-0.001532,-0.001491,0.136251,0.226627,-0.964404,0.13667492807720558
-0.098354,0.090037,-0.197184,0.971256,0.006145,-0.005901,6.2e-05,-0.002577,-0.002846,-0.002093,0.13611,0.226561,-0.96444,0.1365340888011113
-0.098287,0.089906,-0.197225,0.971267,0.014242,-0.00804,-0.00776,-0.00029,-0.002283,-0.003977,0.135877,0.226389,-0.964513,0.13629776528222615
-0.098207,0.089921,-0.197255,0.971267,0.007207,-0.000702,0.000337,-0.001694,-0.000933,-0.001722,0.135932,0.226245,-0.964539,0.13635308007894406
-0.098126,0.089936,-0.197285,0.971268,0.000172,0.006637,0.008434,-0.003098,0.000417,0.000533,0.135987,0.2261,-0.964565,0.13640898481365385
-0.098088,0.089938,-0.197229,0.971283,0.000703,-0.000934,0.007038,-0.004033,-0.001488,0.002354,0.136018,0.226019,-0.96458,0.1364418529365743
-0.098046,0.089853,-0.197162,0.971309,0.004165,-0.005124,0.007017,-0.001918,-0.002238,-0.000652,0.135887,0.225898,-0.964627,0.13630988730995316
-0.098005,0.089815,-0.197102,0.971328,0.003186,-3e-06,0.005472,-0.001119,-0.002953,-0.002287,0.135846,0.225795,-0.964657,0.1362670110929043
-0.09798,0.089787,-0.197067,0.971341,0.0029,0.00119,0.002413,-0.000658,-0.002428,-0.002145,0.135811,0.225733,-0.964676,0.1362313342493139
-0.097958,0.089791,-0.197099,0.971336,0.002395,0.005273,-0.004058,-0.000605,-0.003032,-0.002898,0.135819,0.225696,-0.964684,0.13624069544207867
-0.097934,0.089843,-0.197159,0.971321,-0.001779,0.009125,-0.008241,0.000537,-0.002351,-0.004327,0.135915,0.225677,-0.964674,0.1363376266109165
-0.097951,0.08997,-0.197263,0.971287,-0.007175,0.014525,-0.009864,0.000727,-0.00025,-0.003372,0.13613,0.225773,-0.964622,0.13655315009814417
-0.098066,0.090139,-0.197356,0.971241,-0.013345,0.013683,-0.009332,0.001303,0.000105,-0.001993,0.136386,0.226071,-0.964516,0.13681195530449905
-0.098182,0.090308,-0.197448,0.971195,-0.019515,0.012841,-0.008801,0.001879,0.00046,-0.000615,0.136641,0.226369,-0.96441,0.13707049474321487
-0.09833,0.090458,-0.197536,0.971148,-0.01981,0.01177,-0.008214,0.002465,4.9e-05,0.000442,0.136848,0.226724,-0.964297,0.13727956344274256
-0.098479,0.090595,-0.197635,0.9711,-0.014854,0.00703,-0.009501,0.001513,-0.000597,0.003225,0.137027,0.227075,-0.964189,0.13746029890917044
-0.098599,0.090631,-0.197751,0.971061,-0.007075,-0.000301,-0.010537,0.001771,-0.000191,0.001885,0.137021,0.227336,-0.964129,0.13745277051320115
-0.098675,0.090612,-0.197829,0.971039,-0.002655,-0.004551,-0.006476,0.001563,0.002703,0.001165,0.136934,0.227486,-0.964105,0.13736561026024824
-0.098709,0.090568,-0.19786,0.971033,-0.00275,-0.005633,-0.000114,0.001469,0.002986,-0.000767,0.136829,0.227538,-0.964108,0.1372584914265362
-0.098745,0.090512,-0.197835,0.97104,-0.003179,-0.006813,0.00324,0.001363,0.002683,-0.001948,0.136712,0.227583,-0.964114,0.13714058626158968
-0.098785,0.090481,-0.197765,0.971053,-0.00282,-0.005698,0.004574,0.002035,0.001443,-0.001405,0.136651,0.22764,-0.964109,0.13708017038996337
-0.098832,0.090443,-0.197712,0.971062,0.001013,-0.007364,0.001539,0.000607,0.000193,-0.000142,0.13657,0.227707,-0.964105,0.1369991247955105
-0.098832,0.090373,-0.197691,0.971073,0.004029,-0.00764,-0.000297,0.000239,7.6e-05,-5.6e-05,0.136441,0.227679,-0.96413,0.13686808866691008
-0.098825,0.090267,-0.197694,0.971083,0.004156,-0.010932,-0.001025,-0.000393,0.000634,0.000298,0.13624,0.227625,-0.964171,0.13666429827481139
-0.098813,0.090127,-0.197671,0.971102,0.002378,-0.015166,0.003662,-0.001197,0.001039,0.000343,0.135979,0.227546,-0.964226,0.13640267519045346
-0.09882,0.08997,-0.197601,0.97113,0.000843,-0.014775,0.006974,-0.001582,0.000778,-5.6e-05,0.135692,0.227491,-0.96428,0.13611115287791445
-0.098842,0.089821,-0.197525,0.971157,-0.000618,-0.014332,0.006416,-0.001047,0.000448,-0.000949,0.135413,0.227465,-0.964325,0.13583034420620768
-0.098869,0.089674,-0.197446,0.971184,4.7e-05,-0.015459,0.003886,-0.00071,0.000278,-0.002131,0.135137,0.227451,-0.964367,0.1355520634568038
-0.09891,0.089525,-0.197411,0.971201,-0.001331,-0.010889,-0.00017,-0.000451,0.00017,-0.003426,0.134842,0.22747,-0.964404,0.13525369665846865
-0.098966,0.089475,-0.197419,0.971198,-0.004489,-0.002878,-0.004175,-0.001366,1.7e-05,-0.001934,0.134721,0.227559,-0.9644,0.13513122875085423
-0.099038,0.08946,-0.197488,0.971178,-0.007444,0.000807,-0.009459,-0.000725,-0.000375,-0.000327,0.134646,0.227703,-0.964376,0.1350557309511612
-0.099115,0.08943,-0.197606,0.971149,-0.003261,-0.003125,-0.015581,-0.000349,-0.000568,-0.000546,0.134529,0.227854,-0.964357,0.1349373923703023
-0.099161,0.08942,-0.197768,0.971112,-0.002573,0.006432,-0.013459,0.000722,0.000847,-0.00315,0.134452,0.227963,-0.964342,0.13486034440873493
-0.099196,0.089464,-0.197889,0.97108,-0.001125,0.00161,-0.005992,-0.001252,-6.6e-05,-0.000556,0.134493,0.228062,-0.964313,0.13490261127501127
-0.099206,0.089451,-0.197959,0.971066,0.005113,-0.007534,-0.005354,-0.001407,-0.00152,0.002315,0.134448,0.228085,-0.964314,0.13485659399637825
-0.099165,0.089321,-0.197975,0.971079,0.00681,-0.006297,0.000614,0.000621,-0.000509,-0.001978,0.134211,0.227961,-0.964376,0.1346173300184314
-0.099096,0.089325,-0.19795,0.971091,0.004918,0.006764,0.004475,0.00202,-0.000783,-0.004788,0.134253,0.227825,-0.964402,0.13465990309077489
-0.099052,0.089425,-0.197931,0.97109,-0.002814,0.016786,0.003744,0.001461,0.001739,-0.005719,0.134468,0.227777,-0.964384,0.1348770954167783
-0.099098,0.089623,-0.197898,0.971073,-0.014186,0.019772,0.005695,5.3e-05,0.001275,-0.00183,0.13484,0.227935,-0.964295,0.13525032983051236
-0.099231,0.089806,-0.197891,0.971044,-0.016676,0.013954,-0.002539,-0.000122,-0.000379,-0.00154,0.135137,0.228259,-0.964176,0.13555204367736456
-0.099391,0.089923,-0.197941,0.971007,-0.018514,0.005693,-0.004605,0.000168,0.001149,0.000701,0.135284,0.228617,-0.964071,0.13570071472264894
-0.099588,0.090005,-0.197951,0.970977,-0.024091,0.003297,0.00171,-1.1e-05,0.003639,0.003155,0.135358,0.229029,-0.963963,0.13577526478791424
-0.099819,0.09005,-0.197871,0.970966,-0.02121,-0.004739,0.006951,-0.001604,0.002343,0.004828,0.135369,0.229478,-0.963854,0.13578528148951186
-0.100004,0.089971,-0.197797,0.970969,-0.013479,-0.015447,0.008561,-0.001936,0.001774,0.003742,0.135157,0.229793,-0.963809,0.1355720372437499
-0.100168,0.089862,-0.197689,0.970984,-0.012804,-0.014125,0.009436,-0.001666,0.001433,0.000765,0.134904,0.230052,-0.963783,0.13531748942437571
-0.100365,0.089763,-0.197586,0.970994,-0.014747,-0.008054,0.009567,-0.000278,0.001761,-0.002167,0.134657,0.230379,-0.963739,0.13506753484078113
-0.100562,0.089665,-0.197482,0.971004,-0.01669,-0.001984,0.009699,0.001109,0.002088,-0.005099,0.134411,0.230707,-0.963695,0.13481982941571025
-0.100721,0.089662,-0.197366,0.971011,-0.010088,-0.003098,0.006618,-0.000386,-0.000345,-0.003269,0.134367,0.230994,-0.963632,0.13477542383260915
-0.10079,0.089636,-0.197334,0.971013,0.003274,-0.008991,0.000348,-0.00236,-0.000769,-0.001065,0.134297,0.231113,-0.963614,0.13470385518265687
-0.100717,0.089528,-0.197376,0.971022,0.011179,0.000785,-0.003872,0.000528,0.000184,-0.003751,0.134109,0.230938,-0.963682,0.134514364253957
-0.100596,0.089556,-0.197375,0.971032,0.009222,0.011519,0.005938,-0.000149,0.002035,-0.003295,0.134214,0.230716,-0.96372,0.1346194488038883
-0.100441,0.089676,-0.197311,0.97105,0.012519,0.007604,0.009631,-0.00362,-0.000857,0.00101,0.134525,0.230454,-0.96374,0.13493260741341503
-0.100229,0.089654,-0.197273,0.971082,0.022107,-0.000325,0.003659,-0.003825,-0.001794,0.0005,0.134578,0.230034,-0.963832,0.13498739453236944
-0.100005,0.089594,-0.197257,0.971114,0.020587,0.002189,0.002247,-0.001051,-0.001218,-0.002871,0.134558,0.229578,-0.963944,0.1349680007731867
-0.099828,0.08964,-0.197234,0.971132,0.018133,0.006526,0.003961,-0.000597,-0.001762,-0.002344,0.134726,0.229252,-0.963998,0.13513652590742176
-0.099662,0.089665,-0.197258,0.971142,0.01495,0.009799,-0.002142,-0.000994,-0.003638,-0.002156,0.134837,0.228946,-0.964055,0.13524859631759578
-0.099478,0.089684,-0.197337,0.971143,0.012338,0.009596,-0.006288,-0.000721,-0.003514,-0.002964,0.13493,0.228611,-0.964122,0.1353434190440448
-0.099345,0.089783,-0.197421,0.971131,0.00755,0.014556,-0.006814,1.3e-05,-0.00134,-0.002811,0.135157,0.228404,-0.964139,0.13557144100681015
-0.099277,0.089912,-0.197503,0.971109,-0.001159,0.016781,-0.004492,0.0017,-0.001511,-0.001138,0.135414,0.228334,-0.96412,0.13583099062020446
-0.099285,0.090083,-0.197556,0.971081,-0.010312,0.018654,-0.005552,0.001918,-0.000973,-0.001082,0.135727,0.22842,-0.964055,0.13614730126287597
-0.099364,0.090237,-0.197621,0.971046,-0.013454,0.011747,-0.005535,0.00106,-0.000943,0.000159,0.135976,0.22864,-0.963968,0.13639827315779868
-0.099466,0.090355,-0.197714,0.971006,-0.01227,0.010431,-0.008859,0.001558,-0.000728,0.000258,0.136139,0.228892,-0.963885,0.1365629273784029
-0.099544,0.090427,-0.197806,0.970972,-0.00747,0.003776,-0.008141,0.000694,0.00064,0.000977,0.136223,0.229084,-0.963828,0.13664823848829674
-0.099599,0.090455,-0.197874,0.97095,-0.005138,0.001218,-0.004139,0.001122,0.000877,0.000444,0.136238,0.229209,-0.963796,0.13666347078531327
-0.099633,0.09047,-0.197884,0.970943,-0.003054,-0.002004,0.00122,0.001135,0.001005,0.001146,0.136251,0.229281,-0.963777,0.13667600145909364
-0.099652,0.090467,-0.197862,0.970946,-0.001631,-0.002406,0.000421,0.000816,0.00116,-0.000491,0.136243,0.229313,-0.96377,0.13666750446414752
-0.099676,0.090433,-0.19784,0.970951,-0.002553,-0.005884,0.001922,0.00078,0.001664,-0.000614,0.136172,0.229344,-0.963773,0.13659661214267763
-0.099752,0.090388,-0.197815,0.970952,-0.00829,-0.003373,0.001425,0.001428,0.001143,-0.001895,0.13606,0.229469,-0.963759,0.13648326834603858
-0.099857,0.090384,-0.197776,0.97095,-0.010273,-0.002506,0.001253,0.000491,0.000393,-0.000651,0.136018,0.229663,-0.963719,0.13644099388480507
-0.099968,0.090363,-0.197757,0.970945,-0.010627,-0.006143,-0.000398,-0.00022,0.000744,-0.000773,0.135937,0.229867,-0.963682,0.13635843606750478
-0.100101,0.090325,-0.197768,0.970932,-0.014841,-0.00315,-0.000884,0.000563,0.001481,-0.001609,0.135805,0.23011,-0.963642,0.13622626452936565
-0.100275,0.090324,-0.197738,0.97092,-0.016355,-0.004987,0.00185,-0.00094,0.001361,-0.000303,0.135738,0.230439,-0.963573,0.1361587226966684
-0.100417,0.090296,-0.197696,0.970917,-0.010046,-0.008855,0.004917,-0.000986,0.001164,0.001147,0.135635,0.230695,-0.963526,0.13605512877336381
-0.100457,0.090205,-0.197609,0.970939,-0.004245,-0.008829,0.00508,-0.00101,-3e-05,-0.000733,0.135466,0.230725,-0.963543,0.13588246109665075
-0.100497,0.090115,-0.197522,0.970961,0.001557,-0.008802,0.005244,-0.001034,-0.001224,-0.002612,0.135296,0.230756,-0.963559,0.13571176340589852
-0.10049,0.090025,-0.197493,0.970976,0.005383,-0.004577,0.002587,-0.000967,-0.001169,-0.002793,0.135131,0.230706,-0.963595,0.13554676967418247
-0.10045,0.089968,-0.197499,0.970984,0.005222,-0.001698,-0.003257,-0.000551,-0.001767,-0.002297,0.135038,0.230608,-0.963631,0.13545123628356598
-0.100414,0.089952,-0.19754,0.970981,0.003743,0.002657,-0.006535,-0.000196,-0.001553,-0.002585,0.135011,0.230539,-0.963651,0.1354253742251546
-0.100382,0.089971,-0.197633,0.970963,0.002308,0.004427,-0.009659,-1e-06,-0.001021,-0.002225,0.13504,0.230497,-0.963657,0.13545325942480796
-0.10034,0.089979,-0.197794,0.970934,0.004047,0.005256,-0.015051,0.000789,0.000863,-0.003015,0.135035,0.230442,-0.963671,0.1354478179016802
-0.100298,0.090015,-0.197952,0.970903,0.003555,0.001973,-0.009321,-0.001936,0.000528,6.4e-05,0.135084,0.230397,-0.963675,0.1354975201392759
-0.100258,0.089975,-0.198032,0.970895,0.005469,-0.004695,-0.005892,-0.00258,-0.000159,0.002558,0.135004,0.230315,-0.963706,0.13541746989121398
-0.100196,0.089826,-0.198046,0.970912,0.009716,-0.011039,-0.001177,-0.001254,-0.000402,-0.001562,0.13474,0.230142,-0.963784,0.13515050853696856
-0.100109,0.089749,-0.19803,0.970931,0.011485,-0.000493,0.006397,0.000809,0.000941,-0.005562,0.13463,0.229944,-0.963847,0.13504106483951828
-0.100025,0.089813,-0.197965,0.970947,0.000708,0.015586,0.00933,0.000942,0.002051,-0.006512,0.134805,0.229799,-0.963857,0.13521608580167652
-0.100091,0.090039,-0.197849,0.970943,-0.018723,0.022183,0.015342,-0.00016,0.001802,-0.001288,0.135239,0.229994,-0.963749,0.13565534575085922
-0.100272,0.090249,-0.197725,0.97093,-0.023671,0.013034,0.003838,-0.001224,-0.001991,0.00143,0.135599,0.230403,-0.963601,0.13601737633099167
-0.100477,0.090349,-0.19774,0.970897,-0.019857,0.001364,-0.007159,-0.000393,-0.000639,0.000459,0.135703,0.230836,-0.963483,0.13612248932148333
-0.100704,0.090419,-0.197786,0.970857,-0.025836,0.000996,-0.003406,0.000546,0.002047,0.000613,0.135732,0.231307,-0.963366,0.1361524195802141
-0.100961,0.090454,-0.197762,0.970832,-0.021649,-0.00017,0.001646,-0.000669,0.000437,0.000553,0.135699,0.231809,-0.96325,0.13611872928673294
-0.101113,0.09043,-0.197735,0.970824,-0.010138,-0.008906,0.002372,-0.001968,0.000224,0.00229,0.135596,0.232088,-0.963197,0.1360150647715352
-0.101155,0.090344,-0.197674,0.97084,-0.004475,-0.009365,0.003752,-0.002044,0.002536,0.001339,0.135428,0.232128,-0.963211,0.13584513776706295
-0.101244,0.09025,-0.197569,0.970861,-0.007459,-0.00892,0.008219,-0.00126,0.004498,-0.001296,0.135235,0.232249,-0.963209,0.13565069683433043
-0.101389,0.090204,-0.197475,0.970869,-0.016801,-0.000975,0.006988,0.001158,0.004394,-0.003678,0.135108,0.232497,-0.963167,0.13552341886994562
-0.101537,0.090263,-0.197413,0.970861,-0.009908,-0.000753,0.003412,-0.001091,-0.000648,-0.000789,0.135176,0.232796,-0.963085,0.1355912979031956
-0.101604,0.09027,-0.197419,0.970852,0.001855,-0.001872,-0.005812,-0.002688,-0.001423,-0.001509,0.13516,0.232927,-0.963056,0.13557544703820115
-0.101535,0.090194,-0.197505,0.970849,0.013429,0.004187,-0.008756,0.000836,0.001017,-0.003181,0.135022,0.232778,-0.963111,0.13543583638215462
-0.101432,0.090256,-0.197578,0.970839,0.009374,0.01565,0.003193,0.001388,0.003462,-0.001448,0.135166,0.232613,-0.963131,0.1355816300256237
-0.101281,0.090417,-0.197572,0.970841,0.012346,0.016777,0.002806,-0.001024,3e-05,0.001808,0.135541,0.232384,-0.963134,0.1359589581959803
-0.101086,0.090458,-0.197553,0.970861,0.019302,-5.2e-05,0.001558,-0.002733,0.000308,0.002594,0.135705,0.232023,-0.963198,0.1361246103561423
-0.100918,0.090414,-0.197541,0.970885,0.013852,0.001365,0.007468,-0.000158,0.00139,-0.000631,0.135693,0.23168,-0.963282,0.13611219950203832
-0.100808,0.090395,-0.197462,0.970915,0.014073,0.003198,0.00949,-0.000207,-0.000539,-0.001143,0.135721,0.231452,-0.963333,0.1361403769221044
-0.100658,0.090393,-0.197393,0.970945,0.018095,0.001422,0.007903,-0.00091,-0.003429,-0.001776,0.135795,0.231152,-0.963394,0.1362157439877748
-0.100446,0.090353,-0.197329,0.970983,0.01961,0.000787,0.005518,0.001547,-0.003165,-0.002591,0.135821,0.230721,-0.963494,0.13624172766919798
-0.100277,0.090341,-0.197318,0.971004,0.015857,0.00404,0.002021,0.001012,-0.002659,-0.003056,0.13587,0.23039,-0.963566,0.13629158385925572
-0.100154,0.090373,-0.197333,0.97101,0.006268,0.004785,-0.0013,0.00053,-0.000361,-0.001392,0.135979,0.230169,-0.963604,0.13640136707422376
-0.100098,0.090418,-0.197353,0.971008,-0.003264,0.003141,-0.001261,0.00148,0.000985,-0.001739,0.136085,0.230081,-0.96361,0.13650748004803573
-0.100146,0.09048,-0.197342,0.971,-0.011173,0.002287,0.001925,0.001163,0.000562,7.3e-05,0.136187,0.230195,-0.963568,0.1366106552147973
-0.100229,0.090505,-0.19732,0.970993,-0.010712,0.005198,0.001177,0.001391,-0.00172,-0.001202,0.136206,0.23036,-0.963526,0.13662976753807674
-0.100278,0.090534,-0.197312,0.970987,-0.002344,-0.001818,-0.002324,0.002682,-0.002292,8.4e-05,0.136242,0.230464,-0.963496,0.13666761865693638
-0.100261,0.09053,-0.197339,0.970984,0.00287,-0.003776,-0.001951,0.001594,8.7e-05,0.0011,0.136235,0.230433,-0.963504,0.1366605360567055
