timestamp,quat_x,quat_y,quat_z,quat_w,rot_x,rot_y,rot_z,acc_x,acc_y,acc_z,grav_x,grav_y,grav_z,pitch_rad
1760643930.530578,-0.101764,-0.369531,0.0,0.923629,0.034651,0.018974,-0.021757,0.735069,0.096278,-0.252051,-0.682619,0.187984,-0.706182,0.7513406723950385
1760643930.560729,-0.12511,-0.207969,0.074801,0.967213,0.037604,0.004331,-0.008972,0.433141,0.013055,-0.077711,-0.383584,0.273128,-0.882193,0.3936740297615559
1760643930.561087,-0.144184,-0.039307,0.147048,0.977774,0.040557,-0.010312,0.003814,0.081125,-0.005415,-0.006243,-0.034462,0.293519,-0.955332,0.03446882046083854
1760643930.589942,-0.146287,-0.014965,0.157118,0.976571,0.037408,-0.018718,0.008147,0.032342,-0.001042,0.001212,0.01674,0.290422,-0.956752,-0.01674078565721118
1760643930.635723,-0.147114,0.002173,0.164304,0.975375,0.010841,0.009435,0.004168,0.001363,0.005447,0.007994,0.052581,0.28627,-0.956705,-0.052605266251107896
1760643930.636186,-0.145934,0.001918,0.164314,0.975551,0.007164,0.008204,0.007271,0.000326,0.004781,0.006022,0.051701,0.284102,-0.957399,-0.05172406605280551
1760643930.668853,-0.1453,0.000696,0.16432,0.975647,0.0057,-0.014137,0.018017,-0.000301,0.004993,0.001896,0.049109,0.283293,-0.957775,-0.04912877137723492
1760643930.669935,-0.146739,0.000662,0.164545,0.975393,-0.000513,-0.017913,0.024046,0.002333,-0.001333,0.001402,0.049581,0.286039,-0.956934,-0.0496013546974192
1760643930.712406,-0.147119,0.000624,0.164791,0.975295,0.002383,-0.02202,0.041323,0.004034,-0.004129,0.000684,0.049706,0.286763,-0.956711,-0.04972649968526723
1760643930.712777,-0.147499,0.000587,0.165037,0.975196,0.005279,-0.026126,0.058601,0.005734,-0.006924,-3.5e-05,0.049831,0.287487,-0.956488,-0.049851615992019496
1760643930.742817,-0.147575,0.000314,0.166484,0.974938,0.031947,-0.048921,0.155543,0.002743,-0.010367,-0.004216,0.04975,0.287649,-0.956443,-0.04977053975650288
1760643930.743147,-0.147344,0.000152,0.167728,0.97476,0.034739,-0.067454,0.178644,0.000607,-0.00494,-0.006124,0.049723,0.287199,-0.956579,-0.04974353608284197
1760643930.779327,-0.146572,0.000104,0.170288,0.974432,0.028025,-0.056353,0.142432,0.000324,-0.00597,-0.001151,0.050121,0.285614,-0.957033,-0.05014201787312757
1760643930.779646,-0.146099,0.000191,0.171271,0.974331,0.024008,-0.05767,0.124433,-0.002064,-0.002879,-0.000938,0.050417,0.284633,-0.95731,-0.050438376982730876
1760643930.808729,-0.145669,0.000158,0.17211,0.974248,0.018007,-0.054397,0.111277,-0.003689,-0.002976,-0.002368,0.05045,0.283781,-0.957561,-0.050471427298739685
1760643930.839957,-0.145065,-0.000365,0.174036,0.973996,0.007505,-0.059414,0.108736,-0.006166,-0.000556,-8e-05,0.049782,0.282712,-0.957912,-0.04980259190759521
1760643930.840268,-0.144904,-0.000586,0.174807,0.973881,0.009522,-0.060625,0.110294,-0.008323,-0.005506,-0.002666,0.04952,0.282443,-0.958005,-0.049540264944979887
1760643930.868952,-0.144732,-0.000879,0.175585,0.973767,0.008671,-0.050669,0.101776,-0.007557,0.000744,0.001948,0.049114,0.28218,-0.958103,-0.04913378903262224
1760643930.902975,-0.144597,-0.001569,0.176949,0.973539,-0.031707,-0.038516,0.051552,-0.006716,0.008781,0.001393,0.048117,0.282096,-0.958179,-0.04813557697102226
1760643930.903222,-0.144752,-0.001875,0.17729,0.973453,-0.036881,-0.041139,0.046405,-0.00622,0.009398,0.00172,0.047675,0.282484,-0.958087,-0.04769305916593891
1760643930.938515,-0.145247,-0.002587,0.177632,0.973316,-0.073397,-0.010589,-0.008006,-0.005191,0.012405,0.002788,0.046565,0.283661,-0.957793,-0.04658186072832921
1760643930.938839,-0.145688,-0.002854,0.177586,0.973257,-0.092631,-0.015099,-0.035385,-0.008997,0.027504,0.002169,0.046189,0.284597,-0.957534,-0.046205433752752496
1760643930.9668,-0.146632,-0.003372,0.177078,0.973207,-0.152058,-0.034696,-0.083743,-0.006552,0.030239,-0.002429,0.045367,0.286601,-0.956975,-0.0453825890796703
1760643931.000411,-0.149249,-0.005165,0.17606,0.972986,-0.153778,-0.091115,-0.026468,0.001,-0.027643,0.001963,0.042503,0.292252,-0.955396,-0.042515823276853666
1760643931.000751,-0.149899,-0.005822,0.176021,0.972889,-0.074518,-0.072577,0.004931,0.012077,-0.054527,0.003283,0.041443,0.29372,-0.954993,-0.04145486014004319
1760643931.053528,-0.149466,-0.006502,0.176773,0.972815,0.156744,-0.036739,0.083097,0.012859,-0.048569,0.004139,0.040193,0.293104,-0.955235,-0.040203843016423484
1760643931.053815,-0.148877,-0.006487,0.177154,0.972836,0.192776,-0.021571,0.081038,0.009403,-0.025207,0.013778,0.040127,0.291964,-0.955587,-0.04013778306634471
1760643931.081987,-0.146985,-0.005318,0.177067,0.973147,0.021786,0.150134,-0.133876,0.003932,0.08332,0.03473,0.041702,0.287959,-0.956734,-0.0417141092393161
1760643931.08234,-0.147147,-0.004706,0.175914,0.973334,-0.17209,0.031115,-0.176076,0.001149,0.073698,0.012463,0.04261,0.288102,-0.956651,-0.04262291486039053
1760643931.117047,-0.149492,-0.00521,0.173444,0.973418,-0.298235,-0.015213,-0.168115,0.006673,-0.006164,0.001483,0.041714,0.292845,-0.95525,-0.04172608994518834
1760643931.117401,-0.151171,-0.005655,0.172332,0.973353,-0.295937,-0.024952,-0.181771,0.009486,-0.015724,-0.016859,0.041094,0.296235,-0.954231,-0.04110556055995588
1760643931.147111,-0.153496,-0.006308,0.171401,0.97315,-0.213093,-0.020975,-0.123354,0.011422,-0.033583,-0.013975,0.040342,0.300912,-0.952798,-0.04035295997081735
1760643931.187874,-0.157018,-0.007137,0.170255,0.972783,-0.048511,0.007137,-0.020102,0.004578,-0.020141,-0.00775,0.03958,0.307919,-0.950589,-0.039590338822695706
1760643931.1885,-0.157185,-0.00704,0.170199,0.972767,-0.030799,0.01303,-0.007845,0.002402,-0.010037,-0.003756,0.03981,0.308205,-0.950487,-0.03982050904313043
1760643931.217987,-0.157286,-0.006681,0.170039,0.972781,-0.079922,-0.00356,-0.029136,-0.001072,0.003311,-0.000645,0.040492,0.308281,-0.950433,-0.040503080097681866
1760643931.218631,-0.157321,-0.006657,0.169826,0.972813,-0.08704,-0.016181,-0.035296,0.00026,-0.008041,0.00218,0.040482,0.308349,-0.950411,-0.04049308601897082
1760643931.25433,-0.157614,-0.00695,0.169558,0.97281,-0.051443,-0.028309,-0.019091,0.001044,-0.016172,0.002974,0.039928,0.309014,-0.950219,-0.0399386158827332
1760643931.285224,-0.157682,-0.00709,0.169585,0.972793,-0.018957,-0.018867,-0.001689,0.002308,-0.014075,0.005419,0.039687,0.309189,-0.950172,-0.03969743106787698
1760643931.285687,-0.157751,-0.00723,0.169613,0.972776,0.01353,-0.009426,0.015713,0.003572,-0.011977,0.007863,0.039447,0.309365,-0.950125,-0.0394572319060568
1760643931.315995,-0.157233,-0.006862,0.169922,0.972809,0.042141,0.033657,0.024487,0.001328,-0.001611,0.004642,0.040083,0.308247,-0.950462,-0.04009372345483282
1760643931.346595,-0.156851,-0.006505,0.169994,0.972861,0.042752,0.038767,0.016776,-0.000896,-0.00011,0.006618,0.04067,0.307401,-0.950711,-0.040681203171948774
1760643931.346868,-0.15647,-0.006148,0.170065,0.972912,0.043363,0.043877,0.009064,-0.00312,0.001391,0.008593,0.041258,0.306554,-0.950959,-0.041269701695595865
1760643931.380411,-0.155723,-0.005192,0.170069,0.973036,0.047822,0.058079,0.003058,0.000201,-0.002501,0.011631,0.042864,0.304815,-0.951447,-0.04287711737826805
1760643931.380705,-0.155484,-0.004765,0.170041,0.973082,0.051187,0.077112,-0.000129,0.001185,-0.001278,0.012279,0.043603,0.304218,-0.951604,-0.04361682863501984
1760643931.424106,-0.154992,-0.003561,0.169835,0.973201,0.05686,0.083045,0.000419,-0.001801,0.003958,-0.007422,0.045714,0.302887,-0.95193,-0.045729913392589014
1760643931.424426,-0.154834,-0.003172,0.169766,0.97324,0.044835,0.072814,0.001282,-0.003467,0.003799,-0.014253,0.046398,0.302458,-0.952033,-0.04641465311876358
1760643931.455953,-0.154614,-0.002587,0.169532,0.973317,0.015397,0.014306,-0.013752,-0.007058,-0.004506,-0.017739,0.047388,0.301855,-0.952175,-0.04740577061571992
1760643931.456273,-0.154567,-0.002612,0.169466,0.973336,0.016518,-0.019159,-0.014167,-0.002626,-0.012502,-0.003197,0.047303,0.301777,-0.952204,-0.04732067290882098
1760643931.491571,-0.154451,-0.002677,0.169393,0.973367,0.016975,-0.006814,-0.007801,-0.000653,-0.017976,0.001099,0.047114,0.301581,-0.952276,-0.047131437846296795
1760643931.527743,-0.154222,-0.002836,0.16948,0.973388,0.006238,-0.024744,0.029001,-7.7e-05,-0.018804,-0.001801,0.046754,0.301197,-0.952415,-0.04677105262720996
1760643931.528018,-0.154231,-0.00303,0.169643,0.973357,-0.018322,-0.025269,0.027069,0.001206,-0.017099,-0.001674,0.046429,0.301272,-0.952407,-0.046445707136685
1760643931.561855,-0.154567,-0.003577,0.170337,0.973181,-0.063141,-0.043602,0.052381,-0.001777,-0.01479,-0.009982,0.045696,0.302062,-0.952192,-0.04571193684690283
1760643931.56217,-0.154776,-0.003873,0.170752,0.973074,-0.063963,-0.060227,0.075988,-0.003563,-0.009488,-0.013893,0.045319,0.302539,-0.952059,-0.04533452718797688
1760643931.591079,-0.155206,-0.005078,0.172363,0.972716,-0.064348,-0.093403,0.083558,-0.011502,0.005794,0.004473,0.043624,0.303693,-0.951771,-0.04363783680022968
1760643931.609998,-0.155426,-0.005734,0.173132,0.972541,-0.059709,-0.083867,0.074705,-0.010327,0.007353,0.014774,0.042666,0.304303,-0.951619,-0.04267896767922566
1760643931.64212,-0.155668,-0.006222,0.173672,0.972403,-0.074221,-0.071138,0.066693,-0.007601,0.009247,0.01869,0.041969,0.304906,-0.951457,-0.04198134119412447
1760643931.642421,-0.15591,-0.006711,0.174212,0.972264,-0.088733,-0.058409,0.058682,-0.004876,0.01114,0.022605,0.041273,0.305509,-0.951294,-0.04128473746913708
1760643931.67094,-0.157648,-0.007676,0.175163,0.971806,-0.144259,-0.028631,0.047846,-0.0055,0.012055,0.003316,0.040309,0.309096,-0.950176,-0.04031993216788047
1760643931.701637,-0.15874,-0.008074,0.175494,0.971565,-0.174681,-0.030132,0.045032,-0.007942,0.019184,-0.002292,0.040027,0.311287,-0.949473,-0.04003768127631462
1760643931.701879,-0.159832,-0.008472,0.175825,0.971323,-0.205102,-0.031634,0.042218,-0.010385,0.026314,-0.007906,0.039747,0.313477,-0.948764,-0.039757457453201334
1760643931.722512,-0.163934,-0.010259,0.176371,0.970522,-0.246419,-0.061184,0.002063,-0.004054,0.007726,0.011619,0.037914,0.321822,-0.946041,-0.03792308082508146
1760643931.752542,-0.165513,-0.010898,0.176341,0.970253,-0.224437,-0.043839,-0.003132,0.00049,-0.006101,0.016871,0.037227,0.325022,-0.944973,-0.03723562024756648
1760643931.781555,-0.166827,-0.01136,0.176313,0.970028,-0.188383,-0.021832,0.003349,0.002093,-0.012385,0.013336,0.036788,0.327659,-0.944079,-0.03679632253443356
1760643931.781886,-0.168141,-0.011823,0.176284,0.9698,-0.152328,0.000176,0.009831,0.003695,-0.018666,0.009793,0.036349,0.330294,-0.943178,-0.03635700700613625
1760643931.810487,-0.170033,-0.012228,0.17653,0.969421,-0.083201,-0.006631,0.025106,-0.003457,0.015606,-0.001274,0.036323,0.333984,-0.941878,-0.03633101302427608
1760643931.842995,-0.170538,-0.012389,0.176663,0.969306,-0.103428,-0.019873,0.015471,-0.004024,0.033324,-0.001338,0.036239,0.334984,-0.941527,-0.03624692504200742
1760643931.843257,-0.171043,-0.012549,0.176796,0.96919,-0.123655,-0.033115,0.005837,-0.004591,0.051042,-0.001404,0.036154,0.335983,-0.941174,-0.03616187748629478
1760643931.873895,-0.17395,-0.013774,0.176563,0.968699,-0.307372,-0.059157,-0.047419,-0.005746,0.072036,-0.002748,0.03474,0.341874,-0.939103,-0.03474700643735245
1760643931.903553,-0.176421,-0.01496,0.176191,0.968302,-0.390761,-0.100912,-0.056827,-0.006947,0.058892,-0.007173,0.033195,0.34693,-0.937303,-0.03320111184027183
1760643931.903698,-0.178891,-0.016146,0.175818,0.967897,-0.474151,-0.142667,-0.066236,-0.008145,0.045758,-0.011628,0.031648,0.351974,-0.935474,-0.031653302925711925
1760643931.936703,-0.186697,-0.020384,0.17478,0.96653,-0.547938,-0.180695,-0.101212,0.007175,-0.036433,0.009565,0.025858,0.368022,-0.929458,-0.025860869501856936
1760643931.936997,-0.190006,-0.022147,0.174255,0.965941,-0.475392,-0.152868,-0.048053,0.022631,-0.086232,0.006557,0.023433,0.374787,-0.926815,-0.023435139845323298
1760643931.968095,-0.195855,-0.02533,0.174897,0.964578,-0.330289,-0.116302,0.058097,0.016708,-0.051286,0.018176,0.019643,0.386696,-0.921998,-0.019644263853137948
1760643931.999099,-0.197577,-0.026135,0.175438,0.964107,-0.310724,-0.100915,0.06851,0.011522,-0.03239,0.006689,0.018932,0.390141,-0.92056,-0.018933139317025824
1760643931.999378,-0.199299,-0.026939,0.175978,0.963632,-0.291159,-0.085528,0.078924,0.006331,-0.01349,-0.004812,0.018226,0.393582,-0.919109,-0.018227006201367878
1760643932.032531,-0.202356,-0.028535,0.177443,0.962679,-0.283919,-0.122598,0.07235,-0.003002,0.018833,-0.017672,0.016873,0.399735,-0.916475,-0.016873807522144856
1760643932.060611,-0.20361,-0.029405,0.178121,0.962264,-0.274551,-0.129134,0.067388,-0.006781,0.037256,-0.009106,0.015943,0.402328,-0.915357,-0.015943671995628902
1760643932.060964,-0.204863,-0.030276,0.178798,0.961845,-0.265182,-0.13567,0.062425,-0.010564,0.055681,-0.00055,0.015017,0.404919,-0.914229,-0.01501756769127818
1760643932.092093,-0.207948,-0.032667,0.179816,0.960915,-0.229832,-0.156373,0.023305,-0.02336,0.065494,-0.02479,0.012005,0.411388,-0.911381,-0.012005291177841295
1760643932.099136,-0.210442,-0.035607,0.180267,0.960182,-0.256683,-0.199849,-0.05611,-0.022916,0.039488,0.017558,0.007492,0.416963,-0.908893,-0.007492067246660148
1760643932.129424,-0.211754,-0.037295,0.180212,0.95984,-0.17543,-0.1611,-0.03029,-0.011349,0.009685,0.037266,0.004726,0.419942,-0.907539,-0.004726016045082318
1760643932.162577,-0.212543,-0.038422,0.180242,0.959616,-0.137332,-0.135038,-0.024501,-0.009363,0.010474,0.040369,0.002878,0.42177,-0.906698,-0.0028780047227778332
1760643932.162894,-0.213332,-0.039548,0.180271,0.959389,-0.099233,-0.108977,-0.018713,-0.007379,0.011266,0.043466,0.001031,0.423596,-0.905851,-0.0010309998381033498
1760643932.192755,-0.214632,-0.041107,0.180133,0.95906,-0.059024,-0.028138,-0.026887,-0.012494,0.028359,0.007797,-0.001524,0.426499,-0.904487,0.001524000244942185
1760643932.197731,-0.215426,-0.041963,0.179416,0.958979,-0.030948,-0.028164,-0.056839,-0.013204,0.019127,0.001149,-0.003181,0.428235,-0.903662,0.003181004817153774
1760643932.229666,-0.215545,-0.042101,0.179028,0.959019,0.003513,0.005888,-0.059685,-0.007711,0.016956,0.0049,-0.003573,0.428498,-0.903535,0.003573009748784362
1760643932.271521,-0.215302,-0.041782,0.178411,0.959202,0.038527,0.027915,-0.050556,-0.00743,0.011609,0.000975,-0.00333,0.427944,-0.903799,0.0033300065066246146
1760643932.271841,-0.215058,-0.041463,0.177794,0.959385,0.073542,0.049942,-0.041427,-0.00715,0.006262,-0.002951,-0.003085,0.42739,-0.904062,0.0030850051569689166
1760643932.278234,-0.214344,-0.040846,0.177068,0.959706,0.056297,0.030783,-0.02207,-0.007245,0.021088,-0.003465,-0.002494,0.425879,-0.904777,0.0024940018841467
1760643932.308133,-0.214361,-0.040727,0.176822,0.959752,-0.008986,0.031092,-0.024482,0.00274,0.02383,0.009443,-0.002369,0.42587,-0.904781,0.002369002776118043
1760643932.337821,-0.214929,-0.040694,0.176541,0.959679,-0.086325,0.035189,-0.033055,0.007871,0.023881,0.014027,-0.00222,0.426893,-0.904299,0.002220002663507091
1760643932.337912,-0.21715,-0.040747,0.175728,0.959325,-0.200796,0.033583,-0.040622,0.014442,0.001187,0.00759,-0.001861,0.430955,-0.902371,0.001861001914464025
1760643932.388229,-0.219451,-0.040911,0.17516,0.958898,-0.196411,0.036409,-0.016427,0.016421,-0.021455,-0.000751,-0.00158,0.435195,-0.900335,0.0015800004230323314
1760643932.395536,-0.220973,-0.040891,0.175354,0.958514,-0.145232,0.011257,0.024361,0.009802,-0.021866,-0.010355,-0.000892,0.437953,-0.898998,0.0008919996589637871
1760643932.395644,-0.222494,-0.040871,0.175546,0.958128,-0.094053,-0.013894,0.065149,0.003183,-0.022272,-0.019969,-0.000203,0.440706,-0.897652,0.00020299990672027862
1760643932.430493,-0.222909,-0.040981,0.176033,0.957938,-0.072489,-0.03713,0.079748,0.000543,-0.023121,-0.0158,-3.6e-05,0.441493,-0.897265,3.599999009752009e-05
1760643932.436529,-0.223294,-0.041317,0.177445,0.957573,-0.017684,-0.069062,0.109593,-0.000872,-0.01751,-0.003466,0.000116,0.442303,-0.896866,-0.00011599996666534568
1760643932.466987,-0.223083,-0.04157,0.178332,0.957446,0.007783,-0.077741,0.114988,-0.000559,-0.016191,0.001442,-3.6e-05,0.442007,-0.897012,3.5999987092980947e-05
1760643932.497233,-0.222676,-0.041799,0.179261,0.957358,0.030448,-0.08196,0.122228,-0.00276,-0.009628,0.001525,-0.000199,0.441348,-0.897336,0.00019900000195013372
1760643932.497483,-0.222269,-0.042029,0.180189,0.957268,0.053113,-0.08618,0.129467,-0.004959,-0.003064,0.001607,-0.000364,0.440689,-0.89766,0.00036399993472541447
1760643932.525215,-0.220954,-0.042588,0.182329,0.957142,0.048945,-0.05909,0.086787,-0.000808,0.001643,0.008089,-0.000952,0.438499,-0.898731,0.0009520002915193788
1760643932.556218,-0.220555,-0.042774,0.182902,0.957117,0.056103,-0.077516,0.056285,-0.003172,0.002757,0.012673,-0.0012,0.437841,-0.899052,0.0011999998800091007
1760643932.556528,-0.220156,-0.042961,0.183474,0.957091,0.063261,-0.095942,0.025783,-0.005534,0.003871,0.017256,-0.001449,0.437182,-0.899372,0.0014490003656975224
1760643932.586503,-0.21956,-0.043263,0.184108,0.957092,0.025558,0.000522,0.031024,-0.012006,0.001526,0.03193,-0.001967,0.436209,-0.899843,0.0019670016761598815
1760643932.617443,-0.219582,-0.043289,0.184246,0.95706,-0.010118,-0.014478,0.01141,-0.018013,0.021384,0.014594,-0.001947,0.436257,-0.89982,0.0019470012366829684
1760643932.617776,-0.219603,-0.043316,0.184384,0.957027,-0.045794,-0.029478,-0.008203,-0.024019,0.041241,-0.002741,-0.001926,0.436305,-0.899797,0.0019260008019704503
1760643932.649344,-0.221235,-0.044138,0.183576,0.956769,-0.140976,-0.001431,-0.095822,-0.027247,0.055805,0.005006,-0.003233,0.439548,-0.898213,0.0032330064565492646
1760643932.679899,-0.222028,-0.04437,0.182581,0.956765,-0.095023,0.036646,-0.141134,-0.03172,0.050991,0.010274,-0.003828,0.441059,-0.89747,0.003828009165369898
1760643932.680326,-0.22282,-0.044602,0.181586,0.956759,-0.04907,0.074723,-0.186447,-0.03619,0.046179,0.01554,-0.004425,0.442568,-0.896724,0.004425014557161511
1760643932.717214,-0.221603,-0.04332,0.177557,0.957856,0.285845,0.218106,-0.306341,-0.0371,0.072857,0.031773,-0.004293,0.439911,-0.898031,0.004293013627280359
1760643932.71755,-0.220246,-0.042322,0.175638,0.958567,0.414124,0.290169,-0.373246,-0.038556,0.090189,0.043589,-0.003769,0.437109,-0.899401,0.0037690077134532656
1760643932.757371,-0.213184,-0.037131,0.167462,0.961837,0.706122,0.483536,-0.612744,-0.020419,0.093805,0.041589,-2.8e-05,0.422532,-0.906348,2.8000000158890665e-05
1760643932.757758,-0.210156,-0.034916,0.164115,0.963162,0.786933,0.555637,-0.705498,-0.008554,0.095603,0.035468,0.001719,0.416289,-0.909231,-0.0017190004187009214
1760643932.806272,-0.195985,-0.024594,0.147736,0.969102,1.017913,0.689276,-0.956958,0.007933,0.037683,0.027943,0.010239,0.387125,-0.92197,-0.010239182580556169
1760643932.806585,-0.187878,-0.018949,0.138412,0.972206,1.123852,0.721635,-1.058097,0.010976,0.001937,0.031009,0.015164,0.370557,-0.928686,-0.015164580274286719
1760643932.837587,-0.18053,-0.014262,0.130308,0.974795,1.187197,0.745439,-1.087361,0.017506,-0.019262,0.038894,0.019244,0.355676,-0.934411,-0.0192451911944662
1760643932.837899,-0.173156,-0.009572,0.122183,0.977239,1.250543,0.769242,-1.116626,0.023754,-0.040434,0.046495,0.023605,0.340768,-0.939851,-0.023607193501281064
1760643932.867861,-0.155365,0.001805,0.102488,0.982525,1.117437,0.722602,-1.137904,0.017803,0.00154,-0.013126,0.035393,0.30493,-0.951717,-0.035400389576930244
1760643932.904858,-0.142088,0.010179,0.084563,0.986183,0.866489,0.613822,-1.16812,0.018763,0.001903,-0.008572,0.044108,0.278527,-0.959415,-0.04412231582629048
1760643932.938782,-0.138169,0.012828,0.076975,0.987329,0.77747,0.568654,-1.145216,0.021014,-0.005772,-0.007329,0.046602,0.270862,-0.961489,-0.04661890623402217
1760643932.939204,-0.13424,0.015475,0.069382,0.988396,0.688451,0.523485,-1.122312,0.023141,-0.013466,-0.00617,0.049219,0.263216,-0.96348,-0.04923892146935233
1760643932.939632,-0.130299,0.018121,0.061782,0.989382,0.599432,0.478317,-1.099409,0.025146,-0.021182,-0.005095,0.051958,0.255592,-0.965388,-0.05198138309786315
1760643932.972178,-0.123114,0.023477,0.044227,0.991129,0.417504,0.424667,-1.020841,0.022818,-0.013301,-0.00194,0.057428,0.241966,-0.968584,-0.057459598998063834
1760643933.000593,-0.118434,0.028034,0.027433,0.992187,0.233953,0.349378,-0.950786,0.012459,-0.022326,-0.019624,0.062127,0.233479,-0.970375,-0.062167040228873385
1760643933.001018,-0.117323,0.029451,0.020665,0.992442,0.166892,0.283766,-0.919427,0.012419,-0.024903,-0.024924,0.063305,0.231655,-0.970736,-0.0633473609260819
1760643933.031294,-0.116655,0.030448,0.014645,0.992598,0.13489,0.257311,-0.876033,0.017061,-0.03726,-0.015236,0.063862,0.230691,-0.970929,-0.06390549441293276
1760643933.063663,-0.115185,0.032768,0.001033,0.992803,0.126601,0.246285,-0.763502,0.030316,-0.055431,0.016821,0.065303,0.228645,-0.971317,-0.06534951196383708
1760643933.064015,-0.114429,0.033892,-0.003804,0.992846,0.148262,0.263933,-0.682181,0.027341,-0.067905,0.015143,0.066429,0.227479,-0.971515,-0.06647792367224323
1760643933.092825,-0.113439,0.035196,-0.007991,0.992889,0.157345,0.245735,-0.562085,0.009764,-0.063553,-0.002767,0.068079,0.225827,-0.971786,-0.06813167722937823
1760643933.0948,-0.111383,0.037682,-0.015535,0.992941,0.065861,0.10586,-0.283097,-0.03155,-0.037396,-0.046952,0.071372,0.222364,-0.972348,-0.07143272139584841
1760643933.12408,-0.111368,0.037727,-0.016991,0.992917,-0.052773,-0.017969,-0.189234,-0.035772,-0.021051,-0.058616,0.071136,0.222441,-0.972348,-0.0711960980032797
1760643933.16339,-0.113082,0.03604,-0.018154,0.992766,-0.274319,-0.247847,-0.001288,-0.032829,-0.037578,-0.051371,0.067453,0.225836,-0.971827,-0.06750427191815377
1760643933.163673,-0.114734,0.034197,-0.017331,0.992656,-0.301568,-0.312542,0.121086,-0.026024,-0.054785,-0.03286,0.063915,0.228969,-0.971333,-0.06395860574998415
1760643933.192645,-0.116382,0.032012,-0.015471,0.992568,-0.289432,-0.341881,0.2473,-0.021657,-0.055876,-0.009781,0.059948,0.232025,-0.970861,-0.05998395132138597
1760643933.22161,-0.120343,0.02656,-0.008519,0.99234,-0.294335,-0.37626,0.522041,-0.014114,-0.017935,0.016928,0.050663,0.239294,-0.969624,-0.05068472205055502
1760643933.222407,-0.122194,0.024322,-0.004231,0.992199,-0.348354,-0.386283,0.602877,-0.008861,-0.000473,0.013795,0.04723,0.242688,-0.968954,-0.047247576943457645
1760643933.253753,-0.124281,0.022263,0.000284,0.991997,-0.427276,-0.401566,0.666586,-0.000428,0.014826,0.021503,0.04424,0.246561,-0.968117,-0.04425444298293754
1760643933.25495,-0.131012,0.01738,0.012524,0.991149,-0.654883,-0.384732,0.805628,0.018505,0.039182,0.047673,0.037733,0.25927,-0.965068,-0.03774194158773112
1760643933.284189,-0.135609,0.015539,0.01861,0.990466,-0.750161,-0.358166,0.824327,0.024144,0.029063,0.046389,0.035829,0.268054,-0.962737,-0.0358366845737701
1760643933.318888,-0.146253,0.012235,0.032054,0.988652,-0.746089,-0.30876,0.909461,0.044746,-0.00779,0.019904,0.033569,0.288403,-0.956921,-0.03357529162903568
1760643933.319198,-0.150887,0.01101,0.038828,0.987727,-0.64289,-0.276422,0.941214,0.051537,-0.0132,0.014703,0.033467,0.297215,-0.954224,-0.03347324655483624
1760643933.348695,-0.154385,0.010301,0.045482,0.98691,-0.517596,-0.240886,0.961732,0.05185,-0.004264,0.011608,0.034375,0.303792,-0.952118,-0.03438177503818153
1760643933.382603,-0.160246,0.009067,0.061675,0.985107,-0.24729,-0.202371,1.020531,0.050363,0.029167,0.020164,0.037631,0.314601,-0.948478,-0.03763987966747494
1760643933.383033,-0.161367,0.008789,0.068065,0.984505,-0.199143,-0.188984,1.01333,0.050565,0.061892,0.021509,0.039272,0.316537,-0.947767,-0.03928209692847819
1760643933.411766,-0.162476,0.008498,0.074711,0.983843,-0.199839,-0.195986,0.959847,0.044257,0.088003,0.005289,0.040999,0.318432,-0.947059,-0.04101048225439209
1760643933.444158,-0.16525,0.007219,0.089298,0.982174,-0.216404,-0.278569,0.829142,0.021655,0.117191,-0.035054,0.043693,0.32332,-0.945281,-0.043706890793222056
1760643933.448921,-0.167024,0.004711,0.098443,0.981015,-0.155926,-0.324385,0.753874,0.021712,0.10603,-0.015042,0.042128,0.326779,-0.944161,-0.042140486442791156
1760643933.497317,-0.168389,0.001126,0.109663,0.979601,-0.03914,-0.395455,0.668419,0.003518,0.104748,-0.0071,0.039139,0.329661,-0.943288,-0.0391489899399665
1760643933.509736,-0.16829,-0.002166,0.117414,0.978717,0.037444,-0.454388,0.596774,-0.009422,0.112445,0.000582,0.03528,0.329925,-0.943348,-0.0352873116359319
1760643933.509957,-0.167552,-0.005726,0.123739,0.97805,0.077452,-0.47107,0.490017,-0.009109,0.104494,0.015631,0.030266,0.329165,-0.943787,-0.030270629795872493
1760643933.537935,-0.166284,-0.009182,0.128989,0.977562,0.153235,-0.42472,0.420817,0.000411,0.079041,0.027404,0.024946,0.327475,-0.94453,-0.02494859928908143
1760643933.573997,-0.164331,-0.012157,0.13359,0.977242,0.235788,-0.358756,0.370243,0.002207,0.063999,0.044402,0.020145,0.324431,-0.945695,-0.020146359490432954
1760643933.574353,-0.16181,-0.014318,0.137617,0.977074,0.317189,-0.269584,0.346737,-0.00385,0.038794,0.046291,0.016555,0.320141,-0.947225,-0.01655576019575765
1760643933.606037,-0.158852,-0.015735,0.141406,0.976997,0.371798,-0.223181,0.341731,-0.013382,0.022385,0.029537,0.01418,0.314845,-0.949037,-0.014180477557141562
1760643933.608126,-0.155509,-0.016822,0.145269,0.97695,0.399525,-0.225791,0.364097,-0.022663,0.007292,0.019048,0.012314,0.308737,-0.951068,-0.012314308083270855
1760643933.638571,-0.152168,-0.017862,0.14925,0.976857,0.385736,-0.225177,0.373109,-0.024278,-0.005021,0.008388,0.010524,0.302625,-0.953052,-0.01052419027436967
1760643933.667709,-0.148792,-0.018924,0.153211,0.976744,0.3904,-0.210504,0.351704,-0.016706,-0.0295,0.003579,0.008626,0.296462,-0.955006,-0.00862610445257183
1760643933.669697,-0.144812,-0.019711,0.15712,0.976706,0.471359,-0.176483,0.374496,-0.016231,-0.052159,-0.002059,0.007001,0.289072,-0.957282,-0.0070010555726796415
1760643933.69923,-0.139937,-0.020119,0.161066,0.976765,0.5418,-0.149377,0.353843,-0.021577,-0.052555,-0.012968,0.005775,0.279852,-0.960026,-0.005775030907309357
1760643933.729022,-0.134133,-0.020088,0.164863,0.976947,0.67049,-0.128359,0.374856,-0.024188,-0.067543,-0.01778,0.004977,0.268705,-0.96321,-0.004977018925722571
1760643933.730287,-0.127024,-0.019669,0.168798,0.977233,0.765832,-0.098459,0.36359,-0.022281,-0.057687,-0.00255,0.004441,0.254904,-0.966956,-0.004441015313875735
1760643933.761257,-0.119015,-0.018583,0.172552,0.977607,0.851269,-0.037371,0.355384,-0.021057,-0.052854,0.011999,0.004738,0.239113,-0.97098,-0.0047380185898938795
1760643933.768201,-0.11061,-0.016875,0.176039,0.978004,0.857974,0.016317,0.319737,-0.026418,-0.031163,0.017405,0.005936,0.222295,-0.974961,-0.005936037073059831
1760643933.798343,-0.102397,-0.014872,0.17906,0.978382,0.809215,0.034829,0.27301,-0.033903,-0.011445,0.005983,0.00757,0.205693,-0.978587,-0.007570074452556557
1760643933.826899,-0.094992,-0.013051,0.181554,0.978695,0.712437,0.033909,0.215774,-0.032537,0.005877,0.014655,0.008947,0.190674,-0.981613,-0.008947116217126782
1760643933.829492,-0.088851,-0.011518,0.183353,0.978956,0.555303,0.047525,0.143563,-0.024432,0.021557,0.018111,0.010031,0.178186,-0.983946,-0.01003116520724006
1760643933.862221,-0.084369,-0.010267,0.184456,0.979159,0.387681,0.0394,0.080128,-0.016892,0.024185,0.009871,0.011019,0.16901,-0.985553,-0.011019220163462861
1760643933.865967,-0.081475,-0.009475,0.185029,0.979304,0.239802,0.04375,0.036489,-0.005355,0.01487,0.009117,0.011592,0.163083,-0.986544,-0.011592262506295498
1760643933.896399,-0.080015,-0.008984,0.185184,0.9794,0.121864,0.037452,0.0014,0.001555,-0.001989,0.00066,0.012037,0.160062,-0.987034,-0.0120372855728626
1760643933.927427,-0.079394,-0.008675,0.185121,0.979465,0.047004,0.038152,-0.006038,0.006423,-0.020797,0.007824,0.012402,0.158738,-0.987243,-0.012402316065569484
1760643933.943173,-0.079261,-0.00814,0.185064,0.979491,0.003114,0.060617,0.008373,0.008455,-0.031906,0.010582,0.013391,0.158283,-0.987303,-0.013391399969093422
1760643933.946852,-0.079668,-0.007639,0.18514,0.979448,-0.032256,0.063822,0.01822,0.009502,-0.026337,0.005772,0.014536,0.15889,-0.987189,-0.014536515950991669
1760643933.977102,-0.080387,-0.007131,0.185245,0.979373,-0.083399,0.047801,0.011428,0.005971,-0.016213,-0.002371,0.015815,0.1601,-0.986974,-0.015815660908195514
1760643934.006555,-0.08134,-0.006953,0.185281,0.979289,-0.116033,0.038361,0.006695,0.015332,-0.017227,0.009629,0.016523,0.161888,-0.986671,-0.016523748640526772
1760643934.006873,-0.082413,-0.006694,0.185306,0.979196,-0.147648,0.04317,-0.00658,0.020408,-0.006744,0.011058,0.017433,0.163877,-0.986327,-0.01743387849587003
1760643934.086489,-0.083931,-0.006548,0.185062,0.979114,-0.158336,0.026392,-0.014566,0.015915,-0.005199,0.00109,0.018241,0.166779,-0.985826,-0.018242003771475793
1760643934.086776,-0.085448,-0.006403,0.184818,0.97903,-0.169024,0.009614,-0.022551,0.011424,-0.003654,-0.008888,0.019048,0.16968,-0.985315,-0.019049154156067158
1760643934.087158,-0.086966,-0.006257,0.184574,0.978943,-0.179712,-0.007163,-0.030537,0.006935,-0.002107,-0.018874,0.019853,0.172579,-0.984796,-0.01985429629387134
1760643934.087611,-0.088565,-0.006635,0.184225,0.978863,-0.17412,-0.029937,-0.040145,0.009547,-0.011178,-0.014966,0.019642,0.175831,-0.984224,-0.01964327078143505
1760643934.119941,-0.089874,-0.007179,0.184054,0.978772,-0.133411,-0.047098,-0.016619,0.017252,-0.004486,0.007137,0.019029,0.178575,-0.983742,-0.019030153772871556
1760643934.127205,-0.090964,-0.007429,0.18376,0.978725,-0.103607,0.019241,-0.031206,0.021998,-0.010867,0.016034,0.018888,0.180787,-0.983341,-0.01888912118894543
1760643934.166936,-0.091716,-0.007222,0.183347,0.978734,-0.050249,0.032799,-0.047082,0.013446,-0.02681,-0.004224,0.019494,0.182179,-0.983072,-0.0194952372107183
1760643934.195225,-0.090971,-0.006888,0.183386,0.978798,0.048121,0.011994,-0.004036,0.009603,-0.017094,0.001523,0.019882,0.180611,-0.983354,-0.019883302980619993
1760643934.224234,-0.089856,-0.006401,0.183556,0.978873,0.106323,0.026077,0.014058,0.008432,-0.010168,0.006646,0.020457,0.178265,-0.98377,-0.020458423914806446
1760643934.228392,-0.088523,-0.005748,0.183805,0.978952,0.122566,0.02959,0.023011,0.005166,-0.001335,0.004,0.021289,0.175432,-0.984261,-0.02129061562803928
1760643934.256891,-0.087273,-0.005131,0.184081,0.979015,0.095743,0.024157,0.027432,0.001833,0.002456,0.000845,0.022084,0.172772,-0.984714,-0.022085800670317735
1760643934.288777,-0.086438,-0.004772,0.184437,0.979024,0.048133,-0.000454,0.041718,-0.001678,0.006676,0.002326,0.022541,0.171011,-0.985011,-0.022542914581746936
1760643934.289936,-0.086308,-0.004764,0.184934,0.978942,-0.038077,-0.020767,0.053747,-0.001835,0.01525,0.006083,0.022595,0.170743,-0.985057,-0.02259691173515278
1760643934.30313,-0.087169,-0.005148,0.185467,0.978763,-0.144979,-0.037256,0.045338,0.001639,0.020606,0.01526,0.022256,0.172546,-0.98475,-0.02225783759449766
1760643934.332866,-0.088996,-0.005683,0.185787,0.978535,-0.224565,-0.00237,0.013622,0.007334,0.007178,0.021357,0.021947,0.176283,-0.984095,-0.02194875856640111
1760643934.363533,-0.091314,-0.005964,0.185847,0.978308,-0.233277,0.035032,0.002891,0.008046,-0.010597,0.015715,0.022271,0.180883,-0.983252,-0.022272850909069587
1760643934.363816,-0.093458,-0.005894,0.185807,0.978114,-0.167479,0.066479,0.006057,0.004986,-0.028655,0.009606,0.0232,0.185015,-0.982462,-0.023202077386390282
1760643934.392842,-0.094796,-0.005327,0.18586,0.977978,-0.059408,0.094837,0.02013,0.001256,-0.029653,0.005171,0.024819,0.187397,-0.981971,-0.024821540486590517
1760643934.42282,-0.095102,-0.004253,0.186012,0.977925,0.040783,0.116909,0.032222,-0.003948,-0.018989,0.001548,0.027061,0.187588,-0.981875,-0.027064302911390198
1760643934.425025,-0.09453,-0.002995,0.186278,0.977934,0.088288,0.094224,0.037407,-0.012406,0.000661,-0.009977,0.02936,0.186004,-0.98211,-0.029364226350390914
1760643934.456202,-0.093625,-0.002027,0.186595,0.977963,0.079045,0.057454,0.037098,-0.016127,0.016609,-0.007246,0.030976,0.183881,-0.98246,-0.030980965292682263
1760643934.463147,-0.093,-0.001485,0.186929,0.97796,0.018659,0.026908,0.035015,-0.017484,0.032782,0.000265,0.031865,0.182455,-0.982698,-0.03187038597222898
1760643934.49492,-0.093182,-0.001435,0.187302,0.977871,-0.089742,-0.003201,0.038132,-0.021008,0.054614,0.001637,0.0321,0.182778,-0.98263,-0.032105516468693696
1760643934.501881,-0.094729,-0.002055,0.187565,0.977671,-0.250786,-0.042306,0.007339,-0.022707,0.069082,-0.002822,0.031518,0.185999,-0.982044,-0.03152322956489437
1760643934.530383,-0.097797,-0.003372,0.187506,0.977377,-0.387994,-0.071037,-0.030841,-0.017538,0.054539,0.001702,0.030084,0.192434,-0.980849,-0.030088529940067638
1760643934.563781,-0.101878,-0.004969,0.187065,0.977038,-0.439891,-0.059168,-0.065816,-0.011327,0.023467,0.001771,0.028406,0.200936,-0.979192,-0.02840983360563355
1760643934.564021,-0.105965,-0.0064,0.186423,0.976717,-0.365363,-0.028848,-0.055587,-0.009709,-0.006688,0.000117,0.027007,0.209382,-0.977461,-0.02701028134078465
1760643934.591606,-0.109114,-0.007287,0.186042,0.976437,-0.233072,-0.002164,-0.01843,-0.013923,-0.005812,-0.001006,0.026368,0.215797,-0.976082,-0.026371060565843592
1760643934.622687,-0.11101,-0.00763,0.185951,0.976238,-0.117202,0.027743,0.003646,-0.017116,0.008548,0.004885,0.026387,0.219583,-0.975237,-0.026390060761628906
1760643934.626494,-0.111994,-0.007421,0.185912,0.976135,-0.065248,0.062017,-0.002748,-0.018208,0.025605,0.010053,0.027155,0.221401,-0.974805,-0.027158330486618858
1760643934.655245,-0.11261,-0.006925,0.185727,0.976103,-0.065277,0.072072,-0.018038,-0.02049,0.036728,0.008608,0.02831,0.222411,-0.974542,-0.028313779803371047
1760643934.659783,-0.113402,-0.006457,0.185378,0.976081,-0.09871,0.081641,-0.03402,-0.016111,0.037432,0.010849,0.02944,0.223774,-0.974196,-0.029444263713575555
1760643934.688159,-0.114618,-0.005928,0.184834,0.976045,-0.117797,0.114624,-0.050531,-0.0096,0.031127,0.015387,0.030798,0.225937,-0.973655,-0.030802869216920506
1760643934.718588,-0.116103,-0.0051,0.184109,0.976011,-0.111745,0.143889,-0.060805,-0.008848,0.021096,0.00788,0.032796,0.228513,-0.972988,-0.03280189152096695
1760643934.719989,-0.117509,-0.00409,0.183304,0.975999,-0.076907,0.154376,-0.060686,-0.008189,0.008582,0.000982,0.035097,0.230876,-0.97235,-0.03510420854219218
1760643934.749936,-0.118477,-0.002972,0.182543,0.976029,-0.024263,0.153292,-0.053413,-0.006173,0.004086,-0.000375,0.037453,0.232359,-0.971909,-0.03746175153730781
1760643934.779737,-0.118959,-0.001683,0.181796,0.976113,0.019437,0.160589,-0.059392,-0.000602,0.004103,0.002591,0.039966,0.232846,-0.971692,-0.03997664946963577
1760643934.781808,-0.119031,-0.000188,0.18094,0.976264,0.055065,0.175152,-0.067514,0.00577,-0.000394,0.004293,0.042708,0.23248,-0.971663,-0.042720995649610224
1760643934.810318,-0.118645,0.00154,0.180054,0.976474,0.099467,0.186932,-0.065308,0.009616,-0.004884,0.002977,0.045733,0.231154,-0.971842,-0.045748944205125514
1760643934.847613,-0.117758,0.003391,0.17923,0.976728,0.154257,0.177033,-0.05298,0.008901,-0.008005,-0.003212,0.048836,0.22882,-0.972243,-0.0488554328464409
1760643934.847927,-0.116363,0.005212,0.178557,0.977011,0.19862,0.159601,-0.042207,0.01024,-0.010478,-0.001986,0.051739,0.225514,-0.972865,-0.05176211668448018
1760643934.878719,-0.114569,0.007014,0.17804,0.977306,0.235075,0.146261,-0.023792,0.013631,-0.012699,-0.001434,0.054506,0.22144,-0.973649,-0.05453305340869616
1760643934.880652,-0.112449,0.00877,0.177719,0.977596,0.257342,0.125091,-0.005717,0.016626,-0.01183,-0.002759,0.057116,0.216743,-0.974556,-0.05714712395485382
1760643934.909457,-0.110137,0.010392,0.177591,0.977867,0.262847,0.108999,0.00852,0.018896,-0.008137,-0.001581,0.059443,0.211707,-0.975524,-0.05947805058862405
1760643934.941851,-0.107874,0.011873,0.177597,0.978101,0.242355,0.093869,0.015866,0.018501,-0.00404,-0.003905,0.061543,0.206805,-0.976445,-0.061581894625091615
1760643934.942162,-0.105852,0.013139,0.177704,0.978286,0.206148,0.069736,0.024048,0.017899,-0.002066,-0.006885,0.063327,0.202437,-0.977246,-0.06336937823198387
1760643934.974333,-0.10418,0.014101,0.177874,0.978421,0.160833,0.042751,0.026268,0.015815,-0.000571,-0.006609,0.064655,0.198847,-0.977895,-0.06470016227147994
1760643934.978089,-0.10297,0.014749,0.178086,0.978501,0.1079,0.017661,0.023967,0.01655,-0.002051,-0.004964,0.06554,0.19626,-0.978359,-0.06558701818764069
1760643935.008379,-0.102192,0.015104,0.178322,0.978535,0.060746,-0.00107,0.024064,0.016675,-0.002709,-0.001749,0.066006,0.194611,-0.978657,-0.06605403131830545
1760643935.037769,-0.101834,0.015214,0.178577,0.978524,0.02068,-0.013878,0.022548,0.017311,-0.004098,0.000772,0.066144,0.19386,-0.978797,-0.06619231572314814
1760643935.039918,-0.101796,0.015213,0.178854,0.978477,-0.006036,-0.020801,0.021992,0.014514,-0.00169,0.000822,0.066184,0.193769,-0.978812,-0.06623242402131153
1760643935.067947,-0.101931,0.015108,0.1791,0.978419,-0.02676,-0.021597,0.018119,0.011237,-0.001022,0.002469,0.066077,0.194051,-0.978764,-0.06612514788777103
1760643935.098545,-0.102208,0.014997,0.179305,0.978355,-0.038408,-0.023074,0.008627,0.007853,-0.000118,-0.000453,0.065997,0.194613,-0.978657,-0.06604502519506714
1760643935.100664,-0.102528,0.014767,0.179408,0.978306,-0.038724,-0.032105,0.00557,0.005396,-0.002834,-0.002984,0.065681,0.195309,-0.97854,-0.06572831217752069
1760643935.131342,-0.102799,0.014443,0.179512,0.978263,-0.030974,-0.036568,0.00323,0.004496,-0.002519,-0.001007,0.065166,0.195944,-0.978447,-0.06521223719889706
1760643935.138159,-0.10302,0.014115,0.179606,0.978228,-0.026014,-0.035804,0.003644,0.003641,-0.002118,0.001119,0.064621,0.196483,-0.978375,-0.06466608925278985
1760643935.168302,-0.10322,0.013785,0.179696,0.978195,-0.028719,-0.030674,0.001642,0.002927,0.001543,0.002686,0.064066,0.196985,-0.978311,-0.06410990855391252
1760643935.196783,-0.103469,0.01349,0.179794,0.978155,-0.038899,-0.026317,0.005687,0.000731,0.002737,0.003143,0.063596,0.197566,-0.978225,-0.06363891718478172
1760643935.197065,-0.103876,0.013221,0.179886,0.978098,-0.057654,-0.021401,0.00315,-0.000375,0.007226,0.001831,0.063234,0.198444,-0.97807,-0.06327623292828503
1760643935.227578,-0.104487,0.012917,0.179904,0.978034,-0.078523,-0.019598,-0.001864,-0.002089,0.009376,0.002409,0.062861,0.199737,-0.977831,-0.06290247812024594
1760643935.258586,-0.105344,0.012622,0.17982,0.977961,-0.100587,-0.013513,-0.015143,-0.002712,0.003211,0.000738,0.062573,0.201506,-0.977487,-0.06261387726432456
1760643935.259964,-0.106314,0.012246,0.179658,0.977891,-0.098581,-0.021003,-0.019248,-0.005189,-0.004449,-0.000151,0.06215,0.203526,-0.977095,-0.062190077103911216
1760643935.291751,-0.107192,0.011879,0.179528,0.977823,-0.077543,-0.016005,-0.012524,-0.003501,-0.013388,0.002591,0.06172,0.205365,-0.976737,-0.06175927429655273
1760643935.296621,-0.107807,0.011634,0.179475,0.977768,-0.045233,-0.005024,0.002821,-0.000491,-0.014841,0.001305,0.061448,0.206644,-0.976485,-0.06148671858663763
1760643935.366424,-0.10804,0.011805,0.179546,0.977728,-0.041321,0.021088,-0.00399,0.001061,-0.005646,0.003181,0.06188,0.207029,-0.976376,-0.061919552069557474
1760643935.36681,-0.108274,0.011976,0.179617,0.977687,-0.03741,0.0472,-0.010801,0.002612,0.003549,0.005055,0.062313,0.207414,-0.976267,-0.06235337371533652
1760643935.367529,-0.108623,0.012293,0.179455,0.977674,-0.04119,0.043098,-0.020918,-0.000816,0.005432,-5.3e-05,0.063024,0.207983,-0.9761,-0.06306579175514224
1760643935.397623,-0.109027,0.012498,0.179157,0.977681,-0.053953,0.024412,-0.036569,-0.002136,0.006036,-0.002714,0.063505,0.208709,-0.975914,-0.06354774751623862
1760643935.398635,-0.109614,0.012515,0.178749,0.97769,-0.069063,0.011552,-0.044578,-0.000718,0.002028,-0.000911,0.063659,0.209862,-0.975656,-0.06370210147643596
1760643935.447709,-0.110301,0.012414,0.178354,0.977686,-0.064534,-0.000281,-0.038114,0.000281,-0.001581,-0.001671,0.063619,0.211251,-0.975359,-0.06366200799421971
1760643935.449386,-0.11093,0.012221,0.17805,0.977673,-0.060315,-0.006279,-0.024063,0.001022,-0.005583,-0.000908,0.063398,0.212554,-0.97509,-0.06344057753888509
1760643935.498651,-0.11152,0.011997,0.177978,0.977621,-0.065197,-0.012918,-0.011084,5.3e-05,-0.004688,-0.001518,0.063154,0.213779,-0.974839,-0.06319602587074441
1760643935.499003,-0.112111,0.011774,0.177905,0.97757,-0.070078,-0.019557,0.001895,-0.000914,-0.003792,-0.002129,0.06291,0.215003,-0.974585,-0.0629515739987554
1760643935.500654,-0.112703,0.011435,0.177953,0.977497,-0.073245,-0.026204,0.004654,-5.8e-05,-0.002616,-0.002073,0.062467,0.216264,-0.974335,-0.06250766789609334
1760643935.545272,-0.113321,0.011006,0.178103,0.977403,-0.074456,-0.03005,0.006543,0.00075,-0.002479,0.001555,0.061881,0.217601,-0.974074,-0.06192057332664903
1760643935.545563,-0.11394,0.010578,0.178253,0.977308,-0.075667,-0.033896,0.008432,0.001557,-0.002342,0.00518,0.061296,0.218938,-0.973812,-0.061334422223190965
1760643935.590687,-0.1146,0.010237,0.178126,0.977258,-0.072624,-0.022725,-0.014145,0.003592,-0.01215,0.005192,0.060835,0.22034,-0.973524,-0.06087259909605378
1760643935.59102,-0.115259,0.009896,0.177998,0.977207,-0.069582,-0.011555,-0.036723,0.005627,-0.021958,0.005202,0.060373,0.221741,-0.973235,-0.060409725724705425
1760643935.636875,-0.115838,0.009644,0.177633,0.977208,-0.075596,-0.011734,-0.043127,0.005238,-0.022466,0.003236,0.060002,0.222969,-0.972977,-0.060038072349220754
1760643935.637209,-0.116416,0.009392,0.177269,0.977208,-0.08161,-0.011913,-0.049532,0.00485,-0.022974,0.001268,0.05963,0.224196,-0.972718,-0.05966539802277267
1760643935.637538,-0.117278,0.009028,0.17678,0.977197,-0.122205,-0.022832,-0.06671,0.006807,-0.023986,0.006837,0.059108,0.226016,-0.972329,-0.059142452476477834
1760643935.678709,-0.118551,0.008489,0.176093,0.977172,-0.173601,-0.02987,-0.084423,0.007769,-0.032438,0.00783,0.058342,0.2287,-0.971747,-0.05837515655314959
1760643935.679969,-0.120179,0.007729,0.175321,0.977118,-0.206466,-0.049354,-0.088944,0.009732,-0.041622,0.009197,0.057243,0.232148,-0.970995,-0.05727428676855947
1760643935.723764,-0.122072,0.006777,0.174607,0.977018,-0.215603,-0.048343,-0.077023,0.011463,-0.053697,0.015031,0.055871,0.236166,-0.970105,-0.05590011796897855
1760643935.724074,-0.123964,0.005825,0.173892,0.976914,-0.22474,-0.047332,-0.065101,0.0132,-0.065767,0.020847,0.054493,0.240179,-0.969198,-0.0545199999584638
1760643935.76869,-0.126017,0.004814,0.173574,0.976713,-0.252188,-0.060157,-0.049673,0.01484,-0.055585,0.025122,0.05315,0.244494,-0.968193,-0.05317505799804076
1760643935.769039,-0.128069,0.003803,0.173255,0.976507,-0.279635,-0.072981,-0.034245,0.016482,-0.045397,0.029376,0.051804,0.248803,-0.967168,-0.051827185018595255
1760643935.771,-0.130658,0.002669,0.172975,0.976218,-0.342366,-0.072378,-0.049581,0.015342,-0.041042,0.037895,0.050413,0.254178,-0.965843,-0.05043436249578356
1760643935.8135,-0.133852,0.001374,0.172552,0.975862,-0.400088,-0.081596,-0.059309,0.013849,-0.048363,0.039214,0.048875,0.260769,-0.964163,-0.048894490992430296
1760643935.815577,-0.137519,-0.000101,0.172125,0.975429,-0.433812,-0.086987,-0.049471,0.010109,-0.055719,0.032017,0.047144,0.268315,-0.962177,-0.04716147908155526
1760643935.8314,-0.141466,-0.001752,0.171874,0.974907,-0.451283,-0.103326,-0.027037,0.008554,-0.051269,0.029942,0.045213,0.276435,-0.959968,-0.04522843906459292
1760643935.860172,-0.145578,-0.003495,0.172001,0.974274,-0.477606,-0.121393,0.016408,0.000254,-0.021514,0.016033,0.043268,0.284868,-0.95759,-0.043281500923371005
1760643935.904061,-0.150499,-0.005991,0.172163,0.973486,-0.547258,-0.159127,-0.009726,-0.00213,-0.017413,0.020071,0.040156,0.29508,-0.954628,-0.040166813273285404
1760643935.904342,-0.155415,-0.008487,0.17232,0.972666,-0.616911,-0.196862,-0.035859,-0.004522,-0.01328,0.02399,0.037053,0.305259,-0.951548,-0.03706149155955658
1760643935.955171,-0.160692,-0.011619,0.172486,0.971747,-0.592986,-0.213718,-0.004965,-0.000396,-0.016016,0.025611,0.032852,0.316312,-0.948086,-0.03285791874288043
1760643935.95547,-0.165962,-0.014751,0.172645,0.97079,-0.56906,-0.230575,0.025928,0.003716,-0.018711,0.027086,0.028664,0.327322,-0.944478,-0.02866792649801471
1760643935.956779,-0.170926,-0.017768,0.173248,0.96977,-0.539747,-0.214106,0.051163,0.003113,0.002742,0.033073,0.024764,0.337675,-0.940937,-0.024766530579643325
1760643935.987949,-0.175549,-0.020473,0.173922,0.96877,-0.513156,-0.178679,0.025984,0.002698,0.014863,0.04229,0.021396,0.347255,-0.937526,-0.021397645389515097
1760643935.989462,-0.179903,-0.02278,0.174104,0.967886,-0.485562,-0.133827,-0.019921,-0.00528,0.014923,0.031375,0.018547,0.356183,-0.934232,-0.018548065812725206
1760643936.018071,-0.184012,-0.02478,0.174014,0.96708,-0.455292,-0.140209,-0.025018,-0.008517,0.016191,0.003202,0.016112,0.364533,-0.931051,-0.01611269823828769
1760643936.058152,-0.187931,-0.026897,0.173973,0.966277,-0.437499,-0.155133,-0.014927,-0.002917,0.030718,-0.006086,0.013411,0.372545,-0.927917,-0.01341140478216747
1760643936.058398,-0.191923,-0.028968,0.173896,0.965446,-0.445569,-0.118981,-0.034278,0.002929,0.053906,0.000349,0.010816,0.380658,-0.924652,-0.01081621727983567
1760643936.086481,-0.196251,-0.030907,0.173454,0.964595,-0.500999,-0.119056,-0.082492,-0.006089,0.066902,-0.007348,0.008455,0.389328,-0.92106,-0.00845510369039194
1760643936.088567,-0.20091,-0.033223,0.172491,0.963731,-0.527757,-0.126698,-0.120861,-0.010502,0.044355,0.005843,0.005274,0.398708,-0.917063,-0.005274023315017589
1760643936.130021,-0.20555,-0.035619,0.171404,0.962861,-0.498136,-0.141518,-0.120292,-0.008828,0.02129,0.016326,0.001872,0.408042,-0.912961,-0.001872001499904193
1760643936.131922,-0.20992,-0.037849,0.170452,0.962002,-0.447503,-0.119677,-0.098485,-0.003008,0.022438,0.016004,-0.00126,0.416789,-0.909002,0.0012600007780980767
1760643936.174975,-0.214,-0.039737,0.169681,0.961163,-0.414884,-0.094694,-0.077251,0.001782,0.034739,0.000896,-0.003765,0.424862,-0.90525,0.00376500991765045
1760643936.17622,-0.217805,-0.041497,0.169035,0.960347,-0.399326,-0.089456,-0.075093,-0.002633,0.046622,0.011951,-0.00607,0.432366,-0.901678,0.0060700360050833
1760643936.211126,-0.221502,-0.043139,0.168199,0.959575,-0.404386,-0.067963,-0.089796,-0.010068,0.039104,0.00713,-0.008278,0.439608,-0.898151,0.008278098941776653
1760643936.21323,-0.225129,-0.044673,0.167486,0.958786,-0.385535,-0.091034,-0.05972,-0.011482,0.032301,-0.00573,-0.010252,0.446664,-0.894643,0.010252179954961155
1760643936.249547,-0.228617,-0.046161,0.167072,0.957962,-0.375004,-0.068742,-0.03249,-0.009772,0.046686,-0.00765,-0.01205,0.453437,-0.891207,0.012050290234259596
1760643936.252264,-0.232254,-0.047437,0.166772,0.957076,-0.386401,-0.060979,-0.022964,-0.011712,0.059356,-0.021268,-0.013334,0.460393,-0.887615,0.01333439583116777
1760643936.280491,-0.235821,-0.048821,0.166499,0.956181,-0.361504,-0.077245,-0.025976,-0.015214,0.053872,-0.009184,-0.014835,0.467233,-0.884009,0.014835554093883065
1760643936.311067,-0.238903,-0.05,0.166252,0.955398,-0.302997,-0.029713,-0.019172,-0.01957,0.049902,0.005987,-0.016105,0.47312,-0.880851,0.016105693138460515
1760643936.313149,-0.241549,-0.050807,0.165954,0.954742,-0.248477,-0.033094,-0.020038,-0.024359,0.044822,-0.014855,-0.016843,0.478097,-0.878146,0.016843789505515003
1760643936.35378,-0.243579,-0.051474,0.165935,0.954194,-0.180491,-0.026033,0.019213,-0.020298,0.048913,-0.01299,-0.017396,0.481926,-0.876039,0.01739688082549225
1760643936.355777,-0.245373,-0.051932,0.165967,0.953703,-0.173109,0.002813,0.007995,-0.01833,0.056316,0.003971,-0.017608,0.485265,-0.87419,0.017608907195895245
1760643936.390099,-0.247149,-0.05201,0.165928,0.953247,-0.173125,0.04864,0.008428,-0.019814,0.054656,0.018174,-0.017138,0.488448,-0.872425,0.01713883441641245
1760643936.390861,-0.248998,-0.051801,0.165609,0.952833,-0.173548,0.078404,-0.011486,-0.018926,0.045708,0.008753,-0.016244,0.491664,-0.870634,0.016244707002088066
1760643936.420517,-0.250769,-0.051481,0.165185,0.952459,-0.152325,0.080743,-0.011756,-0.013702,0.035986,-0.001419,-0.01522,0.494701,-0.86893,0.015220587122718452
1760643936.453861,-0.252436,-0.051021,0.164713,0.952125,-0.131053,0.087383,-0.020131,-0.010153,0.040014,-0.008221,-0.013998,0.49751,-0.867346,0.013998448583327718
1760643936.455793,-0.253869,-0.050594,0.164111,0.951871,-0.099804,0.099123,-0.040035,-0.005801,0.043045,0.003201,-0.012992,0.499907,-0.865982,0.012992361458265609
1760643936.518799,-0.254938,-0.049951,0.162909,0.951826,-0.084885,0.109387,-0.062875,-0.00197,0.035123,0.003611,-0.012026,0.501588,-0.865023,0.012026290274079107
1760643936.51915,-0.256006,-0.049308,0.161706,0.951778,-0.069967,0.119651,-0.085716,0.001867,0.027202,0.004016,-0.011065,0.503268,-0.864059,0.011065230949701485
1760643936.519403,-0.257074,-0.048665,0.160503,0.951727,-0.055048,0.129914,-0.108556,0.005708,0.01928,0.004416,-0.010108,0.504949,-0.86309,0.01010817207061504
1760643936.547809,-0.257847,-0.047811,0.159131,0.951791,-0.035593,0.135361,-0.095996,0.005437,0.015165,8.9e-05,-0.008948,0.506049,-0.862458,0.00894812183156498
1760643936.549067,-0.258541,-0.047014,0.157864,0.951854,-0.047857,0.098053,-0.096635,-0.000667,0.015671,-0.011214,-0.007873,0.50703,-0.861893,0.007873077601979932
1760643936.579827,-0.259408,-0.046532,0.156705,0.951833,-0.078592,0.069366,-0.08001,0.002358,0.000115,-0.01688,-0.00728,0.508411,-0.861084,0.007280062856128729
1760643936.647954,-0.260505,-0.046525,0.156215,0.951614,-0.095086,0.048127,-0.048488,0.002782,-0.00386,-0.009891,-0.007159,0.510337,-0.859945,0.007159059334746037
1760643936.648209,-0.261602,-0.046519,0.155724,0.951394,-0.11158,0.026889,-0.016965,0.003209,-0.007833,-0.002907,-0.00704,0.512261,-0.858801,0.007040057972916416
1760643936.648948,-0.263966,-0.046551,0.155481,0.950779,-0.147253,0.004599,0.048505,0.004403,-0.006604,-0.005113,-0.006436,0.516422,-0.85631,0.006436044689474164
1760643936.648561,-0.262698,-0.046512,0.155234,0.951173,-0.128074,0.005651,0.014557,0.003637,-0.011803,0.004073,-0.006922,0.514182,-0.857653,0.006922056276191143
1760643936.681977,-0.265383,-0.046613,0.155904,0.950312,-0.173778,-0.001292,0.053322,0.004199,0.007834,-0.008704,-0.005846,0.518928,-0.854798,0.005846033106995336
1760643936.719959,-0.266848,-0.046681,0.156232,0.949844,-0.155307,0.016582,0.043982,0.004537,0.00251,0.007291,-0.005298,0.521514,-0.853226,0.005298026035211656
1760643936.749105,-0.268129,-0.046542,0.156486,0.949449,-0.127951,0.033029,0.043198,0.00556,-0.000956,0.006395,-0.004462,0.523716,-0.851882,0.004462011905742917
1760643936.751228,-0.269213,-0.046263,0.156741,0.949113,-0.113457,0.034154,0.040199,0.006383,0.002587,-0.00356,-0.003424,0.52553,-0.850768,0.003424007213422653
1760643936.78236,-0.270224,-0.046011,0.15698,0.948799,-0.09859,0.030622,0.038447,0.005378,0.004599,0.002356,-0.00247,0.527222,-0.849724,0.002470002493809408
1760643936.789336,-0.271177,-0.045778,0.157179,0.948505,-0.094055,0.027204,0.030254,0.001659,0.005628,0.008268,-0.001595,0.528817,-0.848734,0.0015950011816879782
1760643936.84873,-0.272144,-0.045659,0.157336,0.948208,-0.102069,0.017981,0.026592,0.002425,0.007622,0.002218,-0.000952,0.530465,-0.847706,0.0009520003889571592
1760643936.849059,-0.27311,-0.045539,0.157492,0.94791,-0.110083,0.008758,0.022931,0.00319,0.009618,-0.003835,-0.00031,0.532111,-0.846675,0.00030999988591809977
1760643936.849799,-0.274202,-0.045572,0.157636,0.947569,-0.122702,0.00135,0.021181,0.004157,0.014921,-0.007459,8.4e-05,0.534018,-0.845473,-8.400000744420698e-05
1760643936.882819,-0.275443,-0.045789,0.157788,0.947174,-0.141062,-0.021407,0.018817,0.001029,0.02044,-0.005554,0.000183,0.536234,-0.844069,-0.00018300005473139005
1760643936.924036,-0.276863,-0.046172,0.157865,0.946728,-0.144781,-0.010976,0.01493,0.003834,0.009716,0.009735,-1.1e-05,0.538806,-0.84243,1.0999998841608515e-05
1760643936.924478,-0.278282,-0.046555,0.157941,0.94628,-0.148501,-0.000545,0.011044,0.006638,-0.001003,0.025015,-0.000203,0.541372,-0.840783,0.00020300002812102068
1760643936.925766,-0.279621,-0.046659,0.158004,0.94587,-0.127931,0.020302,0.017422,0.006707,-0.006557,0.02083,9.6e-05,0.543715,-0.83927,-9.599999326708871e-05
1760643936.969838,-0.280762,-0.046552,0.15814,0.945514,-0.098487,0.017632,0.033551,0.002607,-0.002906,0.003687,0.000768,0.545653,-0.838011,-0.0007679999901135451
1760643936.971107,-0.281788,-0.046541,0.158422,0.945162,-0.099533,0.000572,0.038406,0.00186,0.006538,-0.001709,0.001304,0.547417,-0.836859,-0.0013040003316200574
1760643937.02143,-0.28285,-0.04668,0.158783,0.944778,-0.103341,-0.004869,0.040453,0.000704,0.011935,0.000287,0.00162,0.549285,-0.835634,-0.0016200000463477639
1760643937.021753,-0.283912,-0.046818,0.159145,0.944391,-0.107148,-0.01031,0.042501,-0.000453,0.017335,0.002278,0.001937,0.551149,-0.834405,-0.00193700055636695
1760643937.023976,-0.284917,-0.047015,0.159504,0.944018,-0.115074,-0.020349,0.032052,-0.00124,0.021343,0.004673,0.002125,0.552933,-0.833223,-0.0021250016143289506
1760643937.064077,-0.285968,-0.047285,0.159737,0.943648,-0.113078,-0.020774,0.016314,-0.000621,0.016885,0.012346,0.002118,0.554812,-0.831973,-0.0021180016746117558
1760643937.065045,-0.286997,-0.047531,0.159821,0.943308,-0.097997,-0.005253,0.010574,-0.000174,0.008183,0.020368,0.002064,0.556647,-0.830747,-0.002064000721697803
1760643937.096216,-0.287859,-0.047614,0.159897,0.943029,-0.065985,0.005532,0.016025,-0.001037,0.007371,0.010814,0.002252,0.558145,-0.82974,-0.002252002601485686
1760643937.113392,-0.288575,-0.047689,0.160046,0.942781,-0.065719,-0.006218,0.020826,-0.003083,0.017157,-0.003352,0.00245,0.55939,-0.828901,-0.0024500023990860743
1760643937.141895,-0.289388,-0.047993,0.160202,0.94249,-0.080157,-0.023603,0.01439,-0.001671,0.017638,-0.00388,0.002255,0.560867,-0.827903,-0.0022550016246019127
1760643937.143588,-0.290211,-0.048356,0.160371,0.942189,-0.082128,-0.026784,0.007445,-0.001213,0.022184,-8.5e-05,0.001961,0.562378,-0.826878,-0.0019610011712595985
1760643937.172745,-0.29097,-0.048738,0.160447,0.941922,-0.073843,-0.024361,0.005009,0.000964,0.019682,0.004258,0.001556,0.563783,-0.825922,-0.001555999972565172
1760643937.20283,-0.291691,-0.049084,0.160468,0.941678,-0.07888,-0.023762,-0.007883,0.000688,0.016922,0.0092,0.001172,0.565111,-0.825014,-0.0011720003174717582
1760643937.203999,-0.292434,-0.049415,0.160344,0.941451,-0.072121,-0.003483,-0.016824,0.001519,0.005463,0.024225,0.000736,0.566471,-0.824081,-0.0007360002761721414
1760643937.247379,-0.293134,-0.049571,0.160138,0.94126,-0.053604,0.00341,-0.016054,0.001399,-0.003856,0.016367,0.000565,0.567707,-0.82323,-0.000565000258892879
1760643937.249445,-0.293585,-0.049615,0.16007,0.941129,-0.024143,0.000461,0.008,0.001864,-0.001681,0.00425,0.000601,0.568486,-0.822693,-0.0006009998962537065
1760643937.279701,-0.293994,-0.049674,0.160225,0.940972,-0.042443,-0.015384,0.020202,0.000504,0.012702,-0.004677,0.000727,0.569199,-0.8222,-0.0007269997477479802
1760643937.281866,-0.294709,-0.05001,0.160431,0.940695,-0.089858,-0.042046,0.012006,0.000109,0.016187,-0.002546,0.000474,0.570508,-0.821292,-0.0004739999817244578
1760643937.310288,-0.295654,-0.050559,0.160529,0.940353,-0.119228,-0.041663,-0.005143,0.001281,0.008626,0.009364,-0.000164,0.57227,-0.820065,0.00016400003484544644
1760643937.340997,-0.296554,-0.051051,0.160551,0.940039,-0.087078,-0.028198,-0.002568,0.001737,-0.005477,0.017472,-0.000756,0.573937,-0.818899,0.0007560001386527145
1760643937.343159,-0.297105,-0.051305,0.160644,0.939835,-0.033377,-0.014967,0.015316,0.001819,-0.005322,0.011449,-0.00098,0.574943,-0.818193,0.0009800000594053489
1760643937.416925,-0.297612,-0.051685,0.160934,0.939604,-0.054839,-0.030887,0.017243,0.000179,0.000618,0.005506,-0.001336,0.57591,-0.817512,0.001336000408699652
1760643937.417223,-0.298118,-0.052066,0.161225,0.939373,-0.076301,-0.046808,0.019171,-0.001463,0.006558,-0.000439,-0.001691,0.576876,-0.81683,0.0016910007824295222
1760643937.417569,-0.298624,-0.052446,0.161515,0.939141,-0.097763,-0.062728,0.021098,-0.003106,0.012499,-0.006385,-0.002044,0.577842,-0.816146,0.0020440015784097963
1760643937.418961,-0.299344,-0.052995,0.161841,0.938825,-0.088527,-0.055691,0.027403,-0.001903,0.007537,0.005488,-0.002614,0.579216,-0.81517,0.002614002798443689
1760643937.449077,-0.29997,-0.053431,0.162199,0.938538,-0.060302,-0.035226,0.027885,0.000525,-0.00159,0.018712,-0.002984,0.5804,-0.814326,0.002984004579792003
1760643937.479763,-0.300343,-0.053579,0.162573,0.938346,-0.023897,-0.005632,0.033958,8.8e-05,-0.002435,0.025104,-0.002896,0.581072,-0.813847,0.002896004054699596
1760643937.481549,-0.300527,-0.053497,0.162866,0.938241,-0.002203,0.000194,0.034103,-0.001994,-0.002532,0.009807,-0.002495,0.58136,-0.813643,0.0024950018325008223
1760643937.512572,-0.300558,-0.053414,0.163175,0.938182,0.002225,-0.006688,0.026162,-0.002577,0.008784,-0.005392,-0.002137,0.581388,-0.813624,0.002137000999655883
1760643937.541788,-0.300706,-0.05352,0.163402,0.938089,-0.022714,-0.019273,0.014986,-0.00246,0.017421,-0.008913,-0.002141,0.581669,-0.813423,0.0021410012220739274
1760643937.543651,-0.301181,-0.053799,0.163518,0.937901,-0.058405,-0.025025,-0.001522,-0.002941,0.018109,-0.004239,-0.002418,0.58255,-0.812791,0.0024180028895215617
1760643937.572724,-0.301842,-0.054207,0.163412,0.937683,-0.080454,-0.021115,-0.01909,-0.001914,0.008688,0.004262,-0.003008,0.583781,-0.811906,0.003008003548191628
1760643937.580554,-0.302425,-0.054589,0.163284,0.937495,-0.048494,-0.013914,-0.013145,0.000518,-0.003669,0.017518,-0.003591,0.584871,-0.811118,0.0035910088098185097
1760643937.65627,-0.302503,-0.054664,0.163266,0.937469,-0.043963,-0.019049,-0.008102,0.000866,0.00012,0.009197,-0.003714,0.585024,-0.811008,0.003714006959143187
1760643937.656625,-0.302581,-0.054739,0.163249,0.937443,-0.039433,-0.024185,-0.003059,0.001215,0.003909,0.000875,-0.003838,0.585176,-0.810897,0.003838010140548176
1760643937.657075,-0.302658,-0.054814,0.163231,0.937416,-0.034903,-0.02932,0.001984,0.001563,0.007697,-0.007447,-0.003961,0.585328,-0.810787,0.003961010127093363
1760643937.658091,-0.302961,-0.055156,0.163323,0.937282,-0.057008,-0.04556,0.002266,0.001192,0.009444,-0.009311,-0.004433,0.585937,-0.810345,0.004433012660788858
1760643937.686585,-0.303466,-0.055719,0.163525,0.93705,-0.070053,-0.06237,0.015751,0.00115,0.003816,-0.002784,-0.005175,0.586949,-0.809608,0.005175020451806145
1760643937.721272,-0.30395,-0.056372,0.163892,0.93679,-0.05895,-0.067056,0.027062,0.001347,0.001734,0.004903,-0.005988,0.587954,-0.808872,0.005988036759142682
1760643937.72228,-0.304359,-0.056968,0.164357,0.93654,-0.047686,-0.068303,0.035489,0.001479,-0.000865,0.012275,-0.006658,0.588814,-0.808241,0.006658049958237237
1760643937.755747,-0.304629,-0.057533,0.164869,0.936328,-0.02807,-0.060886,0.036768,0.001085,-0.001988,0.015991,-0.007291,0.589435,-0.807783,0.007291064040444453
1760643937.759613,-0.304675,-0.057941,0.165417,0.936191,-0.003857,-0.054329,0.043297,0.000644,0.003483,0.007855,-0.00769,0.589636,-0.807632,0.007690078886181549
1760643937.793661,-0.304632,-0.058375,0.166007,0.936073,-0.004639,-0.065307,0.039892,-0.000963,0.013814,-0.002897,-0.008145,0.589697,-0.807583,0.008145093340231436
1760643937.800553,-0.304656,-0.058916,0.166553,0.935935,-0.01743,-0.06792,0.022651,-0.001274,0.018157,-0.000226,-0.0088,0.589901,-0.807428,0.008800110920588971
1760643937.83609,-0.304796,-0.059515,0.166841,0.9358,-0.019021,-0.049171,0.002367,-0.000618,0.007385,0.012451,-0.009683,0.590316,-0.807114,0.009683152533809794
1760643937.837753,-0.304775,-0.05988,0.167012,0.935753,0.011642,-0.027304,0.003009,-0.001279,-0.001487,0.01381,-0.010264,0.590389,-0.807053,0.010264185021194376
1760643937.880037,-0.304487,-0.060008,0.167184,0.935808,0.041282,-0.010436,0.011691,-0.001338,0.001062,0.00674,-0.010502,0.589948,-0.807373,0.010502192554085056
1760643937.880318,-0.304252,-0.060053,0.167294,0.935862,0.021358,-0.016488,0.003664,-0.00263,0.007702,4.7e-05,-0.010604,0.589569,-0.807649,0.010604193659106958
1760643937.926209,-0.30441,-0.060383,0.167409,0.935768,-0.015383,-0.025153,0.000654,0.002269,0.011413,0.004369,-0.011086,0.589932,-0.807377,0.011086225514542334
1760643937.92657,-0.304569,-0.060712,0.167525,0.935675,-0.052123,-0.033818,-0.002356,0.007168,0.015124,0.00869,-0.011568,0.590296,-0.807104,0.011568257710948363
1760643937.958657,-0.305077,-0.061142,0.167555,0.935476,-0.069007,-0.029556,-0.005879,0.009516,0.007011,0.007776,-0.01216,0.591274,-0.806379,0.012160300300342106
1760643937.959841,-0.305515,-0.061552,0.167631,0.935292,-0.033512,-0.033691,0.012864,0.009263,-0.004321,0.004803,-0.01271,0.592127,-0.805744,0.012710346539664514
1760643937.989852,-0.305597,-0.06182,0.167953,0.93519,0.01673,-0.037891,0.034001,0.00471,-0.001377,-0.000988,-0.012975,0.592348,-0.805578,0.012975361375020393
1760643938.024366,-0.305372,-0.062139,0.16841,0.93516,0.027014,-0.052194,0.026766,0.002181,0.00513,-0.002108,-0.013364,0.592074,-0.805773,0.013364395517058958
1760643938.025171,-0.305122,-0.062547,0.168809,0.935143,0.025614,-0.060481,0.013968,0.001958,0.00503,0.00084,-0.013966,0.591782,-0.805977,0.013966454683328213
1760643938.060853,-0.304749,-0.062992,0.169132,0.935176,0.032439,-0.059778,0.009436,0.002363,0.005158,0.000777,-0.014732,0.591295,-0.806321,0.014732530256818562
1760643938.061146,-0.304382,-0.063413,0.169389,0.935221,0.022715,-0.05757,0.00017,-0.000668,0.009108,-0.001813,-0.015492,0.590812,-0.806661,0.015492613629645834
1760643938.094764,-0.304131,-0.063962,0.169535,0.935238,0.015882,-0.075045,-0.009943,-0.004248,0.010503,-0.005123,-0.016518,0.590559,-0.806826,0.01651874321141745
1760643938.096911,-0.303843,-0.064642,0.169646,0.935265,0.018997,-0.072788,-0.025906,-0.005804,0.010286,0.00693,-0.017824,0.59028,-0.807002,0.017824940323158414
1760643938.151446,-0.303502,-0.065207,0.169557,0.935353,0.026499,-0.053335,-0.026289,-0.002312,0.008518,0.010396,-0.019061,0.589876,-0.807269,0.01906215196621814
1760643938.151683,-0.303162,-0.065772,0.169469,0.93544,0.034,-0.033881,-0.026672,0.001181,0.00675,0.013861,-0.020298,0.589472,-0.807534,0.020299389935071722
1760643938.168108,-0.302795,-0.066168,0.169359,0.935551,0.037481,-0.042823,-0.023292,-0.004824,0.010482,0.007472,-0.021245,0.588971,-0.807875,0.021246596307202388
1760643938.196809,-0.302444,-0.066636,0.169317,0.935638,0.027251,-0.044161,-0.025529,-0.003012,0.022538,0.013791,-0.022277,0.588521,-0.808175,0.022278842260210152
1760643938.197105,-0.302279,-0.067103,0.169142,0.93569,0.003861,-0.045145,-0.042834,-0.001482,0.031115,0.000926,-0.02332,0.588379,-0.808249,0.023322112820398668
1760643938.228609,-0.3023,-0.067851,0.168853,0.935682,-0.017022,-0.073912,-0.055301,-0.002145,0.030167,-0.007491,-0.024885,0.588626,-0.808022,0.02488757678234315
1760643938.259735,-0.302347,-0.068935,0.168565,0.935639,-0.011602,-0.099257,-0.059835,-0.003681,0.019537,0.001294,-0.027067,0.589015,-0.807669,0.027070299218032598
1760643938.261782,-0.302343,-0.070033,0.168347,0.935598,0.004149,-0.092374,-0.046917,0.000324,0.00855,0.005536,-0.029249,0.589323,-0.807368,0.029253169269516578
1760643938.280539,-0.302183,-0.070883,0.168211,0.93561,0.038013,-0.058513,-0.038249,0.004395,-0.003054,0.011765,-0.030976,0.589297,-0.807322,0.03098096696414561
1760643938.310581,-0.301668,-0.071315,0.168112,0.935761,0.074903,-0.035702,-0.026477,0.001901,-0.006419,0.000837,-0.032039,0.588555,-0.807822,0.032044485955128835
1760643938.340803,-0.300878,-0.071547,0.16812,0.935996,0.096409,-0.034181,-0.010437,0.001107,-0.00631,-0.005265,-0.032768,0.587299,-0.808707,0.032773852650697204
1760643938.340994,-0.300031,-0.071773,0.168262,0.936225,0.080972,-0.047286,-0.004224,-0.003197,-0.004969,-0.005836,-0.033423,0.585947,-0.80966,0.03342922091349836
1760643938.371116,-0.299326,-0.072106,0.168433,0.936395,0.063766,-0.046531,0.001298,-0.002258,-0.005004,0.000955,-0.034208,0.584864,-0.81041,0.03421466737591291
1760643938.373309,-0.29867,-0.07241,0.168669,0.936538,0.058093,-0.055393,0.005456,-0.003794,-0.001804,-0.006,-0.034876,0.583859,-0.811106,0.034883063372501556
1760643938.401799,-0.298013,-0.072837,0.168942,0.936665,0.055005,-0.059314,0.012093,-0.004959,-0.000693,-0.007164,-0.035753,0.582888,-0.811766,0.035760608253454784
1760643938.432853,-0.297345,-0.073288,0.169329,0.936772,0.062068,-0.074127,0.014311,-0.007778,-0.00071,-0.004424,-0.036609,0.581909,-0.812429,0.03661719724228388
1760643938.437194,-0.296584,-0.073804,0.169777,0.936892,0.077126,-0.067871,0.019738,-0.009972,-0.007844,0.01061,-0.037587,0.580795,-0.813182,0.03759584510515589
1760643938.466586,-0.295683,-0.074146,0.170232,0.937067,0.096624,-0.053313,0.027573,-0.007024,-0.005648,0.009825,-0.038291,0.579393,-0.814148,0.03830037443515342
1760643938.474284,-0.294674,-0.074344,0.170746,0.937276,0.097779,-0.038729,0.030512,-0.008497,0.00475,0.006799,-0.038733,0.57777,-0.81528,0.03874269338185271
1760643938.501062,-0.293847,-0.074495,0.171123,0.937455,0.069696,-0.041367,0.013223,-0.013066,0.009735,-0.009022,-0.039104,0.576432,-0.816209,0.03911397060997039
1760643938.531129,-0.293266,-0.074891,0.171309,0.937571,0.044959,-0.052562,-0.004787,-0.013904,0.00531,-0.008091,-0.039954,0.575574,-0.816773,0.039964639848947305
1760643938.532521,-0.292793,-0.075424,0.171359,0.937667,0.041987,-0.046251,-0.023888,-0.008694,-0.00299,0.004746,-0.041099,0.574934,-0.817167,0.041110576208222574
1760643938.562473,-0.292324,-0.075789,0.171137,0.937825,0.05932,-0.01027,-0.046875,0.003323,-0.024622,0.008556,-0.0421,0.574237,-0.817606,0.042112443950438595
1760643938.592103,-0.291481,-0.075512,0.170687,0.938191,0.15084,0.076171,-0.01073,0.013912,-0.064587,0.020959,-0.042186,0.572707,-0.818674,0.04219852102241849
1760643938.593737,-0.289728,-0.073872,0.171013,0.938805,0.26712,0.178674,0.127849,0.006805,-0.055953,0.031394,-0.039608,0.569263,-0.821201,0.03961835870621559
1760643938.624287,-0.287668,-0.071084,0.172363,0.939407,0.262422,0.207642,0.237708,-0.008858,-0.024561,0.018049,-0.034387,0.564979,-0.824389,0.03439376400955092
1760643938.63225,-0.286076,-0.068128,0.174489,0.93972,0.17512,0.169422,0.296746,-0.012394,-0.003105,0.003404,-0.028209,0.561437,-0.827038,0.028212755161157996
1760643938.663163,-0.285292,-0.065623,0.177075,0.939652,0.066961,0.131531,0.319336,-0.007772,0.00525,0.005152,-0.022289,0.559391,-0.828604,0.022290849515972565
1760643938.693458,-0.285329,-0.063506,0.179757,0.939277,-0.001237,0.120281,0.326599,-0.003669,0.012669,0.005842,-0.01672,0.558837,-0.829109,0.016720778424649585
1760643938.693792,-0.285833,-0.061701,0.182471,0.938721,-0.023715,0.092278,0.320426,-0.005755,0.016693,-0.0006,-0.011528,0.559152,-0.828985,0.011528255442028009
1760643938.727022,-0.28634,-0.060349,0.185071,0.938145,-0.020096,0.05019,0.2819,-0.004241,0.026469,-0.008282,-0.007247,0.559595,-0.828735,0.007247060597497077
1760643938.730861,-0.286812,-0.059548,0.187245,0.937621,-0.029709,0.016464,0.214134,-0.002249,0.031186,-0.008891,-0.004259,0.560142,-0.828386,0.004259011674267832
1760643938.772314,-0.287206,-0.059233,0.188881,0.937192,-0.025962,-0.023904,0.135658,0.002896,0.031771,-0.006801,-0.002529,0.56071,-0.828009,0.0025290014262658173
1760643938.774441,-0.287573,-0.059404,0.189774,0.936888,-0.034201,-0.032244,0.057051,0.004246,0.034471,0.001572,-0.002161,0.561394,-0.827546,0.002161001384520305
1760643938.802918,-0.287895,-0.059833,0.190119,0.936692,-0.031265,-0.040717,-0.006753,0.00533,0.031493,0.006503,-0.002622,0.562088,-0.827073,0.002622003604830246
1760643938.836544,-0.288169,-0.060447,0.189864,0.93662,-0.031652,-0.053312,-0.064348,0.00292,0.02773,-0.004004,-0.003805,0.562763,-0.826609,0.0038050108727338554
1760643938.83685,-0.288501,-0.061308,0.189195,0.936597,-0.04694,-0.05907,-0.107684,0.003172,0.021781,-0.007254,-0.005676,0.563617,-0.826017,0.005676029274500701
1760643938.867258,-0.28889,-0.062254,0.188118,0.936631,-0.04247,-0.045178,-0.139926,0.005811,0.011151,-0.001067,-0.007927,0.56459,-0.825334,0.00792707938635034
1760643938.869346,-0.28919,-0.063111,0.186976,0.93671,-0.026986,-0.039499,-0.124147,0.003496,0.003069,-0.002446,-0.01009,0.565375,-0.824772,0.010090173481921523
1760643938.900151,-0.289257,-0.063838,0.186064,0.936822,-0.000422,-0.045751,-0.09865,0.001699,-0.003601,-0.000921,-0.011968,0.565721,-0.82451,0.0119682843862371
1760643938.929323,-0.289148,-0.06447,0.185304,0.936963,0.017655,-0.046835,-0.085253,0.001306,-0.01026,-0.002238,-0.013652,0.565736,-0.824474,0.013652417446392975
1760643938.948874,-0.288814,-0.064974,0.184647,0.937161,0.030648,-0.042125,-0.086654,0.000852,-0.013802,-0.004669,-0.015125,0.565324,-0.82473,0.015125580040789573
1760643938.949219,-0.288393,-0.065526,0.183969,0.937385,0.032062,-0.042891,-0.090446,-0.000214,-0.013284,-0.00362,-0.016736,0.564781,-0.825071,0.016736782823567144
1760643938.978749,-0.288016,-0.066048,0.18327,0.937602,0.017333,-0.037572,-0.091361,-0.000691,-0.00945,-0.003632,-0.018284,0.564297,-0.825369,0.01828502442260768
1760643939.007867,-0.287803,-0.066654,0.182465,0.937781,-0.008983,-0.034769,-0.100328,0.001527,-0.01154,-0.00072,-0.019985,0.564117,-0.825453,0.019986330123759347
1760643939.009819,-0.287819,-0.067245,0.181615,0.937899,-0.028948,-0.032342,-0.098719,0.000327,-0.014859,-0.003833,-0.021594,0.564315,-0.825277,0.021595680223550143
1760643939.040943,-0.287942,-0.067848,0.180836,0.937968,-0.040914,-0.039439,-0.082667,-0.001609,-0.016457,-0.000614,-0.023138,0.5647,-0.824971,0.023140081161026362
1760643939.060461,-0.288171,-0.068458,0.180249,0.937967,-0.036292,-0.039545,-0.057769,-0.001057,-0.019032,0.004812,-0.024537,0.565269,-0.824542,0.02453945524381082
1760643939.091185,-0.288384,-0.069045,0.179939,0.937918,-0.050546,-0.040432,-0.041751,0.000754,-0.00793,0.009597,-0.025734,0.565808,-0.824135,0.025736848527419233
1760643939.091493,-0.288844,-0.069567,0.179617,0.937799,-0.078609,-0.033276,-0.036716,0.001605,-0.005464,0.005889,-0.026717,0.566747,-0.823459,0.026720170294414675
1760643939.119418,-0.2895,-0.070169,0.17945,0.937584,-0.102341,-0.053633,-0.021514,0.000262,-0.003027,0.0018,-0.027678,0.568045,-0.822532,0.027681533934410193
1760643939.173833,-0.290317,-0.070844,0.179299,0.937309,-0.100728,-0.045722,-0.019757,0.001644,-0.003538,0.0059,-0.028699,0.569638,-0.821394,0.028702952705527095
1760643939.174171,-0.291134,-0.071519,0.179148,0.937034,-0.099115,-0.037812,-0.017999,0.003025,-0.004047,0.009997,-0.02972,0.571229,-0.820253,0.029724364530666365
1760643939.175611,-0.291921,-0.071973,0.179049,0.936773,-0.091818,-0.025269,-0.010267,0.000427,0.000607,0.003704,-0.030308,0.5727,-0.819204,0.030312656221236564
1760643939.206095,-0.29273,-0.072474,0.178935,0.936504,-0.105171,-0.040468,-0.015107,-0.001447,0.003739,-0.001167,-0.030986,0.574221,-0.818114,0.030990954292582126
1760643939.207496,-0.293681,-0.073078,0.178768,0.936191,-0.129123,-0.041801,-0.023857,-0.001629,0.004526,-0.000691,-0.031828,0.576011,-0.816822,0.0318333782088888
1760643939.239411,-0.294895,-0.073861,0.178609,0.935778,-0.153016,-0.062364,-0.020916,-0.002717,-0.000787,0.00044,-0.032892,0.578297,-0.815163,0.03289793343917376
1760643939.282353,-0.296218,-0.074498,0.17841,0.935348,-0.139788,-0.039273,-0.011587,-0.002505,-0.004042,0.001626,-0.033667,0.580715,-0.81341,0.033673376687618314
1760643939.282668,-0.297539,-0.075135,0.178209,0.934915,-0.126559,-0.016183,-0.002257,-0.002293,-0.00729,0.002805,-0.034442,0.583127,-0.81165,0.034448829106511
1760643939.289158,-0.298621,-0.075505,0.178218,0.934539,-0.11469,-0.01644,0.017,-0.000366,-0.002312,-0.000524,-0.034685,0.585058,-0.810249,0.0346919695945686
1760643939.349547,-0.299661,-0.075816,0.178287,0.934167,-0.126586,-0.008744,-0.001112,-0.001961,0.001525,0.003722,-0.034799,0.586901,-0.80891,0.03480604218915133
1760643939.349824,-0.300719,-0.076019,0.178213,0.933825,-0.116724,-0.010595,0.00381,-0.002997,0.000817,-0.000662,-0.034792,0.588733,-0.807578,0.034799035989382436
1760643939.392666,-0.301627,-0.076243,0.178218,0.933513,-0.094765,-0.013932,0.008717,-0.003965,0.002521,-0.001465,-0.034838,0.590322,-0.806416,0.034845041942543745
1760643939.394379,-0.302389,-0.076469,0.17824,0.933244,-0.079593,-0.012674,0.004667,-0.004105,0.004955,0.000135,-0.034932,0.591665,-0.805427,0.034939101716060954
1760643939.42286,-0.303026,-0.076663,0.178249,0.933019,-0.066775,-0.011763,0.003261,-0.00593,0.00743,-0.00065,-0.035028,0.592788,-0.804597,0.03503515107505266
1760643939.426017,-0.303513,-0.076927,0.178262,0.932837,-0.053652,-0.020962,0.004867,-0.006429,0.009897,0.000628,-0.035311,0.593683,-0.803924,0.035318339153417824
1760643939.455223,-0.303878,-0.07727,0.178371,0.932669,-0.042997,-0.030796,0.007427,-0.004627,0.014403,0.004009,-0.035729,0.5944,-0.803375,0.03573661837821978
1760643939.485243,-0.304208,-0.077636,0.178455,0.932515,-0.038472,-0.025302,-0.000388,-0.000291,0.01625,0.009475,-0.036218,0.595065,-0.802861,0.03622592491763197
1760643939.506375,-0.304538,-0.077925,0.178357,0.932402,-0.038465,-0.006766,-0.017678,0.002445,0.01171,0.008326,-0.036682,0.595701,-0.802368,0.036690237623990186
1760643939.506619,-0.30482,-0.078078,0.178125,0.932341,-0.021778,-0.001305,-0.024075,0.000512,0.006164,0.001166,-0.036999,0.596207,-0.801978,0.037007438812665314
1760643939.534163,-0.304952,-0.078279,0.17787,0.93233,-0.003706,-0.013553,-0.029416,-0.001533,0.00274,-0.003903,-0.03748,0.596479,-0.801753,0.037488783918786184
1760643939.563939,-0.30499,-0.078593,0.177628,0.932337,-2e-06,-0.027956,-0.03299,-0.001907,0.000914,-0.003124,-0.038202,0.596628,-0.801608,0.038211302862247325
1760643939.565223,-0.305025,-0.079025,0.177426,0.932328,-0.010955,-0.039088,-0.034005,-0.000634,0.000903,0.001029,-0.039115,0.596809,-0.801429,0.03912499268093791
1760643939.596106,-0.30514,-0.079497,0.177193,0.932294,-0.022374,-0.031853,-0.033422,0.000736,0.000767,0.004003,-0.040092,0.597132,-0.80114,0.04010276238638784
1760643939.630059,-0.305332,-0.079893,0.176974,0.932239,-0.030631,-0.025527,-0.024696,0.000165,0.001456,0.002967,-0.040888,0.597563,-0.800779,0.04089939387427358
1760643939.631892,-0.305606,-0.080235,0.176826,0.932148,-0.042577,-0.022136,-0.014897,-0.000165,0.002148,0.002841,-0.041504,0.598116,-0.800334,0.041515928180349666
1760643939.662016,-0.306006,-0.080562,0.176725,0.932008,-0.05413,-0.018637,-0.008729,-0.001778,-0.000739,0.004288,-0.042011,0.598875,-0.79974,0.04202336211909232
1760643939.690538,-0.306495,-0.080817,0.176688,0.931832,-0.052867,-0.014005,-0.000263,-0.001654,-0.002573,0.002602,-0.042308,0.599762,-0.799059,0.042320637991977224
1760643939.690866,-0.306966,-0.080992,0.17671,0.931657,-0.044872,-0.011736,0.007809,-0.001216,-0.003299,0.000999,-0.042426,0.600599,-0.798424,0.04243873770507991
1760643939.726418,-0.307342,-0.081153,0.176836,0.931496,-0.034843,-0.010157,0.016604,-0.000157,-0.001777,0.002302,-0.042489,0.601277,-0.79791,0.042501800818579356
1760643939.7277,-0.30766,-0.081273,0.177019,0.931346,-0.035371,-0.007983,0.019857,0.000282,0.001673,0.004673,-0.042463,0.601849,-0.79748,0.04247577814392762
1760643939.758623,-0.308002,-0.081347,0.177184,0.931195,-0.039599,-0.004339,0.016489,0.000244,0.003971,0.005761,-0.042354,0.602446,-0.797035,0.04236667658755714
1760643939.787744,-0.308364,-0.081388,0.177298,0.931049,-0.036939,-0.001944,0.016508,0.000935,0.00247,0.002063,-0.042207,0.603065,-0.796575,0.04221952979410452
1760643939.789783,-0.308665,-0.081398,0.17743,0.930924,-0.024902,-0.001249,0.01872,-7e-05,0.003348,0.002431,-0.042019,0.603572,-0.796201,0.04203135803097722
1760643939.836918,-0.308822,-0.081387,0.177627,0.930835,-0.013399,-0.002018,0.020683,-0.001191,0.004627,0.001866,-0.041806,0.603838,-0.79601,0.04181818743645162
1760643939.837256,-0.308979,-0.081376,0.177824,0.930746,-0.001895,-0.002787,0.022646,-0.002313,0.005906,0.001301,-0.041593,0.604104,-0.795819,0.041605012220794414
1760643939.867408,-0.308969,-0.08135,0.178033,0.930712,0.004715,-0.003446,0.017862,-0.003258,0.007956,-0.002074,-0.041414,0.604089,-0.79584,0.04142584861356352
1760643939.874188,-0.308923,-0.081322,0.178215,0.930695,0.018714,-0.000867,0.017804,-0.003274,0.009406,-0.000144,-0.041262,0.604011,-0.795907,0.04127372169976054
1760643939.907476,-0.308705,-0.081221,0.178457,0.93073,0.035666,0.004667,0.027687,-0.004125,0.011404,-0.001584,-0.041008,0.603631,-0.796209,0.04101948560373165
1760643939.909502,-0.308375,-0.080978,0.178824,0.930789,0.051916,0.010014,0.047897,-0.006814,0.017262,-0.006055,-0.040458,0.603027,-0.796694,0.040469050636501164
1760643939.947266,-0.307949,-0.080662,0.179359,0.930855,0.057476,0.004414,0.059763,-0.011867,0.029668,-0.011474,-0.039702,0.602246,-0.797323,0.03971242831174685
1760643939.949429,-0.307578,-0.080384,0.17996,0.930886,0.04465,0.001853,0.06569,-0.011767,0.041637,-0.015311,-0.038954,0.601573,-0.797868,0.03896384203773739
1760643939.97761,-0.307323,-0.080122,0.180571,0.930874,0.035574,0.006224,0.065329,-0.010455,0.05639,-0.015249,-0.03818,0.601093,-0.798266,0.038189298929731906
1760643939.979762,-0.307087,-0.079779,0.18117,0.930865,0.041504,0.019745,0.061477,-0.010929,0.075344,-0.017698,-0.037258,0.60062,-0.798666,0.03726662683546256
1760643940.009,-0.30678,-0.079336,0.181586,0.930923,0.057245,0.037523,0.033833,-0.009979,0.08552,-0.014997,-0.036297,0.599989,-0.799184,0.036304986795837
1760643940.042542,-0.306256,-0.078643,0.18168,0.931136,0.10189,0.0645,0.013649,-0.01136,0.085898,-0.021468,-0.035174,0.598907,-0.800046,0.03518124981699205
1760643940.042874,-0.305288,-0.0779,0.18156,0.93154,0.143641,0.053964,-0.017631,-0.012517,0.07614,-0.025656,-0.034278,0.597063,-0.801462,0.03428470687877906
1760643940.063058,-0.303923,-0.077341,0.181235,0.932096,0.186215,0.039201,-0.04718,-0.005427,0.052874,-0.013336,-0.034015,0.594605,-0.803298,0.034021566109525475
1760643940.093152,-0.302141,-0.076773,0.180711,0.932824,0.233307,0.049631,-0.063223,0.000544,0.032193,-0.004817,-0.034031,0.591436,-0.805633,0.03403758595766902
1760643940.123296,-0.299978,-0.076042,0.180119,0.933696,0.268649,0.055795,-0.06746,-0.000146,0.023833,-0.008624,-0.033937,0.58757,-0.808461,0.03394352765825018
1760643940.123615,-0.297556,-0.075336,0.179513,0.934644,0.284836,0.045955,-0.069664,-0.000717,0.013825,-0.010238,-0.033994,0.583265,-0.81157,0.034000558817836916
1760643940.151709,-0.295011,-0.074725,0.178978,0.935602,0.294455,0.029062,-0.063735,-0.001093,0.002746,-0.007205,-0.034225,0.578774,-0.81477,0.034231670607617226
1760643940.185954,-0.292277,-0.074164,0.178593,0.936578,0.322951,0.023411,-0.053464,0.00059,-0.006813,-0.001406,-0.034524,0.57397,-0.818148,0.03453086852024466
1760643940.18805,-0.289167,-0.07345,0.178382,0.937639,0.375941,0.027939,-0.027494,-0.000235,-0.009875,-0.002638,-0.034575,0.568473,-0.821975,0.03458189440154318
1760643940.217785,-0.285599,-0.072538,0.178383,0.938803,0.430617,0.033868,-0.012262,-0.000574,-0.004538,-0.001351,-0.034305,0.562122,-0.826342,0.034311747951857645
1760643940.220821,-0.281579,-0.071359,0.17854,0.940077,0.466996,0.054284,0.003388,0.000446,0.001501,-0.001204,-0.033619,0.554893,-0.831242,0.03362534048351098
1760643940.251058,-0.277336,-0.069952,0.178735,0.941406,0.481584,0.077487,0.00287,0.002268,0.011441,0.003364,-0.032566,0.547177,-0.836383,0.032571763325042344
1760643940.283811,-0.273009,-0.068296,0.178861,0.942767,0.490181,0.099141,-0.000958,-0.002106,0.017653,0.009676,-0.031112,0.539199,-0.841603,0.03111703494008816
1760643940.285102,-0.268661,-0.066411,0.178852,0.944152,0.511529,0.13058,-0.002073,-0.005714,0.012747,0.016666,-0.029303,0.531069,-0.846822,0.029307188631514065
1760643940.315856,-0.264145,-0.064274,0.178827,0.945578,0.536342,0.138428,0.002934,-0.006654,0.0137,0.008825,-0.02708,0.522527,-0.852193,0.027083301339031227
1760643940.317323,-0.259545,-0.062037,0.178879,0.94699,0.546946,0.14179,0.011617,-0.007074,0.0172,0.00782,-0.024643,0.513767,-0.857576,0.024645489898135163
1760643940.346453,-0.255,-0.059796,0.178992,0.948347,0.535932,0.139855,0.019156,-0.005563,0.021809,0.012236,-0.022128,0.505063,-0.862799,0.02212980183049445
1760643940.391399,-0.250961,-0.057607,0.179086,0.949541,0.486707,0.145176,0.018086,-0.002103,0.025014,0.019205,-0.019513,0.497228,-0.8674,0.01951424629342965
1760643940.391707,-0.246916,-0.055417,0.179176,0.950714,0.437483,0.150497,0.017016,0.001346,0.028262,0.026096,-0.016889,0.489352,-0.871923,0.016889800162352545
1760643940.440307,-0.243586,-0.05312,0.179254,0.951689,0.425939,0.165182,0.032408,0.006349,0.019668,0.026993,-0.013779,0.48268,-0.875689,0.013779428694260704
1760643940.440667,-0.240251,-0.050821,0.179329,0.952648,0.414395,0.179867,0.0478,0.011343,0.011104,0.027829,-0.010661,0.475977,-0.879393,0.010661202973126439
1760643940.440945,-0.236951,-0.048277,0.17957,0.953561,0.432833,0.205806,0.063209,0.012145,0.002961,0.035671,-0.006971,0.469233,-0.883047,0.006971055737643234
1760643940.485976,-0.233512,-0.045432,0.179902,0.954486,0.456326,0.209691,0.07012,0.009405,-0.001938,0.024779,-0.002709,0.462114,-0.886816,0.002709004254084907
1760643940.487357,-0.229801,-0.042539,0.180302,0.955444,0.479633,0.196379,0.075581,0.006133,-0.00868,0.01739,0.001579,0.454464,-0.890764,-0.0015790002422563529
1760643940.505171,-0.225691,-0.039803,0.180857,0.956436,0.50749,0.166117,0.086663,0.002101,-0.012999,0.017983,0.005498,0.446115,-0.894959,-0.005498026509217259
1760643940.536259,-0.221271,-0.037327,0.181585,0.95743,0.532212,0.12248,0.097238,-0.003094,-0.016261,0.016589,0.008883,0.437259,-0.899292,-0.008883114863611133
1760643940.538258,-0.216443,-0.035296,0.182549,0.958427,0.561493,0.063617,0.104541,-0.00391,-0.016608,0.023658,0.011366,0.427776,-0.903813,-0.01136624796875354
1760643940.571107,-0.211252,-0.033511,0.183717,0.959426,0.576714,0.038016,0.1185,0.001092,-0.00685,0.024367,0.013318,0.417675,-0.908499,-0.013318392348229447
1760643940.617448,-0.206043,-0.031849,0.18477,0.960412,0.569082,0.052261,0.11096,-0.000238,-0.004471,0.026043,0.014965,0.407542,-0.913064,-0.014965556374859312
1760643940.617719,-0.200827,-0.030186,0.185818,0.961368,0.561451,0.066505,0.103419,-0.001551,-0.002038,0.027605,0.016595,0.397355,-0.917515,-0.016595760416826293
1760643940.619919,-0.195781,-0.028582,0.186727,0.962282,0.538845,0.047251,0.082792,-0.008007,-0.009015,0.018275,0.018107,0.387467,-0.921706,-0.018107985146548454
1760643940.652194,-0.190866,-0.027089,0.187555,0.963151,0.537781,0.029327,0.075423,-0.007317,-0.018189,0.010359,0.019413,0.377827,-0.925673,-0.01941421363563158
1760643940.681338,-0.185907,-0.02577,0.188272,0.964017,0.552308,0.026385,0.059251,0.002077,-0.02309,0.016752,0.020316,0.368139,-0.929549,-0.020317393665914243
1760643940.68165,-0.18083,-0.024372,0.188743,0.964926,0.561794,0.039806,0.026963,0.006658,-0.035036,0.023873,0.021227,0.358176,-0.933413,-0.021228589525105222
1760643940.711163,-0.175479,-0.022701,0.188886,0.965926,0.609153,0.087626,0.012221,0.006912,-0.057134,0.020647,0.022437,0.347576,-0.937383,-0.022438889880519775
1760643940.729283,-0.169615,-0.020688,0.189,0.966996,0.663911,0.089377,0.020228,0.000431,-0.065434,-0.000329,0.024105,0.335854,-0.941605,-0.02410734780626443
1760643940.759644,-0.163184,-0.018679,0.189326,0.968079,0.706598,0.05137,0.044832,-0.004516,-0.057539,-0.020059,0.025624,0.323024,-0.946044,-0.025626800495853103
1760643940.759969,-0.1565,-0.016976,0.18985,0.969111,0.706968,0.016937,0.049938,-0.003766,-0.051782,-0.014741,0.026519,0.309777,-0.950439,-0.02652211802126257
1760643940.787782,-0.149766,-0.015497,0.190491,0.970074,0.682116,-0.007187,0.057001,-0.00669,-0.050541,-0.007236,0.026991,0.296472,-0.95466,-0.026994279963209467
1760643940.819658,-0.14329,-0.014337,0.191184,0.970933,0.632606,-0.025551,0.065175,-0.004715,-0.051752,0.008848,0.026949,0.283731,-0.958525,-0.026952266994084574
1760643940.854641,-0.137327,-0.013277,0.191981,0.971652,0.567036,-0.017394,0.07277,-0.002696,-0.048074,0.012833,0.026927,0.271966,-0.96193,-0.02693025646146522
1760643940.856791,-0.132058,-0.012346,0.192807,0.972231,0.503276,-0.012202,0.080694,0.00093,-0.045961,0.016467,0.026918,0.261542,-0.964817,-0.026921243145496085
1760643940.857024,-0.127454,-0.011316,0.193638,0.972693,0.430891,0.025136,0.073617,0.004563,-0.038811,0.019301,0.027346,0.25233,-0.967255,-0.027349402991047725
1760643940.887473,-0.123606,-0.010073,0.194257,0.97308,0.363976,0.062337,0.055332,0.006456,-0.038505,0.017102,0.028418,0.244471,-0.96924,-0.028421828785849357
1760643940.91664,-0.120332,-0.008683,0.194654,0.973424,0.321568,0.084209,0.032992,0.006514,-0.03962,0.015597,0.029941,0.237649,-0.97089,-0.02994546178664269
1760643940.918435,-0.117438,-0.007118,0.194743,0.973773,0.292195,0.10674,0.001261,0.005847,-0.039638,0.011731,0.031877,0.231488,-0.972315,-0.03188241228764234
1760643940.950914,-0.11482,-0.00549,0.194535,0.974137,0.279877,0.1159,-0.01722,0.005306,-0.037139,0.009065,0.033978,0.225837,-0.973572,-0.03398455335501654
1760643940.980009,-0.112439,-0.003821,0.194132,0.974503,0.242426,0.122977,-0.044768,0.003182,-0.022329,-0.002211,0.036208,0.220627,-0.974686,-0.036215914587047746
1760643940.980339,-0.110452,-0.002339,0.193422,0.974876,0.191015,0.100698,-0.073415,0.000339,-0.012595,-0.016477,0.038168,0.216259,-0.97559,-0.03817726179943954
1760643941.009996,-0.108885,-0.001303,0.192419,0.975252,0.13141,0.058154,-0.115433,-0.002803,-0.005385,-0.025367,0.039361,0.212883,-0.976285,-0.03937115371932113
1760643941.027708,-0.107835,-0.000847,0.191089,0.975631,0.072996,0.020796,-0.146768,-0.000689,-0.011554,-0.026275,0.039559,0.210738,-0.976742,-0.039569318013370346
1760643941.058381,-0.107237,-0.000904,0.189578,0.975992,0.032762,-0.017834,-0.15712,0.002671,-0.019266,-0.021988,0.038895,0.209668,-0.976999,-0.03890480308844773
1760643941.060486,-0.106915,-0.001241,0.188071,0.976318,0.009509,-0.022461,-0.150871,0.008359,-0.02781,-0.014517,0.037792,0.209233,-0.977135,-0.03780101137476923
1760643941.088843,-0.106836,-0.001607,0.18672,0.976585,-0.009244,-0.017052,-0.128802,0.01032,-0.03475,-0.009815,0.036758,0.209268,-0.977167,-0.036766290134327965
1760643941.099157,-0.106908,-0.001844,0.185616,0.976788,-0.026837,-0.014525,-0.094993,0.00654,-0.032453,-0.016583,0.036086,0.209537,-0.977135,-0.03609382269664657
1760643941.129931,-0.107148,-0.002178,0.184871,0.976902,-0.057017,-0.025839,-0.057674,0.0043,-0.031222,-0.010701,0.035362,0.210152,-0.977029,-0.035369373992209796
1760643941.173728,-0.108014,-0.002628,0.184814,0.976816,-0.118159,-0.030687,-0.016275,0.004964,-0.024744,0.000268,0.03479,0.21199,-0.976652,-0.03479703514843484
1760643941.174084,-0.108879,-0.003079,0.184756,0.97673,-0.179301,-0.035534,0.025124,0.005628,-0.018266,0.011233,0.034218,0.213828,-0.976272,-0.034224675812429245
1760643941.174754,-0.110533,-0.00357,0.185166,0.976465,-0.234836,-0.025782,0.060047,0.00637,-0.018218,0.014351,0.033962,0.217185,-0.975539,-0.03396854771252872
1760643941.203994,-0.112716,-0.004013,0.185996,0.976055,-0.279431,-0.008235,0.101478,0.004367,-0.014977,0.003887,0.034095,0.221528,-0.974558,-0.03410160203815154
1760643941.234008,-0.115371,-0.004455,0.187157,0.975521,-0.324191,-0.02147,0.131238,-0.000868,-0.007898,-0.004608,0.034492,0.226762,-0.973339,-0.03449885126911316
1760643941.237213,-0.118387,-0.005157,0.188571,0.974884,-0.355957,-0.03967,0.143082,-0.000632,0.000976,0.001673,0.034593,0.232772,-0.971916,-0.0345998998512487
1760643941.284875,-0.121802,-0.00591,0.189916,0.974198,-0.37072,-0.027498,0.13065,0.001787,-0.000689,0.005644,0.03475,0.239563,-0.970259,-0.03475698855264703
1760643941.285215,-0.125215,-0.006661,0.191259,0.973497,-0.385482,-0.015326,0.118219,0.004187,-0.002342,0.009566,0.034927,0.246341,-0.968554,-0.034934094027286415
1760643941.313941,-0.128658,-0.007221,0.192329,0.972833,-0.356886,0.011735,0.096157,0.006321,-0.010838,0.008873,0.035441,0.253104,-0.96679,-0.03544841286110957
1760643941.31602,-0.131672,-0.007531,0.193172,0.97226,-0.284133,0.026768,0.090977,0.006175,-0.018008,-0.000435,0.036226,0.258948,-0.965212,-0.03623391727275306
1760643941.345123,-0.133988,-0.007522,0.193953,0.971788,-0.199425,0.034425,0.076684,0.002863,-0.017597,-0.008089,0.037355,0.263335,-0.963981,-0.03736369134394254
1760643941.352982,-0.135521,-0.007351,0.194525,0.971463,-0.12053,0.034328,0.049655,0.000998,-0.015558,-0.012898,0.038442,0.266168,-0.96316,-0.03845146723027684
1760643941.398742,-0.136292,-0.007122,0.194823,0.971297,-0.048124,0.026166,0.025835,-0.000753,-0.011484,-0.009791,0.039271,0.267535,-0.962747,-0.03928112121054019
1760643941.399898,-0.136412,-0.006856,0.194896,0.971267,0.001412,0.020009,-0.006855,-0.000138,-0.006835,-0.00611,0.039854,0.267658,-0.962689,-0.039864572657986215
1760643941.428971,-0.136104,-0.006625,0.194674,0.971357,0.040832,0.020677,-0.032539,0.001419,-0.005518,-0.001071,0.040122,0.266991,-0.962864,-0.040132751259625225
1760643941.433824,-0.135465,-0.0063,0.194228,0.971538,0.07013,0.029489,-0.051375,0.001833,-0.007661,0.001072,0.040381,0.265666,-0.963219,-0.04039198464879145
1760643941.462624,-0.134646,-0.005942,0.193664,0.971766,0.087566,0.025406,-0.053878,0.000439,-0.008509,-0.002991,0.040604,0.263991,-0.96367,-0.04061516951270061
1760643941.504877,-0.133776,-0.005749,0.193172,0.971985,0.08343,0.007113,-0.049767,-0.000926,-0.010331,-0.005642,0.040508,0.262277,-0.964142,-0.04051908808081364
1760643941.505195,-0.132905,-0.005556,0.19268,0.972204,0.079293,-0.011181,-0.045657,-0.002293,-0.012153,-0.008297,0.040413,0.260563,-0.964611,-0.040423995056065316
1760643941.537761,-0.132082,-0.005609,0.192331,0.972385,0.077897,-0.024205,-0.027716,-0.002395,-0.017359,-0.007287,0.039899,0.259027,-0.965046,-0.03990957970451279
1760643941.538124,-0.131252,-0.005774,0.192212,0.97252,0.073332,-0.040108,-0.004488,-0.002035,-0.01926,-0.007138,0.039226,0.257509,-0.965479,-0.03923608079664126
1760643941.569927,-0.13043,-0.006063,0.192371,0.972597,0.068526,-0.05009,0.022801,-0.002475,-0.016561,-0.004173,0.038389,0.256045,-0.965902,-0.03839844626552435
1760643941.571845,-0.129657,-0.006468,0.192726,0.972627,0.05347,-0.058809,0.034009,-0.001209,-0.011324,-0.002387,0.037395,0.254708,-0.966295,-0.03740371010927841
1760643941.600183,-0.129024,-0.006896,0.193155,0.972624,0.029638,-0.05962,0.036387,-0.001722,-0.007677,-0.00036,0.036429,0.253647,-0.966611,-0.03643704941175964
1760643941.618921,-0.1286,-0.007426,0.19362,0.972583,0.01515,-0.062269,0.039807,-0.000111,-0.004739,0.003823,0.035355,0.253024,-0.966814,-0.03536236200256667
1760643941.648716,-0.128355,-0.007958,0.194063,0.972523,-0.008351,-0.055661,0.034545,-0.00197,-0.001844,0.002662,0.034338,0.252745,-0.966923,-0.034344764941353405
1760643941.650672,-0.128339,-0.008457,0.194457,0.972442,-0.020838,-0.051661,0.02655,-0.002185,-0.00151,0.002528,0.033465,0.252893,-0.966915,-0.033471259590945025
1760643941.679473,-0.128441,-0.008975,0.194732,0.972369,-0.0302,-0.048653,0.016734,-0.001556,0.002661,0.003461,0.032568,0.25328,-0.966845,-0.03257374889775694
1760643941.727306,-0.128788,-0.009431,0.194779,0.972309,-0.044472,-0.041966,0.000664,-0.00134,0.003298,0.002465,0.031831,0.254118,-0.966649,-0.03183638631754186
1760643941.727709,-0.129136,-0.009887,0.194827,0.972249,-0.058744,-0.035279,-0.015406,-0.001123,0.003935,0.001468,0.031093,0.254957,-0.966452,-0.03109802282579244
1760643941.729436,-0.129652,-0.010345,0.19466,0.972209,-0.064191,-0.02671,-0.025601,-0.001453,0.003207,0.003391,0.03036,0.256124,-0.966167,-0.030364667332159534
1760643941.764883,-0.130268,-0.010777,0.194395,0.972175,-0.07108,-0.026773,-0.031891,-0.000991,0.002636,0.005438,0.029693,0.257476,-0.965828,-0.02969737553055517
1760643941.771764,-0.130949,-0.011178,0.194099,0.972138,-0.072394,-0.016234,-0.027604,0.000406,0.001019,0.004821,0.029101,0.25894,-0.965455,-0.029105106851610753
1760643941.8017,-0.131555,-0.011473,0.193843,0.972104,-0.056932,-0.00892,-0.026087,0.001536,-0.002834,0.003497,0.028697,0.260217,-0.965124,-0.02870092958258472
1760643941.841893,-0.13195,-0.011419,0.193599,0.9721,-0.037132,0.01334,-0.024647,0.001418,-0.002664,0.003121,0.028889,0.260958,-0.964918,-0.028893014083129914
1760643941.842202,-0.132345,-0.011366,0.193355,0.972095,-0.017332,0.035601,-0.023208,0.001299,-0.002494,0.002744,0.029082,0.261699,-0.964711,-0.029086109077925425
1760643941.88876,-0.132261,-0.011052,0.193144,0.972152,0.006962,0.029142,-0.017552,-0.000626,-0.002058,0.001294,0.029603,0.261425,-0.96477,-0.029607317692713405
1760643941.889081,-0.132178,-0.010738,0.192933,0.972209,0.031257,0.022683,-0.011896,-0.002551,-0.001623,-0.000157,0.030123,0.261152,-0.964828,-0.03012754490432744
1760643941.889928,-0.131908,-0.010419,0.19282,0.972272,0.033429,0.022824,-0.003756,-8.2e-05,-5.2e-05,-5e-06,0.030609,0.260518,-0.964984,-0.03061377156968487
1760643941.919908,-0.131627,-0.010137,0.192809,0.972315,0.030413,0.020362,0.009379,0.001054,-0.002489,0.001326,0.031045,0.259874,-0.965143,-0.03104999988124716
1760643941.951095,-0.131342,-0.009893,0.192901,0.972338,0.032132,0.020899,0.009406,0.000859,-0.001198,0.0027,0.031432,0.259234,-0.965303,-0.031437176077054554
1760643941.953111,-0.131092,-0.009613,0.192994,0.972356,0.029149,0.021334,0.016767,-0.00144,0.001663,0.00086,0.031905,0.258648,-0.965445,-0.031910403109404545
1760643941.98155,-0.130887,-0.009389,0.193145,0.972356,0.020414,0.006837,0.010543,-0.000305,0.004981,0.001892,0.032301,0.258164,-0.965561,-0.03230661872685232
1760643942.018823,-0.13075,-0.009295,0.193172,0.97237,0.010863,0.008,-0.006264,-0.001862,0.005929,0.000689,0.032437,0.257865,-0.965636,-0.03244270055041376
1760643942.064354,-0.130742,-0.009334,0.192909,0.972422,0.00713,0.006283,-0.019225,-0.001857,0.004219,0.001478,0.03229,0.257874,-0.965639,-0.03229560859113531
1760643942.064605,-0.130735,-0.009372,0.192645,0.972475,0.003397,0.004566,-0.032186,-0.001852,0.002509,0.002268,0.032142,0.257883,-0.965641,-0.03214754833944721
1760643942.068294,-0.130757,-0.009413,0.192278,0.972545,0.000787,0.000504,-0.036925,-0.002209,-0.001412,0.000739,0.031975,0.257954,-0.965628,-0.03198044943406177
1760643942.113658,-0.130774,-0.009493,0.191912,0.972614,0.000891,-0.00179,-0.031633,-0.000875,-0.005443,0.001636,0.031729,0.258028,-0.965616,-0.03173433509173644
1760643942.114952,-0.130774,-0.009521,0.191639,0.972667,0.004881,0.005823,-0.020057,-0.000101,-0.008134,0.00138,0.031601,0.258049,-0.965615,-0.03160625818725907
1760643942.145002,-0.130728,-0.009464,0.191496,0.972702,0.009239,0.007359,-0.004586,-0.001928,-0.007572,-0.00173,0.031658,0.257943,-0.965641,-0.03166330059878024
1760643942.146095,-0.13064,-0.009383,0.191503,0.972714,0.010503,0.004072,0.00259,-0.002809,-0.005046,-0.001924,0.031781,0.257744,-0.96569,-0.03178636547906812
1760643942.175324,-0.130561,-0.00933,0.191539,0.972718,0.002669,0.001161,0.004553,-0.002796,-0.004423,-0.000609,0.031863,0.257572,-0.965734,-0.031868382083517416
1760643942.208593,-0.130533,-0.009329,0.191598,0.97271,-0.006031,-0.000371,0.001908,-0.002908,-0.003406,0.000737,0.03187,0.257516,-0.965748,-0.03187540728928167
1760643942.209924,-0.130623,-0.009342,0.191548,0.972707,-0.02213,0.009347,-0.010455,-0.001454,-0.003173,0.003354,0.031867,0.257695,-0.965701,-0.031872385781723585
1760643942.241016,-0.130846,-0.009268,0.191408,0.972706,-0.028692,0.018225,-0.020449,-0.001291,-0.000952,0.002396,0.03206,0.258096,-0.965587,-0.032065500372268685
1760643942.247843,-0.131195,-0.009154,0.191117,0.972717,-0.039189,0.02844,-0.031014,-0.001693,-4.9e-05,0.002018,0.032338,0.25873,-0.965408,-0.03234364590501404
1760643942.283695,-0.131648,-0.008977,0.190729,0.972733,-0.050895,0.037986,-0.040417,-0.001715,5.4e-05,0.002197,0.032754,0.259542,-0.965176,-0.032759866174122895
1760643942.289271,-0.132257,-0.008746,0.190215,0.972754,-0.062657,0.047392,-0.052315,-0.001593,0.001687,0.002924,0.033299,0.260635,-0.964863,-0.03330515626802116
1760643942.319283,-0.132999,-0.008463,0.189553,0.972784,-0.074022,0.052231,-0.065242,-0.001719,0.000467,0.001537,0.033955,0.261967,-0.964479,-0.033961538397419624
1760643942.348781,-0.133822,-0.008188,0.188787,0.972823,-0.075877,0.054896,-0.069643,-0.001162,-0.003397,0.001327,0.034596,0.263462,-0.964049,-0.034602912164790875
1760643942.349036,-0.134595,-0.007884,0.188053,0.972861,-0.064448,0.057118,-0.063156,-0.001707,-0.005866,0.00176,0.035283,0.26485,-0.963644,-0.03529032165588787
1760643942.377941,-0.135227,-0.007526,0.187371,0.972908,-0.049124,0.059919,-0.05724,1.6e-05,-0.007139,0.00016,0.036032,0.265947,-0.963314,-0.03603980177410175
1760643942.404488,-0.135709,-0.007103,0.186773,0.972959,-0.032451,0.060468,-0.046108,0.001164,-0.0084,0.000152,0.036871,0.266732,-0.963065,-0.03687936621230848
1760643942.408066,-0.136008,-0.006644,0.186317,0.973007,-0.015047,0.060789,-0.030328,0.002191,-0.008817,6.3e-05,0.037751,0.26715,-0.962915,-0.03775998084023574
1760643942.436708,-0.13614,-0.006109,0.18602,0.97305,-8.4e-05,0.055323,-0.013202,0.002787,-0.009759,-0.00072,0.038761,0.267215,-0.962857,-0.03877071486771276
1760643942.46724,-0.136114,-0.005587,0.185887,0.973082,0.01463,0.052257,-0.000427,0.003781,-0.007167,-0.000958,0.03973,0.266978,-0.962883,-0.03974047153925922
1760643942.468556,-0.13597,-0.005047,0.185854,0.973111,0.01876,0.045209,0.00607,0.004694,-0.003836,-0.000861,0.040718,0.266504,-0.962973,-0.04072927336572672
1760643942.504747,-0.13578,-0.004545,0.185878,0.973136,0.023589,0.041394,0.011674,0.005487,-0.001399,-0.000151,0.041632,0.265954,-0.963086,-0.04164404821345313
1760643942.506841,-0.135608,-0.00411,0.185892,0.973159,0.016897,0.034309,0.005775,0.00675,-0.000799,-0.002265,0.042417,0.265465,-0.963187,-0.04242972838543314
1760643942.536634,-0.135438,-0.00377,0.185892,0.973184,0.020044,0.024294,-0.001359,0.005824,-0.002242,-0.001735,0.043017,0.265014,-0.963285,-0.04303025913941955
1760643942.54519,-0.135267,-0.003528,0.185851,0.973216,0.017812,0.013738,-0.003684,0.006865,-0.004429,-0.002814,0.043412,0.2646,-0.963381,-0.04342563180995505
1760643942.582194,-0.135105,-0.003379,0.185804,0.973248,0.013704,0.004746,-0.004023,0.007689,-0.006096,-0.002531,0.043628,0.264236,-0.963471,-0.04364184266670316
1760643942.584033,-0.134999,-0.00333,0.185796,0.973265,0.007194,-0.005707,-0.003129,0.00634,-0.007812,-0.004061,0.043683,0.264017,-0.963528,-0.04369691801523726
1760643942.617523,-0.134936,-0.003384,0.185827,0.973267,0.000479,-0.012419,0.005069,0.00653,-0.009541,-0.002041,0.043563,0.263914,-0.963562,-0.04357678892833598
1760643942.646614,-0.134912,-0.0035,0.185967,0.973244,-0.006929,-0.016854,0.014173,0.006453,-0.008287,-0.00163,0.043365,0.263907,-0.963573,-0.04337859530885725
1760643942.64839,-0.134939,-0.003688,0.186197,0.973195,-0.015838,-0.024829,0.021697,0.004946,-0.006989,-0.00166,0.043072,0.264017,-0.963556,-0.043085321673673294
1760643942.677765,-0.135011,-0.003902,0.186501,0.973126,-0.018167,-0.027774,0.027891,0.004075,-0.006919,-0.000416,0.042766,0.264222,-0.963513,-0.04277905751038966
1760643942.685531,-0.135082,-0.004111,0.186839,0.973051,-0.022361,-0.029263,0.025435,0.003199,-0.005384,0.000122,0.042477,0.26442,-0.963472,-0.04248977269588885
1760643942.715354,-0.135179,-0.004327,0.187165,0.972973,-0.018662,-0.026394,0.028206,0.002418,-0.004865,0.001227,0.042181,0.264672,-0.963416,-0.04219349949741964
1760643942.730526,-0.13523,-0.00451,0.187502,0.972901,-0.012675,-0.021169,0.027696,0.0017,-0.003087,0.002489,0.041936,0.264823,-0.963385,-0.041948290721782834
1760643942.760986,-0.135294,-0.004644,0.187795,0.972835,-0.011515,-0.016873,0.023519,0.001275,-0.002375,0.002229,0.041779,0.264981,-0.963348,-0.041791168168130895
1760643942.761324,-0.135381,-0.004757,0.188032,0.972776,-0.014652,-0.014568,0.015759,0.000709,-0.000506,0.002919,0.041658,0.26518,-0.963299,-0.04167004186445962
1760643942.789049,-0.135487,-0.00487,0.188164,0.972735,-0.016785,-0.009604,0.008341,0.000539,-0.000129,0.002806,0.041514,0.265419,-0.963239,-0.0415259329462534
1760643942.819659,-0.135655,-0.004965,0.188201,0.972704,-0.025253,-0.004912,-0.005245,3.1e-05,0.000313,0.000752,0.041403,0.265774,-0.963146,-0.04141483295708774
1760643942.821738,-0.135902,-0.005056,0.188112,0.972687,-0.028295,-0.001961,-0.013454,-0.000518,-0.000909,-0.001215,0.041294,0.266282,-0.96301,-0.04130575386344084
1760643942.850615,-0.136184,-0.005161,0.187911,0.972685,-0.028796,-0.003087,-0.024302,-0.001808,-0.002202,0.001091,0.041141,0.266867,-0.962855,-0.04115260783534612
1760643942.881186,-0.136435,-0.005239,0.187667,0.972697,-0.023129,0.002754,-0.025762,-0.000788,-0.003517,0.00225,0.041017,0.267386,-0.962716,-0.04102851468902697
1760643942.883258,-0.136618,-0.005283,0.187358,0.97273,-0.014599,0.004592,-0.034834,-0.001003,-0.004253,-0.001368,0.040916,0.267764,-0.962615,-0.04092743897003325
1760643942.911946,-0.136741,-0.005284,0.187014,0.972779,-0.0097,0.006693,-0.034563,0.000586,-0.004433,-0.000137,0.040864,0.268014,-0.962548,-0.04087538098839338
1760643942.949874,-0.136816,-0.005142,0.186568,0.972855,-0.001411,0.020583,-0.036248,0.001929,-0.008567,0.002344,0.041045,0.268124,-0.96251,-0.04105651965064178
1760643942.950221,-0.136892,-0.005,0.186122,0.972931,0.006877,0.034473,-0.037932,0.003272,-0.012701,0.004825,0.041227,0.268234,-0.962471,-0.04123869649536187
1760643942.978824,-0.136811,-0.004626,0.185767,0.973012,0.022537,0.043167,-0.01931,0.002376,-0.00947,0.003218,0.041827,0.267956,-0.962523,-0.041839196414108264
1760643942.999547,-0.136648,-0.004122,0.185584,0.973072,0.023386,0.049257,-0.000195,-0.002387,-0.004322,0.003072,0.042698,0.267466,-0.962621,-0.04271097667302193
1760643942.999841,-0.136515,-0.003585,0.18559,0.973092,0.010663,0.043673,0.013081,-0.004552,0.000712,0.003343,0.043694,0.267015,-0.962701,-0.04370792845052346
1760643943.046087,-0.136588,-0.003167,0.185635,0.973074,-0.019067,0.039552,0.012589,-0.004351,0.001648,0.003772,0.044547,0.266996,-0.962668,-0.044561724818843004
1760643943.04738,-0.136931,-0.002844,0.185662,0.973022,-0.041917,0.031439,0.008399,-0.004678,-0.000839,-0.000208,0.045311,0.26753,-0.962484,-0.045326499908740006
1760643943.064263,-0.137368,-0.002612,0.185732,0.972948,-0.041226,0.033297,0.010363,-0.001151,-0.001478,0.001198,0.045944,0.268273,-0.962247,-0.045960166384029215
1760643943.094456,-0.137759,-0.002351,0.18581,0.972878,-0.024903,0.03844,0.014539,-0.002218,-0.000696,0.001168,0.04662,0.268919,-0.962034,-0.04663689774238227
1760643943.124971,-0.138031,-0.001996,0.185883,0.972826,-0.01345,0.037579,0.011038,-0.00421,0.001358,-0.000885,0.047432,0.269302,-0.961887,-0.04744980429468331
1760643943.125221,-0.138197,-0.001688,0.185869,0.972806,-0.0123,0.035315,-0.004706,-0.004782,0.006775,0.00074,0.048088,0.269505,-0.961798,-0.048106533771919084
1760643943.152873,-0.13837,-0.00139,0.185718,0.972811,-0.010523,0.03032,-0.018523,-0.004246,0.007643,0.003502,0.048692,0.269732,-0.961704,-0.0487112406605366
1760643943.183526,-0.138508,-0.001154,0.185428,0.972847,-0.013703,0.029994,-0.027544,-0.002011,0.006789,0.002479,0.049122,0.269923,-0.961628,-0.04914178121534613
1760643943.184911,-0.13872,-0.000957,0.185069,0.972885,-0.023227,0.027095,-0.038365,0.000292,0.006977,6.2e-05,0.049484,0.270272,-0.961511,-0.049504241445813175
1760643943.214793,-0.139051,-0.00085,0.184604,0.972926,-0.028381,0.030171,-0.052118,0.004429,0.003464,-0.000241,0.049685,0.270886,-0.961328,-0.04970548102283341
1760643943.216196,-0.139399,-0.000755,0.183998,0.972991,-0.025254,0.032004,-0.065985,0.006646,-0.004605,-0.001478,0.049828,0.271546,-0.961135,-0.04984862847535187
1760643943.246152,-0.139602,-0.000607,0.183374,0.97308,-0.001364,0.034559,-0.052706,0.007694,-0.007855,-0.005118,0.050018,0.27191,-0.961022,-0.050038876028115534
1760643943.283535,-0.139676,-0.000369,0.182918,0.973156,0.000733,0.026689,-0.038404,0.00295,0.001154,0.003461,0.05038,0.271989,-0.960981,-0.05040132011630307
1760643943.288204,-0.139759,-4.3e-05,0.182492,0.973224,-0.004443,0.036289,-0.03587,0.004401,0.003428,0.006941,0.050926,0.272049,-0.960935,-0.05094803328514626
1760643943.323366,-0.139909,0.000314,0.182167,0.973263,-0.021527,0.024905,-0.024539,0.006795,0.015405,0.000846,0.051585,0.272221,-0.960851,-0.05160790731833896
1760643943.325515,-0.140323,0.000467,0.181852,0.973262,-0.06157,0.025996,-0.033246,0.012123,0.01521,0.016798,0.051945,0.272972,-0.960619,-0.051968366456005305
1760643943.355069,-0.141123,0.000685,0.181419,0.973227,-0.090734,0.052172,-0.044408,0.012645,0.004069,0.017385,0.052539,0.27444,-0.960168,-0.05256319451493416
1760643943.356287,-0.142129,0.00096,0.180944,0.973169,-0.085924,0.045408,-0.033738,0.009446,-0.004681,0.004326,0.053303,0.276283,-0.959597,-0.053328275607854456
1760643943.396198,-0.143013,0.001093,0.180652,0.973094,-0.077024,0.019169,-0.01789,0.006096,-0.001507,-0.005617,0.053798,0.277935,-0.959092,-0.05382399646876043
1760643943.397459,-0.143915,0.001056,0.1805,0.972989,-0.08312,-0.000363,-0.01262,0.004852,0.003421,-0.006238,0.054009,0.279675,-0.958574,-0.05403531352389825
1760643943.428634,-0.144831,0.000926,0.180367,0.972878,-0.09686,0.001203,-0.022776,-4.6e-05,0.012409,0.002421,0.054048,0.281471,-0.958046,-0.0540743690419401
1760643943.458665,-0.145853,0.000698,0.180018,0.97279,-0.108767,-0.018624,-0.042972,-0.001142,0.005079,-0.011986,0.05387,0.283517,-0.957453,-0.05389608594085103
1760643943.459589,-0.146655,0.000234,0.179679,0.972732,-0.077929,-0.034376,-0.032238,0.000461,-0.002108,-0.010424,0.053158,0.285228,-0.956985,-0.05318303867769336
1760643943.490112,-0.147196,-0.000253,0.179448,0.972693,-0.049543,-0.032152,-0.023392,0.001375,-0.000757,0.003794,0.052335,0.286445,-0.956666,-0.05235893243011792
1760643943.519008,-0.147598,-0.000601,0.179324,0.972655,-0.039117,-0.015836,-0.014861,0.001399,0.003099,0.013439,0.051766,0.287339,-0.956429,-0.05178915148733081
1760643943.52106,-0.147981,-0.000757,0.179163,0.972626,-0.04057,0.000823,-0.016947,-0.000872,0.002531,0.008104,0.051552,0.288133,-0.956202,-0.05157484864076721
1760643943.550122,-0.148339,-0.000945,0.17892,0.972616,-0.033286,-0.024054,-0.030969,0.002234,-0.012127,-0.012461,0.051243,0.288891,-0.95599,-0.05126543371307384
1760643943.55732,-0.148263,-0.001172,0.178813,0.972647,0.034903,-0.019848,0.005194,-0.004487,-0.018625,-0.003147,0.050742,0.288834,-0.956033,-0.05076382718611252
1760643943.588932,-0.147841,-0.001334,0.178828,0.972709,0.043548,-0.023498,-0.010611,-0.008444,-0.000645,-0.003035,0.050282,0.288089,-0.956283,-0.05030319365335772
1760643943.617866,-0.14743,-0.001421,0.178774,0.972781,0.038397,-0.016814,-0.010507,-0.011844,0.004429,0.000829,0.049948,0.287341,-0.956525,-0.04996879853763675
1760643943.619802,-0.147175,-0.001561,0.178607,0.97285,0.000817,-0.017541,-0.017784,-0.014004,0.006553,0.005098,0.049536,0.286916,-0.956674,-0.04955628733544537
1760643943.652155,-0.147276,-0.00182,0.178335,0.972884,-0.040204,-0.031978,-0.040627,-0.013221,0.000339,-0.007601,0.048987,0.287214,-0.956613,-0.04900661277773851
1760643943.682233,-0.147376,-0.00237,0.178039,0.972922,0.012178,-0.039961,-0.014374,-0.00609,-0.016997,0.00768,0.047866,0.287614,-0.95655,-0.04788427610085852
1760643943.682572,-0.147056,-0.002699,0.177972,0.972982,0.033695,-0.020918,-0.005073,-0.001677,-0.007318,0.005794,0.047092,0.287126,-0.956735,-0.047109402848148116
1760643943.710378,-0.146684,-0.002718,0.177835,0.973063,0.045466,0.009656,-0.016896,-0.001662,-0.000271,0.006769,0.046882,0.286433,-0.956953,-0.04689917136899638
1760643943.742386,-0.146299,-0.002695,0.177561,0.973171,0.035885,0.010531,-0.02906,-0.00654,0.004296,0.001501,0.046708,0.285706,-0.957178,-0.046725016861383216
1760643943.744557,-0.145983,-0.002708,0.177231,0.973278,0.010398,-0.005454,-0.036245,-0.011046,0.008758,-0.00783,0.046474,0.285125,-0.957363,-0.04649074534378723
1760643943.775911,-0.14594,-0.002885,0.176919,0.973341,-0.013199,-0.014241,-0.028078,-0.006531,0.003205,-0.003586,0.046023,0.28512,-0.957386,-0.04603927440652962
1760643943.7773,-0.146133,-0.003115,0.176799,0.973333,-0.023211,-0.016765,-0.003462,-0.006177,0.00202,0.002323,0.045609,0.285574,-0.957271,-0.04562481686437662
1760643943.806409,-0.146559,-0.003355,0.176767,0.973274,-0.05764,-0.012772,-0.000868,-0.00566,-0.000865,0.001283,0.045283,0.28647,-0.957019,-0.04529846798965404
1760643943.84248,-0.147129,-0.003658,0.176753,0.97319,-0.051758,-0.007999,0.000521,-0.003107,-0.018891,0.013626,0.044891,0.287663,-0.956679,-0.044906093060001914
1760643943.842772,-0.14747,-0.003651,0.176786,0.973132,-0.015175,0.021425,0.012073,0.00285,-0.024881,0.003238,0.045037,0.288307,-0.956478,-0.04505225193333086
1760643943.879096,-0.147401,-0.003406,0.176953,0.973113,0.032844,0.019457,0.030652,0.001094,-0.016318,-0.007827,0.045537,0.288081,-0.956523,-0.04555274033978796
1760643943.880648,-0.147024,-0.003118,0.177193,0.973127,0.042357,0.021681,0.019215,0.001221,-0.000718,0.000541,0.046035,0.287252,-0.956748,-0.046051282895069746
1760643943.911119,-0.146722,-0.002888,0.177244,0.973164,0.004764,0.01455,-0.006066,-9.6e-05,0.006993,0.002518,0.046389,0.286592,-0.956929,-0.0464056532745935
1760643943.913203,-0.146769,-0.002782,0.177048,0.973193,-0.03316,0.013309,-0.021528,0.003948,0.005717,0.003544,0.046556,0.286655,-0.956902,-0.04657283476336598
1760643943.952224,-0.147215,-0.002759,0.176734,0.973183,-0.073331,0.010445,-0.034225,0.005355,0.003896,-0.001125,0.046665,0.287509,-0.95664,-0.04668197323505787
1760643943.954261,-0.147964,-0.002844,0.176353,0.973138,-0.076273,0.007245,-0.035651,0.007391,-0.005629,-0.000329,0.046652,0.288982,-0.956197,-0.046668945714276655
1760643943.99405,-0.14867,-0.002914,0.176057,0.973084,-0.057618,0.014103,-0.013955,0.009048,-0.011887,-0.001235,0.046677,0.290363,-0.955777,-0.04669398747741753
1760643943.994633,-0.14917,-0.002853,0.176057,0.973008,-0.033877,0.005983,0.010289,0.006497,-0.004375,-0.010846,0.046972,0.291292,-0.95548,-0.04698930353631954
1760643944.024954,-0.149494,-0.002853,0.176191,0.972934,-0.034204,-0.000954,0.013082,0.00475,-0.000905,-0.001614,0.047127,0.291901,-0.955287,-0.04714445249888452
1760643944.065614,-0.149798,-0.002797,0.176293,0.972869,-0.028113,0.006155,0.010191,0.00561,-0.004387,0.003527,0.047374,0.292453,-0.955106,-0.04739172569876505
1760643944.065776,-0.150102,-0.002741,0.176395,0.972804,-0.022022,0.013264,0.007301,0.00647,-0.007869,0.008667,0.047622,0.293006,-0.954924,-0.04764001319302968
1760643944.096219,-0.150181,-0.0026,0.176446,0.972783,0.005611,0.014018,0.011786,0.006033,-0.011112,0.011024,0.047939,0.293105,-0.954878,-0.04795736442733643
1760643944.096519,-0.150002,-0.002292,0.176627,0.972778,0.028955,0.022556,0.025422,0.00358,-0.002421,0.0108,0.04853,0.292647,-0.954988,-0.04854908150456125
1760643944.126795,-0.149785,-0.001967,0.176849,0.972772,0.019693,0.005272,0.021787,-0.002929,0.012128,-0.00446,0.049152,0.292109,-0.955121,-0.049171819852232054
1760643944.156536,-0.14971,-0.002063,0.177056,0.972745,-0.012581,-0.030898,0.019393,-0.000971,0.015787,-0.001966,0.049001,0.291991,-0.955165,-0.04902063011172837
1760643944.156832,-0.149866,-0.002411,0.177319,0.972673,-0.040548,-0.035006,0.024613,0.001441,0.011671,0.001297,0.048457,0.292396,-0.955069,-0.04847597636744729
1760643944.185307,-0.150284,-0.002877,0.177632,0.97255,-0.067614,-0.057754,0.025349,-0.003006,0.008144,-0.006618,0.047794,0.29334,-0.954813,-0.04781220278293582
1760643944.21598,-0.15084,-0.003666,0.17812,0.972372,-0.066462,-0.085386,0.052865,-0.003007,0.00229,-0.003654,0.046606,0.29465,-0.954468,-0.04662289103322164
1760643944.217351,-0.15138,-0.004609,0.178808,0.972158,-0.064953,-0.085671,0.062773,0.003421,-0.000831,0.009559,0.045175,0.295979,-0.954126,-0.04519036202877534
1760643944.247285,-0.152044,-0.005295,0.179438,0.971935,-0.085184,-0.039185,0.035338,0.006544,0.004979,0.010364,0.044273,0.297454,-0.953709,-0.04428747961705355
1760643944.248589,-0.152867,-0.005723,0.179708,0.971753,-0.083986,-0.028319,0.011217,0.000772,-0.000586,-0.002024,0.04382,0.299155,-0.953198,-0.04383402861997378
1760643944.287333,-0.153569,-0.006144,0.179723,0.971637,-0.06906,-0.026831,-0.011406,0.000613,-0.004299,-0.005575,0.04326,0.300636,-0.952758,-0.04327347755139574
1760643944.289457,-0.154079,-0.006485,0.179552,0.971586,-0.043484,-0.023814,-0.030429,-0.000729,-0.001461,-0.007245,0.04273,0.30173,-0.952435,-0.04274302931442051
1760643944.326014,-0.154379,-0.006858,0.17924,0.971593,-0.023056,-0.035524,-0.0423,-0.000936,0.004628,-0.007137,0.042016,0.302446,-0.95224,-0.04202837310949065
1760643944.332983,-0.154461,-0.00729,0.17883,0.971653,-0.009606,-0.041063,-0.052654,-0.000262,0.003071,-0.002195,0.041078,0.302771,-0.952178,-0.041089548466685936
1760643944.36305,-0.154373,-0.007698,0.178306,0.97176,0.005892,-0.029381,-0.05666,0.00152,0.000865,0.004434,0.04009,0.302772,-0.95222,-0.0401007261309721
1760643944.398315,-0.154187,-0.007948,0.177807,0.971878,0.022662,-0.011363,-0.056517,0.001674,-0.000708,0.007769,0.039382,0.302529,-0.952326,-0.039392195883582753
1760643944.398506,-0.153833,-0.008017,0.177335,0.97202,0.048041,0.001062,-0.040572,0.00101,0.000849,0.007528,0.038974,0.301902,-0.952542,-0.038983872475619644
1760643944.427547,-0.153332,-0.007905,0.17698,0.972165,0.060112,0.013369,-0.028283,-0.000415,0.003192,0.003815,0.038903,0.300927,-0.952854,-0.0389127953090401
1760643944.42971,-0.152818,-0.007681,0.176691,0.9723,0.054375,0.0083,-0.024426,-0.001539,0.00574,0.002215,0.039067,0.299885,-0.953175,-0.039076947806328755
1760643944.459058,-0.152428,-0.007526,0.176385,0.972418,0.041447,0.009024,-0.027343,-0.000132,0.000492,0.00019,0.039135,0.299102,-0.953418,-0.03914500743236739
1760643944.48975,-0.152042,-0.007448,0.176116,0.972528,0.044051,0.012999,-0.020634,0.00314,-0.004284,0.010049,0.039067,0.298353,-0.953656,-0.039076934413804984
1760643944.4909,-0.151701,-0.007236,0.175866,0.972628,0.043599,0.02659,-0.020658,0.005152,-0.002729,0.00788,0.039282,0.297642,-0.953869,-0.039292111407235125
1760643944.522322,-0.151375,-0.006908,0.175635,0.972723,0.042716,0.032736,-0.015564,0.006383,-0.004965,0.003755,0.039734,0.296918,-0.954076,-0.039744460660643556
1760643944.555189,-0.15101,-0.006523,0.175501,0.972807,0.047197,0.029184,-0.007835,0.001028,-0.004185,-0.00362,0.040314,0.296096,-0.954307,-0.040324929652066306
1760643944.555481,-0.150631,-0.006239,0.175356,0.972893,0.039098,0.012402,-0.007898,0.0018,-0.00652,-0.00809,0.040688,0.295284,-0.954543,-0.04069922492484293
1760643944.583994,-0.150263,-0.006145,0.175325,0.972957,0.037328,-0.0167,-0.000961,0.001964,-0.012156,-0.006744,0.040733,0.294553,-0.954767,-0.04074425861119318
1760643944.587491,-0.149918,-0.006297,0.175377,0.972999,0.02466,-0.033479,0.012807,0.000767,-0.010735,-0.004566,0.040331,0.293948,-0.95497,-0.04034194738290533
1760643944.621432,-0.149631,-0.006666,0.175663,0.972989,0.008076,-0.057828,0.026479,-0.001063,-0.006345,-0.006447,0.039598,0.293521,-0.955132,-0.039608361214538625
1760643944.652452,-0.14962,-0.007374,0.175968,0.972931,-0.040649,-0.0818,0.020524,-0.001844,-6.3e-05,-0.004665,0.038309,0.293735,-0.955119,-0.0383183738779762
1760643944.654508,-0.150009,-0.008299,0.176238,0.972815,-0.087258,-0.088981,0.005705,-0.000728,-0.000234,0.001395,0.036727,0.294788,-0.954857,-0.036735248313117
1760643944.682872,-0.150746,-0.009299,0.176393,0.972664,-0.108834,-0.080194,-0.001538,0.002205,-0.002866,0.007415,0.035092,0.29653,-0.954378,-0.035099226406353976
1760643944.689503,-0.151579,-0.010134,0.176463,0.972513,-0.101523,-0.054384,-0.004081,-0.002243,-0.002948,0.005404,0.033786,0.298402,-0.953842,-0.033792434294724456
1760643944.732212,-0.152297,-0.010753,0.176536,0.972381,-0.078276,-0.046497,0.000349,-0.006684,0.001409,0.000256,0.032861,0.299978,-0.95338,-0.03286691585442788
1760643944.762337,-0.152706,-0.011241,0.176531,0.972312,-0.058239,-0.040529,-0.012185,-0.006845,0.004652,0.002586,0.032054,0.300925,-0.953109,-0.03205949027787066
1760643944.792144,-0.153012,-0.011676,0.176424,0.972279,-0.039145,-0.032311,-0.016554,-0.006214,0.004664,0.004778,0.031285,0.30166,-0.952902,-0.0312901098711726
1760643944.794159,-0.153261,-0.012056,0.176286,0.97226,-0.029997,-0.027602,-0.019413,-0.006063,0.006835,0.002944,0.030592,0.302269,-0.952732,-0.030596763255534343
1760643944.822729,-0.153447,-0.012376,0.176114,0.972257,-0.016664,-0.022336,-0.019476,-0.006425,0.008507,0.000648,0.029983,0.30274,-0.952601,-0.029987506874819464
1760643944.824803,-0.153535,-0.012688,0.175939,0.972271,-0.00371,-0.019844,-0.019767,-0.004597,0.008881,0.00102,0.029352,0.303019,-0.952532,-0.02935622707531258
1760643944.853935,-0.153511,-0.012873,0.175732,0.97231,0.011472,-0.003723,-0.020573,-0.002244,0.009923,0.002013,0.02892,0.303045,-0.952537,-0.02892404184830421
1760643944.884958,-0.153385,-0.012892,0.175501,0.972371,0.02625,0.005858,-0.018579,-0.003509,0.007004,0.000518,0.028768,0.30282,-0.952613,-0.028771982801857082
1760643944.886944,-0.15308,-0.01283,0.175327,0.972452,0.044685,0.005982,-0.011152,-0.00517,0.004485,-0.002164,0.028725,0.302225,-0.952804,-0.02872894401663747
1760643944.915212,-0.15263,-0.012792,0.175265,0.972534,0.059504,-0.004095,0.000764,-0.006619,0.001534,-0.001101,0.02862,0.30136,-0.953081,-0.028623903607527177
1760643944.953443,-0.152066,-0.01278,0.175366,0.972604,0.068186,-0.008465,0.016462,-0.006318,-0.001078,0.002962,0.028475,0.300283,-0.953425,-0.028478850354739314
1760643944.955675,-0.151422,-0.01274,0.17565,0.972654,0.074873,-0.005176,0.036525,-0.004762,-0.005293,0.007408,0.028411,0.299039,-0.953818,-0.028414819485887713
1760643944.985936,-0.150726,-0.012583,0.176118,0.97268,0.079544,0.010632,0.056947,-0.001877,-0.006599,0.010641,0.028613,0.297649,-0.954247,-0.028616891846866478
1760643944.987343,-0.150012,-0.012221,0.176715,0.972686,0.079109,0.027253,0.068853,-0.000387,-0.003342,0.007549,0.029244,0.296149,-0.954694,-0.02924816880341863
1760643945.017188,-0.149334,-0.011749,0.177352,0.972681,0.075113,0.033889,0.06923,-1.2e-05,-0.001903,0.003917,0.030113,0.294676,-0.955123,-0.03011754261350981
1760643945.040668,-0.148734,-0.011245,0.177951,0.972669,0.061447,0.031561,0.061087,-0.000865,0.000756,3e-05,0.031059,0.29334,-0.955503,-0.03106401127470817
1760643945.070941,-0.148278,-0.010859,0.178422,0.972657,0.043066,0.019511,0.043972,-0.000412,0.003068,-0.001239,0.031789,0.292323,-0.955791,-0.0317943610197574
1760643945.071189,-0.148006,-0.010582,0.178763,0.972639,0.021221,0.015695,0.027408,0.000544,0.003228,0.000719,0.03233,0.291696,-0.955964,-0.032335651599968596
1760643945.100031,-0.147901,-0.010414,0.178953,0.972622,0.005749,0.012164,0.011557,0.000867,0.004043,0.002366,0.032678,0.29143,-0.956034,-0.03268381367456719
1760643945.129272,-0.147974,-0.010295,0.178982,0.972606,-0.012942,0.015333,-0.001072,0.00156,0.001856,0.001289,0.032944,0.291527,-0.955995,-0.03294996627527138
1760643945.131835,-0.148217,-0.010216,0.178909,0.972584,-0.023835,0.012893,-0.007885,0.000124,-0.002894,-0.000268,0.033163,0.291962,-0.955855,-0.03316907548083141
1760643945.160676,-0.148475,-0.01017,0.178848,0.972556,-0.018331,0.006556,0.000557,-0.000754,-0.00594,-0.003951,0.033328,0.292439,-0.955703,-0.033334180490756364
1760643945.18063,-0.148614,-0.010166,0.178906,0.972524,-0.004586,-0.002151,0.012155,-0.000761,-0.00681,-0.002288,0.033403,0.292699,-0.955621,-0.033409215402592105
1760643945.210143,-0.148601,-0.01014,0.17909,0.972493,0.011604,0.002775,0.019308,-0.000316,-0.006265,0.002955,0.033504,0.292658,-0.95563,-0.033510272651888134
1760643945.215688,-0.148364,-0.009989,0.179328,0.972487,0.037429,0.010364,0.026419,0.000424,-0.005032,0.003665,0.033783,0.292146,-0.955777,-0.033789425114461306
1760643945.245941,-0.14788,-0.009713,0.179595,0.972514,0.059987,0.022274,0.029062,0.000348,-0.000982,0.005037,0.034225,0.291119,-0.956074,-0.03423170023540153
1760643945.246273,-0.147238,-0.009261,0.179844,0.972569,0.075938,0.035238,0.025068,-0.000227,0.001867,0.004514,0.034947,0.28973,-0.95647,-0.0349541238606535
1760643945.289674,-0.14652,-0.008695,0.180018,0.972651,0.083102,0.042661,0.020069,0.000818,0.00357,0.002495,0.035838,0.288156,-0.956913,-0.035845662805112935
1760643945.291843,-0.145791,-0.008107,0.180101,0.97275,0.080092,0.043078,0.010308,0.000158,0.005586,0.000926,0.036741,0.286557,-0.957358,-0.0367492866690965
1760643945.320303,-0.145195,-0.007589,0.180093,0.972845,0.061517,0.038337,-0.00135,0.000576,0.00548,-0.001008,0.037531,0.285239,-0.957721,-0.037539828167541714
1760643945.322437,-0.144802,-0.007176,0.179969,0.97293,0.039769,0.031727,-0.012061,0.001415,0.001943,-0.001386,0.038156,0.284348,-0.957962,-0.03816524810151613
1760643945.351342,-0.144558,-0.006899,0.179816,0.972996,0.025112,0.021318,-0.013169,0.001734,-0.002925,-0.001378,0.038562,0.283789,-0.958111,-0.03857156521364617
1760643945.382826,-0.144432,-0.006703,0.179693,0.973039,0.01617,0.013442,-0.007491,0.001719,-0.005918,-0.000508,0.038862,0.283484,-0.958189,-0.03887179648983068
1760643945.384923,-0.144363,-0.006576,0.179652,0.973058,0.011421,0.009739,0.00313,0.001875,-0.009241,0.000344,0.039073,0.283311,-0.958232,-0.03908294137358754
1760643945.402854,-0.144307,-0.006477,0.179751,0.973048,0.00335,0.00529,0.016001,-0.000174,-0.008434,-0.000286,0.039274,0.283163,-0.958267,-0.03928411564264004
1760643945.431793,-0.144309,-0.006411,0.179954,0.973011,-0.006502,-0.000435,0.025895,-0.001341,-0.005242,-0.000246,0.039463,0.283137,-0.958267,-0.039473259226148014
