timestamp,quat_x,quat_y,quat_z,quat_w,rot_x,rot_y,rot_z,acc_x,acc_y,acc_z,grav_x,grav_y,grav_z,pitch_rad
1760733870.901177,-0.058232,0.404428,-0.0,0.912714,0.000605,-0.002314,-0.008094,-1.011392,-0.009773,-0.289249,0.738254,0.106298,-0.666094,-0.8304784826436177
1760733870.901489,-0.081102,-0.061288,-0.221109,0.969937,2e-06,-0.005396,-0.010598,-0.117777,-0.034379,0.02355,-0.154756,0.130224,-0.979333,0.1553804078157785
1760733870.940321,-0.082501,-0.12169,-0.246085,0.958033,-0.002221,-0.008145,-0.013762,-0.000203,-0.000917,0.002813,-0.273771,0.098184,-0.95677,0.2773117227814911
1760733870.940675,-0.082493,-0.12171,-0.24616,0.958012,-0.003428,-0.006255,-0.015469,-1e-06,0.001244,0.002736,-0.273812,0.098138,-0.956763,0.2773543480728493
1760733870.970451,-0.08194,-0.121691,-0.246445,0.957988,-0.002217,-0.000108,-0.008346,0.000422,0.002553,0.00253,-0.273544,0.097015,-0.956954,0.2770757566617741
1760733870.978268,-0.081375,-0.122022,-0.246656,0.95794,-0.002591,0.002316,-0.004727,-0.00127,0.002609,0.000383,-0.273923,0.09571,-0.956978,0.2774695341970755
1760733871.027586,-0.081807,-0.12194,-0.246655,0.957914,-0.005824,0.002808,-0.004673,-0.000662,0.00211,0.000782,-0.273972,0.096574,-0.956877,0.27752052869607485
1760733871.027925,-0.082239,-0.121858,-0.246654,0.957888,-0.009057,0.0033,-0.00462,-5.4e-05,0.00161,0.001181,-0.274021,0.097438,-0.956775,0.27757158027578077
1760733871.059042,-0.082533,-0.12182,-0.246689,0.957858,-0.013845,0.004058,-0.003229,0.000396,0.002099,0.00061,-0.274092,0.098006,-0.956697,0.27764531029478273
1760733871.059195,-0.082827,-0.121782,-0.246724,0.957829,-0.018634,0.004816,-0.001839,0.000846,0.002589,3.9e-05,-0.274163,0.098574,-0.956618,0.2777192193847578
1760733871.088591,-0.083188,-0.121611,-0.24681,0.957797,-0.012112,0.001651,-0.004244,0.001765,0.001545,0.002744,-0.274021,0.099325,-0.956581,0.2775715659272899
1760733871.118925,-0.083211,-0.121628,-0.246844,0.957784,-0.006479,-0.001201,-0.004171,0.002001,0.003283,0.002816,-0.274067,0.099351,-0.956565,0.2776194301927932
1760733871.119248,-0.083234,-0.121645,-0.246878,0.957771,-0.000846,-0.004052,-0.004098,0.002237,0.005021,0.002887,-0.274114,0.099376,-0.956549,0.27766828427633705
1760733871.161296,-0.083328,-0.121622,-0.246903,0.957759,-0.002614,-0.004141,0.001822,0.000739,0.003881,0.003272,-0.274117,0.099558,-0.956529,0.27767146232004425
1760733871.161671,-0.083358,-0.121597,-0.24689,0.957763,-0.003816,-0.004448,0.002332,0.000674,0.002844,0.001615,-0.274082,0.099631,-0.956531,0.2776351853331728
1760733871.191315,-0.083623,-0.121477,-0.246822,0.957773,-0.004732,-0.002011,-0.001465,0.00022,0.001332,0.00132,-0.273974,0.100216,-0.956501,0.27752283973316993
1760733871.229854,-0.083948,-0.121426,-0.246818,0.957752,-0.011657,-0.000471,-0.005963,0.000228,0.001378,0.001365,-0.274032,0.100863,-0.956417,0.27758297723410286
1760733871.284902,-0.084035,-0.1214,-0.246849,0.95774,-0.010602,0.00052,-0.004559,0.000302,0.001521,0.001208,-0.274028,0.101032,-0.9564,0.27757890206293107
1760733871.28523,-0.084121,-0.121375,-0.24688,0.957728,-0.009547,0.001511,-0.003154,0.000377,0.001665,0.001051,-0.274023,0.101201,-0.956384,0.2775735844441197
1760733871.285866,-0.084208,-0.121349,-0.246911,0.957715,-0.008492,0.002501,-0.00175,0.000452,0.001808,0.000894,-0.274019,0.10137,-0.956367,0.2775694928360015
1760733871.286197,-0.084295,-0.121323,-0.246941,0.957703,-0.007437,0.003492,-0.000345,0.000526,0.001952,0.000736,-0.274015,0.101539,-0.95635,0.27756539300621746
1760733871.315349,-0.084439,-0.121211,-0.246918,0.957711,-0.003621,0.001471,0.002424,0.001538,0.000807,0.002294,-0.273869,0.101878,-0.956356,0.2774135226325832
1760733871.323144,-0.084514,-0.121157,-0.24686,0.957726,-0.00666,-0.001217,0.003005,0.000491,0.001263,0.001552,-0.273797,0.102064,-0.956357,0.2773386023064115
1760733871.352143,-0.084628,-0.121101,-0.24683,0.957731,-0.006462,0.000744,0.003899,0.000392,0.000884,0.000234,-0.273741,0.102319,-0.956345,0.2772805909035234
1760733871.358356,-0.084768,-0.12101,-0.246781,0.957742,-0.007049,0.006692,0.005571,1e-06,3e-06,1e-06,-0.273632,0.102646,-0.956342,0.2771670332074062
1760733871.388398,-0.084835,-0.120951,-0.24676,0.957749,-0.007227,0.003863,0.001033,0.000179,-0.001029,0.00101,-0.273549,0.10281,-0.956348,0.2770807757159086
1760733871.420347,-0.084888,-0.120902,-0.24675,0.957753,-0.006194,0.002827,-0.001211,0.000222,-0.001277,0.001253,-0.27348,0.102938,-0.956354,0.2770090307912031
1760733871.42068,-0.08494,-0.120852,-0.246741,0.957757,-0.005162,0.00179,-0.003456,0.000264,-0.001525,0.001495,-0.273411,0.103066,-0.95636,0.2769372813142449
1760733871.450681,-0.085004,-0.120848,-0.246911,0.957708,-0.005985,-0.004029,-0.007713,0.002569,-0.000548,0.001318,-0.273452,0.103141,-0.95634,0.2769799578306738
1760733871.494741,-0.085066,-0.120857,-0.247023,0.957673,-0.009938,-0.005418,-0.001255,0.001028,0.000384,0.000838,-0.27351,0.103222,-0.956315,0.2770401680161569
1760733871.496819,-0.08509,-0.120842,-0.246999,0.957679,-0.001275,-0.004646,0.004974,0.000193,0.000293,0.002478,-0.27349,0.103282,-0.956314,0.27701944097421344
1760733871.525411,-0.085052,-0.120875,-0.246926,0.957697,0.005389,-0.004772,0.008598,-0.00078,0.000167,0.001603,-0.273526,0.103214,-0.956311,0.2770568804454246
1760733871.525754,-0.085015,-0.120908,-0.246853,0.957715,0.012053,-0.004899,0.012223,-0.001753,4.1e-05,0.000728,-0.273562,0.103147,-0.956308,0.27709428929624574
1760733871.559693,-0.084997,-0.120876,-0.246769,0.957742,0.006085,0.002284,0.012105,-0.000742,-0.000721,-0.002176,-0.273485,0.103154,-0.956329,0.2770143094772434
1760733871.559997,-0.08498,-0.120844,-0.246686,0.957769,0.000116,0.009467,0.011987,0.00027,-0.001484,-0.005081,-0.273407,0.103161,-0.956351,0.27693309588261933
1760733871.61792,-0.085126,-0.120437,-0.246483,0.957859,-0.013631,0.020801,0.011737,0.001535,0.00021,0.001441,-0.272688,0.103706,-0.956497,0.27618578379907816
1760733871.618271,-0.085195,-0.120267,-0.246448,0.957884,-0.012005,0.012975,0.004369,0.001851,-0.002768,0.006894,-0.272395,0.103935,-0.956555,0.2758814258337202
1760733871.618574,-0.085264,-0.120096,-0.246412,0.957908,-0.010378,0.005149,-0.003,0.002168,-0.005746,0.012347,-0.272103,0.104164,-0.956614,0.27557774543389335
1760733871.654811,-0.08544,-0.120023,-0.246625,0.957847,-0.017701,-0.002156,-0.012899,0.003962,0.001044,0.003874,-0.27207,0.104475,-0.956589,0.2755435790142435
1760733871.68607,-0.085638,-0.119962,-0.246813,0.957788,-0.008877,0.002963,-0.001226,0.001837,0.005913,0.000805,-0.27207,0.10483,-0.95655,0.2755436227175536
1760733871.686427,-0.085644,-0.119967,-0.246785,0.957794,-0.003613,0.001198,0.005272,0.001342,0.005589,0.003079,-0.272078,0.104847,-0.956546,0.27555189883351644
1760733871.715473,-0.085615,-0.119944,-0.246704,0.957821,0.003234,-0.000333,0.009893,0.0008,0.005278,0.002462,-0.272013,0.104826,-0.956567,0.2754842937910222
1760733871.755751,-0.085511,-0.119981,-0.246472,0.957885,0.018862,-0.006308,0.011605,-4e-05,0.002925,-0.000152,-0.272008,0.104676,-0.956585,0.27547905670059825
1760733871.756079,-0.085474,-0.120028,-0.246338,0.957917,0.012013,-0.007016,0.006264,0.00051,0.001616,0.000358,-0.272066,0.104619,-0.956575,0.2755392598246635
1760733871.788718,-0.085485,-0.120077,-0.246305,0.957918,0.007014,-0.006435,0.001729,0.000232,0.001017,0.000747,-0.272158,0.104624,-0.956548,0.27563494377942227
1760733871.789035,-0.085496,-0.120125,-0.246272,0.95792,0.002014,-0.005853,-0.002807,-4.6e-05,0.000418,0.001136,-0.272251,0.104629,-0.956521,0.27573158999365865
1760733871.831143,-0.085503,-0.120206,-0.246298,0.957902,0.006086,-0.009059,-0.00438,-0.000641,0.000197,0.001917,-0.27241,0.104594,-0.956479,0.27589698677660646
1760733871.831487,-0.085511,-0.120287,-0.246325,0.957885,0.010158,-0.012264,-0.005953,-0.001236,-2.3e-05,0.002699,-0.272568,0.10456,-0.956438,0.2760611207602564
1760733871.864271,-0.085431,-0.12041,-0.246394,0.957858,0.006971,-0.000862,-0.005881,0.001179,0.001795,-0.003406,-0.272771,0.104324,-0.956406,0.2762720880529527
1760733871.894788,-0.08538,-0.120406,-0.246398,0.957863,0.004675,-9.9e-05,-0.003414,0.000667,0.000972,-0.002014,-0.272739,0.104229,-0.956425,0.27623895802869686
1760733871.895116,-0.085329,-0.120401,-0.246401,0.957867,0.002379,0.000664,-0.000946,0.000156,0.00015,-0.000623,-0.272707,0.104134,-0.956445,0.2762055542291345
1760733871.896893,-0.085273,-0.120467,-0.246448,0.957852,0.0012,-0.004506,-0.003659,0.001394,-0.003243,0.003022,-0.27281,0.103981,-0.956432,0.27631268748208915
1760733871.941225,-0.085267,-0.120501,-0.246469,0.957842,0.003797,-0.005486,-0.00451,0.0007,-0.003072,0.002353,-0.272874,0.103946,-0.956418,0.2763790886195964
1760733871.941552,-0.085261,-0.120535,-0.24649,0.957833,0.006394,-0.006465,-0.005362,6e-06,-0.002901,0.001685,-0.272937,0.10391,-0.956404,0.27644455683398683
1760733871.97255,-0.085169,-0.120644,-0.246567,0.957808,0.00531,-0.00417,-0.005627,-1.1e-05,-0.000475,0.002506,-0.273107,0.103658,-0.956383,0.27662122059147604
1760733872.00199,-0.08514,-0.120684,-0.24659,0.9578,0.002992,-0.00235,-0.003171,9.3e-05,0.000334,0.002008,-0.273171,0.103574,-0.956373,0.27668797376549886
1760733872.002291,-0.08511,-0.120724,-0.246613,0.957791,0.000674,-0.00053,-0.000715,0.000197,0.001143,0.00151,-0.273235,0.103491,-0.956364,0.2767544240687194
1760733872.032711,-0.08511,-0.12064,-0.246556,0.957816,-0.008002,0.007029,0.006547,-0.000177,-0.00053,-1e-06,-0.27307,0.10355,-0.956405,0.27658283039783343
1760733872.053181,-0.085219,-0.120557,-0.246531,0.957824,-0.011509,0.004281,0.004783,0.000237,-0.000743,0.00045,-0.272962,0.103807,-0.956408,0.2764705572242388
1760733872.059346,-0.085396,-0.12047,-0.246505,0.957826,-0.004774,0.001656,0.000146,0.001048,-0.001695,0.001499,-0.272879,0.104195,-0.956389,0.27638441570066496
1760733872.08931,-0.085443,-0.120474,-0.246513,0.957819,-0.004241,0.000569,-0.001133,0.001391,-0.001004,0.001604,-0.272911,0.104282,-0.956371,0.2764175118360925
1760733872.119814,-0.085458,-0.120475,-0.246516,0.957817,-0.001767,-0.001872,-0.002351,0.001032,-0.000304,0.002505,-0.27292,0.104308,-0.956365,0.27642702876044284
1760733872.120156,-0.085473,-0.120477,-0.246518,0.957814,0.000708,-0.004313,-0.003569,0.000673,0.000396,0.003406,-0.27293,0.104335,-0.956359,0.2764374779312525
1760733872.147904,-0.085392,-0.120569,-0.246496,0.957815,0.005715,-0.005659,-0.000829,0.000629,0.001551,0.001932,-0.273064,0.10414,-0.956342,0.2765767697409236
1760733872.179053,-0.085381,-0.120619,-0.246496,0.957811,0.000414,-0.004181,0.001182,0.000441,0.00147,0.001666,-0.273151,0.104094,-0.956323,0.27666698057935535
1760733872.179221,-0.08537,-0.120668,-0.246495,0.957806,-0.004886,-0.002703,0.003193,0.000253,0.001389,0.001401,-0.273239,0.104047,-0.956303,0.27675845386584824
1760733872.209475,-0.085505,-0.120683,-0.246433,0.957808,-0.006887,-0.002739,0.003914,0.000995,0.00079,0.001831,-0.273325,0.104314,-0.956249,0.2768479481124054
1760733872.245496,-0.085647,-0.120671,-0.246392,0.957807,-0.003996,-0.004494,0.002409,0.000114,0.000689,0.000683,-0.273365,0.104602,-0.956206,0.2768895602209655
1760733872.275015,-0.08568,-0.120696,-0.246384,0.957803,-0.003161,-0.004281,0.002055,0.000152,0.000921,0.000913,-0.273425,0.104654,-0.956183,0.2769519787535571
1760733872.275355,-0.085712,-0.12072,-0.246376,0.957799,-0.002327,-0.004068,0.0017,0.000191,0.001154,0.001143,-0.273486,0.104705,-0.95616,0.2770153881161267
1760733872.307338,-0.085776,-0.120735,-0.246303,0.95781,0.001719,-0.004947,0.004708,0.000933,0.001141,0.002884,-0.273537,0.104839,-0.956131,0.27706833588425644
1760733872.31426,-0.085772,-0.120791,-0.246274,0.957811,0.002377,-0.003683,0.003322,0.000187,0.000279,0.002457,-0.273636,0.104812,-0.956106,0.2771711627145578
1760733872.346148,-0.085774,-0.120814,-0.246247,0.957815,0.00182,-0.003506,0.002142,0.000472,5e-05,0.001556,-0.273679,0.104811,-0.956093,0.2772160874641584
1760733872.346448,-0.085776,-0.120838,-0.24622,0.957819,0.001264,-0.003329,0.000962,0.000757,-0.000178,0.000655,-0.273721,0.104811,-0.956081,0.2772597485529974
1760733872.385871,-0.085772,-0.120904,-0.246233,0.957807,0.003005,-0.003336,-0.000663,0.000819,-0.000228,0.000458,-0.273845,0.104764,-0.956051,0.2773885772617425
1760733872.386184,-0.085767,-0.12097,-0.246247,0.957796,0.004746,-0.003342,-0.002288,0.000881,-0.000279,0.000261,-0.273968,0.104718,-0.956021,0.27751641377335196
1760733872.415274,-0.085747,-0.121005,-0.246253,0.957791,0.007033,-0.003953,-0.002411,0.000281,-0.000449,0.00047,-0.274027,0.104659,-0.95601,0.27757791165412515
1760733872.415623,-0.085726,-0.121041,-0.246259,0.957787,0.009321,-0.004563,-0.002535,-0.000319,-0.00062,0.000679,-0.274085,0.1046,-0.956,0.2776381744932901
1760733872.444938,-0.085617,-0.121123,-0.246333,0.957768,0.003857,-0.003222,-0.008568,0.001148,-0.001601,0.002355,-0.274196,0.10433,-0.955998,0.27775350738833465
1760733872.474213,-0.085587,-0.121176,-0.24638,0.957752,0.005486,-0.005002,-0.007043,0.000514,-0.000398,0.002197,-0.274287,0.104232,-0.955982,0.27784829488019447
1760733872.478007,-0.08552,-0.121316,-0.246463,0.957719,0.001522,-0.005975,-0.0054,0.000399,-0.000797,0.0022,-0.274528,0.104008,-0.955938,0.27809870213253113
1760733872.508035,-0.085512,-0.121377,-0.246473,0.957709,0.001481,-0.007936,-0.003413,0.000296,0.000518,0.001695,-0.274641,0.103959,-0.95591,0.2782164570185799
1760733872.537543,-0.085513,-0.121437,-0.246458,0.957705,0.002004,-0.005298,0.000408,0.000157,0.000275,0.000898,-0.274753,0.103935,-0.955881,0.2783327807323344
1760733872.53784,-0.085514,-0.121497,-0.246443,0.957701,0.002527,-0.00266,0.004229,1.8e-05,3.1e-05,0.000101,-0.274865,0.10391,-0.955851,0.2784494071542443
1760733872.584259,-0.085293,-0.121584,-0.246191,0.957775,0.01768,-0.004455,0.009932,-0.002663,-0.004935,-0.000163,-0.274897,0.103518,-0.955885,0.27848250632153965
1760733872.613097,-0.085269,-0.121521,-0.246133,0.9578,0.008876,0.006436,0.011859,-0.001773,-0.002744,-0.001091,-0.274761,0.103521,-0.955923,0.27834127167327855
1760733872.613404,-0.085246,-0.121458,-0.246075,0.957825,7.2e-05,0.017327,0.013787,-0.000884,-0.000553,-0.00202,-0.274625,0.103525,-0.955962,0.27819973422156413
1760733872.614796,-0.085264,-0.121082,-0.245944,0.957904,-0.012402,0.025839,0.004026,0.000808,-0.002417,0.002225,-0.27391,0.10379,-0.956139,0.27745605524767036
1760733872.648741,-0.085298,-0.121024,-0.245985,0.957898,-0.009212,0.010425,-0.003823,0.001262,-0.003873,0.007741,-0.273822,0.103873,-0.956155,0.2773646094583698
1760733872.681581,-0.085358,-0.121043,-0.246181,0.95784,-0.00354,-0.006078,-0.015629,0.003239,-0.001085,0.003349,-0.273907,0.103922,-0.956125,0.2774530779493375
1760733872.721075,-0.08534,-0.121063,-0.246239,0.957824,0.000411,-0.004813,-0.010939,0.002464,0.0009,0.002717,-0.273943,0.10386,-0.956122,0.27749035253426385
1760733872.721395,-0.085322,-0.121083,-0.246296,0.957809,0.004362,-0.003549,-0.00625,0.001689,0.002885,0.002084,-0.273978,0.103799,-0.956118,0.2775269070795249
1760733872.721723,-0.085303,-0.121104,-0.246354,0.957793,0.008313,-0.002284,-0.00156,0.000914,0.004871,0.001451,-0.274014,0.103737,-0.956115,0.2775641795012842
1760733872.751481,-0.085166,-0.121152,-0.246251,0.957825,0.009923,0.001045,0.009486,-0.001043,0.00392,-0.000101,-0.274029,0.103482,-0.956138,0.27757986743963975
1760733872.753474,-0.085028,-0.121204,-0.246005,0.957894,0.008347,0.000113,0.012462,0.000662,0.00269,0.001364,-0.274036,0.103263,-0.956159,0.2775873287760625
1760733872.782778,-0.085022,-0.121188,-0.245919,0.957919,0.003323,-0.000195,0.007888,-1.1e-05,0.000429,0.000898,-0.273994,0.103284,-0.956169,0.2775435940670494
1760733872.82444,-0.085096,-0.121251,-0.245884,0.957913,-0.000379,-0.005878,-0.003962,0.000866,-0.000888,0.001971,-0.274144,0.103402,-0.956114,0.2776993618793766
1760733872.844718,-0.085064,-0.121366,-0.245954,0.957883,0.007465,-0.010239,-0.007025,0.00024,-0.003099,0.003526,-0.274352,0.103262,-0.956069,0.27791578219386937
1760733872.860893,-0.08499,-0.121497,-0.246042,0.957851,0.009379,-0.011501,-0.010077,-0.000122,-0.001507,0.001699,-0.274575,0.103029,-0.95603,0.2781477203537153
1760733872.890689,-0.084884,-0.121611,-0.246108,0.957829,0.00989,-0.007214,-0.008734,-0.000913,-0.001184,0.000504,-0.274747,0.10275,-0.956011,0.2783264938326226
1760733872.920355,-0.084783,-0.121657,-0.24615,0.957821,0.008155,-0.002231,-0.006015,-0.000398,-0.000865,-0.000261,-0.274791,0.102522,-0.956023,0.27837220914003863
1760733872.920594,-0.08474,-0.121721,-0.246195,0.957805,0.00407,-0.001185,-0.00193,0.00104,-0.000701,0.000109,-0.274896,0.102395,-0.956006,0.278481530764968
1760733872.956074,-0.084685,-0.121777,-0.246229,0.957794,0.004963,-0.003474,-0.003608,0.000505,-0.002651,0.002442,-0.274979,0.102251,-0.955997,0.27856800597410647
1760733872.958291,-0.084658,-0.121845,-0.24627,0.957777,0.001156,-0.004795,-0.004808,-0.000451,-0.00214,0.002183,-0.275098,0.102153,-0.955974,0.27869157181987775
1760733872.98711,-0.084672,-0.121897,-0.246285,0.957766,-0.000162,-0.003383,-0.001689,-0.00022,-0.000259,0.002094,-0.275205,0.102149,-0.955943,0.27880304007701745
1760733872.99314,-0.084683,-0.12192,-0.246263,0.957768,-0.002087,-0.002401,0.000978,-0.000349,-2e-06,0.002506,-0.27525,0.102165,-0.955929,0.27884966557541085
1760733873.022882,-0.084702,-0.121918,-0.24624,0.957772,-0.002613,-0.001159,0.002802,-4.7e-05,0.000448,0.001318,-0.275254,0.102208,-0.955923,0.2788538951607176
1760733873.054888,-0.084724,-0.121908,-0.246217,0.957778,-0.002796,-0.000726,0.003439,-0.000227,-0.00025,0.000902,-0.275242,0.102263,-0.955921,0.27884129616786385
1760733873.05536,-0.084771,-0.121923,-0.246193,0.957777,-0.000968,-0.000251,0.00119,0.001117,-0.000486,0.000516,-0.27529,0.10235,-0.955898,0.2788911884768546
1760733873.08901,-0.084787,-0.121928,-0.246185,0.957777,-0.000781,-0.002795,-0.002272,0.001547,-0.001988,0.001822,-0.275306,0.102381,-0.955889,0.278908125089669
1760733873.09074,-0.084819,-0.121992,-0.246224,0.957756,-0.000866,-0.004578,-0.004365,0.001983,-0.001647,0.002274,-0.275447,0.102396,-0.955847,0.2790547336705358
1760733873.119387,-0.084847,-0.122039,-0.246265,0.957737,-0.002098,-0.004791,-0.00529,0.002345,-0.001122,0.001982,-0.275552,0.102415,-0.955815,0.2791638785094918
1760733873.149955,-0.084867,-0.12204,-0.246291,0.957729,0.001543,-0.003347,-0.002295,0.001088,0.00048,0.000678,-0.275567,0.102444,-0.955808,0.2791793641971919
1760733873.151345,-0.084872,-0.122094,-0.246303,0.957718,-0.000328,-0.002778,0.001016,0.000445,0.000618,0.000681,-0.275672,0.102423,-0.95578,0.2792885873437989
1760733873.171831,-0.084896,-0.122107,-0.246264,0.957725,-0.001393,-0.003405,0.003045,0.000906,0.000919,0.001236,-0.275703,0.102472,-0.955765,0.2793210580429785
1760733873.201907,-0.084943,-0.12213,-0.246235,0.957725,-0.002611,-0.005263,0.005537,0.000457,0.001223,0.001322,-0.275766,0.102559,-0.955738,0.27938645973525045
1760733873.232573,-0.08503,-0.122137,-0.246179,0.957731,-0.009519,-0.00469,0.006252,0.000368,0.000824,-7e-06,-0.275814,0.102737,-0.955705,0.27943640485085347
1760733873.2329,-0.08519,-0.122128,-0.246123,0.957732,-0.010203,-0.004077,0.005794,0.000199,0.000734,0.000451,-0.275866,0.103061,-0.955655,0.27949053268414564
1760733873.273552,-0.085323,-0.122163,-0.246073,0.957729,-0.007136,-0.00303,0.004241,0.000218,0.001163,0.00106,-0.27599,0.10331,-0.955592,0.2796196259984001
1760733873.274849,-0.085383,-0.122165,-0.246041,0.957731,-0.003238,-0.002666,0.003229,0.000149,0.000847,0.000808,-0.276018,0.103433,-0.955571,0.27964864971766895
1760733873.304128,-0.085443,-0.122185,-0.246014,0.95773,-0.001506,-0.001714,0.001981,0.000278,0.001662,0.001637,-0.276081,0.103545,-0.955541,0.27971410609665814
1760733873.311966,-0.085454,-0.122206,-0.245993,0.957732,-0.00093,-0.001398,0.001566,2.8e-05,0.001056,0.001911,-0.276123,0.10356,-0.955527,0.2797578701894165
1760733873.342163,-0.085497,-0.122232,-0.24597,0.957731,-0.00342,-0.004308,0.003045,2.2e-05,0.001318,0.002459,-0.27619,0.103635,-0.955499,0.2798277195720569
1760733873.37183,-0.085567,-0.12225,-0.245931,0.957732,-0.002425,-0.003917,0.003744,0.001249,0.000994,0.00285,-0.276253,0.103771,-0.955466,0.27989327718014223
1760733873.372067,-0.085655,-0.122304,-0.245902,0.957725,-0.004635,-0.005886,0.006515,-0.00049,0.000622,0.002662,-0.276394,0.103918,-0.95541,0.2800397818055261
1760733873.401219,-0.08574,-0.122332,-0.245861,0.957724,-0.00572,-0.004443,0.005374,-6e-06,0.001132,0.001787,-0.27648,0.104077,-0.955367,0.2801294911445406
1760733873.432358,-0.085808,-0.12236,-0.245832,0.957722,-0.002008,-0.002372,0.000819,-2e-06,0.000367,0.000579,-0.276562,0.104201,-0.95533,0.28021474917327055
1760733873.434477,-0.08582,-0.122384,-0.24581,0.957724,0.001575,-0.007421,-0.000956,-0.000361,-0.000256,0.001571,-0.27661,0.104218,-0.955314,0.28026476606399536
1760733873.471202,-0.085813,-0.122461,-0.245793,0.957719,0.004722,-0.006756,-0.000391,0.001125,-0.000496,0.000717,-0.276751,0.10417,-0.955279,0.2804113284144083
1760733873.473462,-0.085809,-0.12254,-0.24579,0.95771,0.002346,-0.009366,-0.00249,0.000218,-0.000113,0.001156,-0.276899,0.104122,-0.955241,0.28056544212980444
1760733873.502424,-0.085807,-0.122621,-0.245792,0.957699,0.003449,-0.006865,0.000766,0.000302,0.001372,0.001763,-0.277049,0.104076,-0.955203,0.2807214170901487
1760733873.532532,-0.085819,-0.122746,-0.245783,0.957684,0.000555,-0.007961,0.000449,-0.000528,0.000644,0.000454,-0.27729,0.104038,-0.955137,0.28097230114889055
1760733873.534521,-0.08582,-0.122806,-0.245738,0.957688,0.001636,-0.005994,0.001496,-0.000388,-0.000221,0.000609,-0.277397,0.104021,-0.955108,0.28108360978110936
1760733873.563365,-0.085818,-0.12288,-0.245727,0.957682,0.001824,-0.006314,0.000893,3.4e-05,0.000874,0.001127,-0.277535,0.103983,-0.955072,0.28122726268176174
1760733873.591511,-0.085816,-0.122958,-0.245726,0.957672,0.005279,-0.005549,-0.000739,0.0006,-0.001423,0.001969,-0.277682,0.10394,-0.955034,0.2813802636412079
1760733873.591816,-0.08578,-0.123024,-0.245716,0.957669,0.008436,-0.007001,0.000112,0.000283,-0.005483,0.002805,-0.277787,0.103839,-0.955014,0.28148968838308674
1760733873.625114,-0.085695,-0.123125,-0.245694,0.95767,0.009425,-0.007456,0.000379,-0.001116,-0.005316,0.000868,-0.277936,0.103634,-0.954993,0.2816447731304333
1760733873.631964,-0.085643,-0.123182,-0.24569,0.957668,0.003495,0.005529,0.003675,0.000835,-2.8e-05,-0.003491,-0.278018,0.103506,-0.954983,0.28173014121609385
1760733873.661975,-0.085617,-0.123068,-0.245625,0.957701,-0.004776,0.014719,0.010224,0.001309,0.002661,-0.002017,-0.277783,0.103534,-0.955048,0.28148560098093145
1760733873.692236,-0.085651,-0.122905,-0.245539,0.957742,-0.007145,0.01246,0.009627,0.001537,0.001444,0.00243,-0.277483,0.103707,-0.955117,0.28117316927444874
1760733873.692579,-0.085713,-0.122859,-0.245509,0.95775,-0.005882,-0.003036,0.002721,0.00202,-0.002105,0.007904,-0.277423,0.103857,-0.955118,0.2811107534041485
1760733873.720775,-0.085817,-0.122921,-0.245512,0.957732,-0.00785,-0.012059,-0.002463,0.003424,-0.002087,0.004371,-0.277589,0.104023,-0.955052,0.28128345757742934
1760733873.751513,-0.085908,-0.123042,-0.245528,0.957704,-0.005293,-0.01384,-0.00361,0.001835,0.000114,0.002385,-0.277861,0.104129,-0.954961,0.2815666920835647
1760733873.752482,-0.085949,-0.123181,-0.245522,0.957684,0.00221,-0.012569,0.002842,0.001057,0.003424,0.00014,-0.278141,0.104138,-0.954878,0.28185832162416324
1760733873.785107,-0.085944,-0.123278,-0.245423,0.957697,0.007835,-0.00822,0.010004,0.000487,0.005555,-0.000647,-0.278312,0.104106,-0.954832,0.2820362579537528
1760733873.789771,-0.085879,-0.123363,-0.24527,0.957731,0.010065,-0.008112,0.015244,-0.001084,0.004623,-4e-05,-0.278425,0.103983,-0.954813,0.2821537584302419
1760733873.834964,-0.085812,-0.123434,-0.245084,0.957776,0.008166,-0.007223,0.016378,-0.000323,0.001378,-1.2e-05,-0.278507,0.103875,-0.9548,0.28223936812645223
1760733873.836933,-0.085817,-0.123532,-0.244914,0.957806,0.004974,-0.010167,0.008603,-0.00055,-0.000465,0.000954,-0.278674,0.103882,-0.954751,0.2824131165448658
1760733873.868391,-0.085842,-0.123648,-0.244866,0.957801,0.003465,-0.011867,-0.000634,-0.000122,-0.001178,0.002309,-0.2789,0.103885,-0.954685,0.28264835776533337
1760733873.868675,-0.08583,-0.123807,-0.244874,0.95778,0.009649,-0.019711,-0.004953,0.001684,-0.002982,0.006991,-0.279194,0.103778,-0.95461,0.28295471359244767
1760733873.906192,-0.085799,-0.124031,-0.244931,0.957739,0.009091,-0.02637,-0.009344,-8e-05,-0.003771,0.004088,-0.279607,0.103588,-0.95451,0.2833847748996794
1760733873.908606,-0.085773,-0.124258,-0.245015,0.95769,0.004444,-0.013459,-0.007123,0.001119,0.001091,-0.00121,-0.280032,0.103397,-0.954406,0.2838274903287274
1760733873.941284,-0.08577,-0.124387,-0.245014,0.957674,0.000759,-0.007876,0.002003,0.000555,0.000758,-0.000835,-0.280274,0.103326,-0.954343,0.2840794882696994
1760733873.970473,-0.085818,-0.12445,-0.244967,0.957674,-0.003774,-0.011295,0.006376,9.3e-05,0.000757,0.00121,-0.28041,0.103399,-0.954295,0.284221209177945
1760733873.972518,-0.085905,-0.124582,-0.24491,0.957663,-0.005875,-0.015132,0.006674,-0.000663,-0.001106,0.001802,-0.280694,0.103513,-0.954199,0.28451713223093017
1760733874.004805,-0.086004,-0.124735,-0.244849,0.95765,-0.004882,-0.016775,0.005039,1e-06,-0.001421,0.001599,-0.28102,0.10364,-0.954089,0.2848568751261291
1760733874.009482,-0.08609,-0.124846,-0.244802,0.95764,-0.00275,-0.013701,0.000679,0.000192,-0.001511,0.001541,-0.281266,0.103761,-0.954004,0.28511303418661266
1760733874.038402,-0.086129,-0.124983,-0.244777,0.957625,-0.000368,-0.012368,-0.001322,0.000246,-0.001537,0.001524,-0.281539,0.103772,-0.953922,0.28539760713708956
1760733874.068449,-0.086147,-0.125123,-0.24479,0.957602,0.001564,-0.008233,-0.001887,0.000494,-0.001099,0.001031,-0.281811,0.103732,-0.953846,0.28568109391126545
1760733874.070515,-0.086142,-0.125178,-0.24478,0.957597,-0.001278,-0.006976,0.000441,-9.3e-05,-0.000756,0.00078,-0.281912,0.103697,-0.95382,0.28578635073006303
1760733874.099035,-0.086182,-0.125273,-0.244763,0.957586,-0.000406,-0.011367,-0.000421,-0.000491,-0.001106,0.001198,-0.282107,0.103729,-0.953759,0.28598956221679844
1760733874.130076,-0.086228,-0.125373,-0.244775,0.957565,-0.002168,-0.009833,-0.001109,0.000289,-0.000976,0.000937,-0.282319,0.103762,-0.953692,0.28621073509321904
1760733874.132009,-0.086283,-0.125481,-0.244764,0.957549,-0.003759,-0.012193,-0.00032,0.000934,-0.001609,0.001469,-0.282546,0.103814,-0.95362,0.28644712009844303
1760733874.163606,-0.086368,-0.125563,-0.244744,0.957536,-0.005828,-0.01231,0.001647,0.00092,-0.000666,0.000519,-0.282739,0.103938,-0.953549,0.2866484047812351
1760733874.168424,-0.086459,-0.125698,-0.244725,0.957515,-0.009133,-0.014601,0.004928,-5.1e-05,-8.4e-05,0.00212,-0.283032,0.104049,-0.95345,0.2869538728683005
1760733874.201226,-0.086597,-0.125809,-0.244685,0.957498,-0.009574,-0.01433,0.004843,0.000264,-0.000647,0.002178,-0.283302,0.104267,-0.953346,0.28723539297593004
1760733874.230375,-0.086755,-0.125919,-0.244609,0.957489,-0.012908,-0.017427,0.008557,8.5e-05,0.000877,0.002579,-0.283574,0.104532,-0.953236,0.28751905438217584
1760733874.231568,-0.086945,-0.12606,-0.244524,0.957475,-0.015151,-0.017827,0.009343,0.000106,0.00074,0.001196,-0.283919,0.104845,-0.953099,0.28787881935558096
1760733874.288534,-0.087124,-0.126169,-0.244425,0.957469,-0.012411,-0.018922,0.009993,-2.7e-05,0.000456,0.001267,-0.284195,0.105159,-0.952982,0.2881667170623469
1760733874.288838,-0.087303,-0.126277,-0.244327,0.957464,-0.00967,-0.020017,0.010642,-0.000161,0.000172,0.001338,-0.284472,0.105472,-0.952865,0.2884555734769822
1760733874.290508,-0.08747,-0.126445,-0.244239,0.957449,-0.009328,-0.01804,0.00859,0.000124,0.001057,0.001358,-0.284857,0.10573,-0.952721,0.2888572967415686
1760733874.319148,-0.087618,-0.126582,-0.244167,0.957435,-0.00725,-0.016035,0.008274,0.000117,0.000786,0.000861,-0.285175,0.105963,-0.9526,0.2891890497599514
1760733874.3497,-0.087733,-0.126737,-0.244103,0.957421,-0.003079,-0.016703,0.002623,-0.000445,-0.000708,0.00123,-0.285513,0.106122,-0.952481,0.28954172517042503
1760733874.359717,-0.087794,-0.126936,-0.244061,0.957399,0.000413,-0.01768,0.003603,-3.3e-05,0.000323,0.000826,-0.28591,0.106148,-0.952359,0.28995599623016155
1760733874.391856,-0.087831,-0.127102,-0.244009,0.957387,0.000287,-0.017586,0.001614,0.00016,0.001103,0.001225,-0.286235,0.106149,-0.952262,0.29029496032480845
1760733874.392138,-0.087871,-0.127304,-0.24397,0.957367,0.00113,-0.018934,0.002334,-0.000114,0.000336,0.001328,-0.286628,0.106134,-0.952145,0.29070527597460577
1760733874.422377,-0.087914,-0.127454,-0.243932,0.957352,-0.00032,-0.01873,0.004315,-0.000185,0.000137,0.001354,-0.286927,0.106148,-0.952053,0.2910174934452018
1760733874.429394,-0.087973,-0.127641,-0.243881,0.957335,-0.002055,-0.018223,0.004594,-0.000203,8.6e-05,0.001361,-0.2873,0.106181,-0.951937,0.2914068388373575
1760733874.458425,-0.088036,-0.127837,-0.243825,0.957317,-0.003694,-0.01661,0.005452,-5.2e-05,2.2e-05,0.000346,-0.287692,0.106217,-0.951815,0.29181599993376
1760733874.497387,-0.088116,-0.127998,-0.243739,0.95731,-0.003329,-0.016577,0.006877,-0.000306,-0.000519,0.000781,-0.288022,0.106312,-0.951704,0.2921607525889413
1760733874.497702,-0.088195,-0.128159,-0.243653,0.957304,-0.002965,-0.016545,0.008303,-0.000561,-0.00106,0.001216,-0.288352,0.106407,-0.951594,0.2925052155908931
1760733874.526678,-0.088264,-0.128349,-0.243589,0.957288,-0.004416,-0.017112,0.007405,-0.000867,-0.001662,0.001836,-0.288734,0.106459,-0.951472,0.29290428412722275
1760733874.530516,-0.088367,-0.128462,-0.243493,0.957288,-0.005668,-0.015862,0.005923,-0.001187,-0.00228,0.002503,-0.288984,0.106625,-0.951378,0.29316527486358207
1760733874.560654,-0.088481,-0.128596,-0.243437,0.957274,-0.006699,-0.013118,0.005322,-0.001712,-0.001736,0.002039,-0.289282,0.106791,-0.951268,0.2934768033202293
1760733874.589366,-0.088644,-0.128696,-0.24337,0.957262,-0.010457,-0.016767,0.008018,-0.001584,-4.2e-05,0.003469,-0.289538,0.10707,-0.951159,0.2937441760072492
1760733874.589648,-0.088809,-0.128804,-0.243287,0.957253,-0.010204,-0.012557,0.011781,-0.000703,9.3e-05,0.002908,-0.289807,0.107353,-0.951045,0.294025275152584
1760733874.626261,-0.088936,-0.128897,-0.243186,0.957255,-0.006881,-0.011513,0.01214,-0.002622,-0.001919,0.002015,-0.29003,0.107576,-0.950952,0.2942582299943373
1760733874.62755,-0.08906,-0.128992,-0.243049,0.957265,-0.008505,-0.008239,0.013828,-0.0028,-0.00029,-0.000387,-0.290251,0.107805,-0.950859,0.2944890583283874
1760733874.658636,-0.089198,-0.128947,-0.24291,0.957294,-0.012327,0.008088,0.018254,-0.001528,0.00299,-0.003038,-0.290214,0.108132,-0.950833,0.2944504410543316
1760733874.703724,-0.089363,-0.128802,-0.242775,0.957332,-0.01677,0.004061,0.01372,-0.001278,0.001514,0.000344,-0.290003,0.10856,-0.950848,0.29423013416704
1760733874.704012,-0.089528,-0.128658,-0.24264,0.95737,-0.021213,3.4e-05,0.009186,-0.001028,3.9e-05,0.003726,-0.289793,0.108988,-0.950864,0.2940104418997371
1760733874.706057,-0.089716,-0.128675,-0.24257,0.957368,-0.01491,-0.010052,0.003273,-0.000311,-0.002203,0.006328,-0.289903,0.109357,-0.950788,0.2941254043828128
1760733874.735933,-0.089872,-0.128753,-0.242549,0.957348,-0.006302,-0.009219,0.003891,0.000189,0.001072,0.003045,-0.290119,0.10962,-0.950692,0.2943510535799666
1760733874.768518,-0.089943,-0.128811,-0.242512,0.957343,-0.001193,-0.003348,0.006378,-0.000851,0.002784,0.001516,-0.290256,0.109737,-0.950636,0.2944944106090431
1760733874.769948,-0.089974,-0.128835,-0.242439,0.957355,0.00049,-0.00103,0.005906,-0.002133,0.002406,0.00104,-0.290308,0.109804,-0.950612,0.2945488613722319
1760733874.799494,-0.089985,-0.128806,-0.242341,0.957383,0.000469,-0.003738,0.011295,-0.000929,0.00238,0.001698,-0.290248,0.109871,-0.950623,0.2944860405439944
1760733874.831023,-0.090019,-0.128862,-0.242239,0.957398,-0.003041,-0.00544,0.012043,-0.000196,0.001658,0.002495,-0.290357,0.109936,-0.950582,0.2946000029544324
1760733874.833111,-0.090086,-0.128909,-0.242133,0.957412,-0.007943,-0.00558,0.008318,-0.000545,-0.00059,0.001617,-0.290464,0.110073,-0.950534,0.2947116649993033
1760733874.867565,-0.090206,-0.128949,-0.242088,0.957407,-0.011386,-0.003698,0.005937,0.001402,0.001052,0.003252,-0.290588,0.110294,-0.95047,0.29484139314403274
1760733874.868678,-0.090374,-0.128963,-0.24202,0.957407,-0.012535,-0.013351,0.006937,-0.001258,-0.000952,0.007616,-0.290685,0.110625,-0.950402,0.2949427314952127
1760733874.902392,-0.090531,-0.129111,-0.241972,0.957384,-0.008929,-0.014511,0.005521,-0.001494,-0.00094,0.002617,-0.291029,0.110863,-0.950269,0.2953022706694359
1760733874.907337,-0.09063,-0.129155,-0.241925,0.95738,-0.005791,-0.001896,0.007113,-0.000834,0.001675,-0.002334,-0.291153,0.111044,-0.95021,0.2954318489154006
1760733874.942661,-0.090687,-0.129101,-0.241828,0.957407,-0.001378,0.003038,0.00902,-0.00115,0.000116,-9.5e-05,-0.291065,0.111207,-0.950218,0.2953398353935118
1760733874.97179,-0.090706,-0.129095,-0.241774,0.957419,-0.001132,-0.000213,0.005151,-0.000919,-0.000896,0.002118,-0.291057,0.111264,-0.950214,0.2953314091412938
1760733874.974618,-0.090746,-0.129134,-0.24173,0.957422,-0.003141,-0.007095,0.004307,-0.000959,-0.001656,0.002059,-0.291144,0.111332,-0.950179,0.29542245786074817
1760733875.00288,-0.090841,-0.129184,-0.241717,0.957409,-0.007565,-0.007234,0.001243,-0.000203,-0.000351,0.000437,-0.291279,0.111493,-0.950119,0.2955635003442055
1760733875.013167,-0.09093,-0.129247,-0.241728,0.957389,-0.006881,-0.006657,0.001915,-0.000208,-2e-05,0.001168,-0.29144,0.111625,-0.950054,0.2957318391844813
1760733875.043104,-0.091015,-0.129272,-0.241694,0.957386,-0.003151,-0.005428,0.002552,-0.001656,0.000533,0.001076,-0.291523,0.111784,-0.95001,0.295818560448685
1760733875.072722,-0.091068,-0.129319,-0.241654,0.957385,-0.004153,-0.004579,0.0046,-0.000978,0.000899,0.000641,-0.29163,0.111874,-0.949967,0.2959302948939429
1760733875.073015,-0.091105,-0.129322,-0.241594,0.957396,-0.001851,-0.000616,0.007445,-0.001745,0.000122,-0.000658,-0.291647,0.111961,-0.949951,0.2959482213563337
1760733875.101538,-0.09112,-0.129329,-0.241549,0.957405,-1.4e-05,0.002069,0.003691,-0.001432,-0.000775,-0.000259,-0.291661,0.111999,-0.949942,0.2959629220611211
1760733875.106707,-0.091154,-0.129301,-0.241536,0.957409,-0.002922,0.001392,0.000249,-0.000166,-0.001941,0.000614,-0.291622,0.112081,-0.949945,0.29592194742230793
1760733875.144854,-0.091184,-0.12926,-0.241563,0.957405,-0.003939,0.00373,-0.002875,-0.000292,-0.000885,0.000667,-0.291561,0.112151,-0.949955,0.2958583100944405
1760733875.146895,-0.091235,-0.129246,-0.241632,0.957385,-0.008541,0.005668,-0.00425,-0.000226,-0.000121,0.001225,-0.291567,0.112234,-0.949943,0.29586468566133634
1760733875.175483,-0.091311,-0.12916,-0.241686,0.957375,-0.00774,0.00197,-0.002933,0.000796,0.001446,0.003106,-0.291447,0.112404,-0.94996,0.2957391572422572
1760733875.208517,-0.091378,-0.129144,-0.241727,0.957361,-0.009054,0.001732,-0.002924,-0.000214,0.002746,0.002678,-0.291451,0.112528,-0.949944,0.29574336548354396
1760733875.210438,-0.091444,-0.129141,-0.241765,0.957346,-0.008173,0.001303,-0.000471,0.000234,0.002198,0.00217,-0.291481,0.112643,-0.949921,0.2957747750545185
1760733875.241134,-0.091558,-0.129165,-0.241783,0.957327,-0.010277,-0.003911,0.003304,0.000505,0.003206,0.003175,-0.29158,0.112841,-0.949867,0.2958783042579188
1760733875.2451,-0.091666,-0.129169,-0.241731,0.957329,-0.006051,-0.005279,0.005891,0.000465,0.002842,0.002815,-0.291632,0.113061,-0.949825,0.29593263061884656
1760733875.284445,-0.091764,-0.129231,-0.241702,0.957319,-0.008992,-0.001925,0.005628,0.000535,0.002158,0.001085,-0.291789,0.113225,-0.949757,0.2960968403220292
1760733875.288576,-0.091901,-0.129213,-0.241636,0.957325,-0.011561,-0.001806,0.006433,0.000733,0.00315,0.00187,-0.29181,0.113514,-0.949717,0.2961185206289505
1760733875.317023,-0.092026,-0.129191,-0.241583,0.957329,-0.007225,-0.003389,0.005121,5.7e-05,0.001199,0.002013,-0.291821,0.113777,-0.949682,0.29613006413138915
1760733875.347358,-0.092117,-0.1292,-0.241535,0.957331,-0.005738,-0.003904,0.000421,0.000197,0.001345,0.001484,-0.291873,0.11396,-0.949644,0.2961844533159895
1760733875.348754,-0.092194,-0.129208,-0.241522,0.957326,-0.004221,-0.000835,-0.001552,0.000129,0.000808,0.000827,-0.291922,0.114107,-0.949611,0.2962357673988839
1760733875.400214,-0.092237,-0.129236,-0.241548,0.957311,-0.002624,-0.002324,-0.0027,0.000689,0.001549,0.001757,-0.291997,0.114166,-0.949581,0.296314140258718
1760733875.400519,-0.09228,-0.129263,-0.241574,0.957297,-0.001027,-0.003813,-0.003848,0.001249,0.002291,0.002686,-0.292072,0.114225,-0.949551,0.29639251191571586
1760733875.405112,-0.092308,-0.129366,-0.241617,0.95727,-0.001997,-0.007263,-0.002932,0.001427,0.001799,0.001164,-0.292283,0.114214,-0.949487,0.29661325409376177
1760733875.441179,-0.092331,-0.129439,-0.241609,0.957259,-0.000468,-0.007235,-0.001386,0.001365,0.001143,0.000332,-0.29243,0.114222,-0.949441,0.2967669043687746
1760733875.473021,-0.092353,-0.129507,-0.241592,0.957252,-0.001151,-0.0033,0.002017,0.000234,0.000196,5.7e-05,-0.292566,0.114234,-0.949398,0.29690902461252977
1760733875.473265,-0.092384,-0.129513,-0.241535,0.957263,6e-05,-0.004274,0.001729,4e-05,3.3e-05,1e-05,-0.292584,0.114307,-0.949383,0.2969280418874567
1760733875.50245,-0.092407,-0.129569,-0.24151,0.957259,-0.000686,-0.000492,0.004828,0.001623,7.1e-05,0.000828,-0.292697,0.11433,-0.949345,0.29704633099089645
1760733875.506435,-0.092418,-0.129585,-0.241471,0.957266,-0.000653,-0.001117,0.001938,0.000224,-0.001796,0.00197,-0.292727,0.114356,-0.949333,0.29707759429339675
1760733875.541211,-0.092463,-0.129607,-0.24148,0.957257,-0.001826,-0.000825,-0.001082,0.001025,-0.001843,0.001722,-0.292789,0.114426,-0.949306,0.2971422739205142
1760733875.548217,-0.092505,-0.129623,-0.241532,0.957237,-0.004314,-0.004882,-0.006414,0.000886,-0.002371,0.002251,-0.292845,0.114482,-0.949282,0.2972008335973369
1760733875.578195,-0.092569,-0.12967,-0.241626,0.957201,-0.006637,-0.007344,-0.009835,-0.000129,-0.000902,0.000933,-0.292974,0.114552,-0.949234,0.29733567834547336
1760733875.610369,-0.092645,-0.129727,-0.241691,0.957169,-0.009414,-0.005724,-0.002617,0.000539,0.002118,0.001298,-0.293125,0.114646,-0.949175,0.2974939125188798
1760733875.610502,-0.092747,-0.129737,-0.241643,0.95717,-0.005006,-0.00341,0.005071,0.000695,0.001352,0.003785,-0.293184,0.114849,-0.949133,0.2975554013795934
1760733875.649496,-0.092774,-0.129776,-0.241514,0.957195,0.004898,-0.007363,0.016185,-0.002127,-0.002739,0.002755,-0.293254,0.11492,-0.949102,0.2976288467882444
1760733875.652906,-0.092754,-0.129806,-0.241322,0.957241,0.003462,-0.000819,0.018281,-0.001486,-0.002495,-0.002023,-0.293279,0.114925,-0.949094,0.29765490041854686
1760733875.68317,-0.092785,-0.129698,-0.241144,0.957298,-0.00479,0.016452,0.024872,-0.00068,0.002251,-0.002882,-0.293068,0.115094,-0.949139,0.2974341147231315
1760733875.721247,-0.092849,-0.12944,-0.24094,0.957378,-0.004448,0.016191,0.021787,-0.001038,-0.002923,0.002734,-0.292589,0.115409,-0.949248,0.2969333077742541
1760733875.721594,-0.092914,-0.129183,-0.240737,0.957457,-0.004106,0.01593,0.018703,-0.001396,-0.008097,0.008349,-0.29211,0.115723,-0.949358,0.2964322184242926
1760733875.726159,-0.09294,-0.129088,-0.240633,0.957494,-0.000954,0.002429,0.005046,0.000572,-0.012027,0.012037,-0.291931,0.115854,-0.949397,0.29624508437101554
1760733875.762528,-0.092888,-0.129074,-0.240586,0.957513,0.014256,0.000536,0.000526,0.000698,-0.016286,0.011535,-0.291875,0.115777,-0.949423,0.2961867113184521
1760733875.769395,-0.092587,-0.129172,-0.24055,0.957537,0.050987,-0.005006,-0.002965,-0.004037,-0.025315,0.012354,-0.291917,0.115166,-0.949485,0.296230448922857
1760733875.79975,-0.091921,-0.129418,-0.240492,0.957583,0.086913,-0.012278,-0.006847,-0.007015,-0.032086,0.009982,-0.292069,0.113795,-0.949603,0.29638953470895174
1760733875.80695,-0.09089,-0.129845,-0.240479,0.957627,0.124272,-0.022817,-0.015224,-0.009832,-0.029717,0.009117,-0.292401,0.111628,-0.949758,0.2967366964397526
1760733875.835737,-0.089496,-0.130563,-0.240435,0.957671,0.172374,-0.036082,-0.016448,-0.010477,-0.036863,0.011751,-0.293108,0.108631,-0.949888,0.29747596982393654
1760733875.866291,-0.087703,-0.131506,-0.240297,0.957743,0.209612,-0.054437,-0.017135,-0.006945,-0.042825,0.012914,-0.294047,0.104794,-0.950029,0.29845820536813455
1760733875.867517,-0.085688,-0.132604,-0.240112,0.95782,0.218095,-0.056809,-0.005753,-0.00416,-0.039334,0.013211,-0.29517,0.100468,-0.950148,0.29963338426385266
1760733875.885647,-0.083644,-0.133646,-0.239774,0.957941,0.223152,-0.045771,0.005529,-0.003276,-0.044748,0.009358,-0.296162,0.096163,-0.950285,0.3006717387678075
1760733875.914951,-0.081469,-0.134607,-0.239424,0.958081,0.245906,-0.032638,-0.003633,-0.005274,-0.046002,-0.001206,-0.296941,0.091652,-0.950487,0.30148762522587647
1760733875.942945,-0.078872,-0.135449,-0.239169,0.958243,0.298944,-0.010728,-0.023815,-0.004957,-0.053356,-0.003941,-0.297314,0.086367,-0.950865,0.3018783395474732
1760733875.944987,-0.075565,-0.136396,-0.23913,0.958385,0.369463,-0.010089,-0.061828,-0.008955,-0.056772,0.00381,-0.29758,0.079609,-0.951372,0.3021567926197592
1760733875.974831,-0.071717,-0.137627,-0.239336,0.958454,0.404889,-0.026584,-0.08372,-0.003204,-0.054167,0.011723,-0.298147,0.071596,-0.951831,0.3027507937127644
1760733876.005063,-0.067643,-0.13904,-0.239652,0.958467,0.406933,-0.053646,-0.100382,-0.000652,-0.063516,0.020901,-0.298953,0.063025,-0.952184,0.30359538029408384
1760733876.036093,-0.063911,-0.140689,-0.240046,0.958384,0.366438,-0.08715,-0.097052,0.001887,-0.060156,0.028285,-0.300351,0.05496,-0.952244,0.3050606295370124
1760733876.038156,-0.06067,-0.142542,-0.240318,0.958253,0.321821,-0.109963,-0.073204,8e-05,-0.060377,0.023824,-0.302342,0.047764,-0.952002,0.3071487050988279
1760733876.066776,-0.057734,-0.144548,-0.24055,0.958075,0.317624,-0.126963,-0.081038,-0.002559,-0.073241,0.017978,-0.304751,0.041085,-0.951546,0.3096768320876654
1760733876.068231,-0.054713,-0.146612,-0.240869,0.957859,0.342528,-0.12156,-0.095888,-0.004137,-0.076778,0.009744,-0.307224,0.034187,-0.951023,0.3122745619494654
1760733876.09864,-0.051321,-0.148626,-0.241285,0.957631,0.358255,-0.112278,-0.113449,-0.010005,-0.068053,0.010698,-0.309424,0.026571,-0.950553,0.314587207833706
1760733876.103705,-0.04814,-0.150546,-0.241858,0.957352,0.297342,-0.091797,-0.106916,-0.009538,-0.047196,0.010592,-0.311537,0.019352,-0.950037,0.3168100837865161
1760733876.147633,-0.045718,-0.151869,-0.242427,0.957118,0.190849,-0.043131,-0.088644,-0.004438,-0.042856,0.007453,-0.31288,0.013881,-0.949691,0.31822383538400667
1760733876.14944,-0.044195,-0.152433,-0.242978,0.95696,0.097214,-9.8e-05,-0.066103,-0.002503,-0.052146,0.012918,-0.313222,0.01051,-0.949622,0.3185837948818732
1760733876.177926,-0.043194,-0.152625,-0.243602,0.956816,0.053766,0.020814,-0.072643,-0.002075,-0.054433,0.014814,-0.313113,0.008298,-0.94968,0.3184689744725792
1760733876.184313,-0.042467,-0.152455,-0.244213,0.95672,0.045674,0.033381,-0.073131,-0.003148,-0.050298,0.013329,-0.312455,0.006795,-0.949908,0.31777641277005997
1760733876.214492,-0.041866,-0.152293,-0.244817,0.956618,0.026732,0.044542,-0.047122,3.8e-05,-0.027774,0.009403,-0.311872,0.005532,-0.950108,0.317162672610313
1760733876.244075,-0.041344,-0.151991,-0.245198,0.956592,0.026603,0.042325,-0.026524,0.001971,-0.022351,0.011698,-0.311062,0.004563,-0.950379,0.3163101613486531
1760733876.244469,-0.040736,-0.151627,-0.245374,0.95663,0.042432,0.064874,-0.017048,0.007282,-0.014919,0.006565,-0.310094,0.003528,-0.950699,0.315292014956629
1760733876.277345,-0.040053,-0.151053,-0.245468,0.956726,0.02841,0.070537,-0.020089,0.001472,-0.010881,0.010151,-0.308695,0.002483,-0.951158,0.31382066886357446
1760733876.284379,-0.039709,-0.150403,-0.245675,0.956789,-0.010997,0.074362,-0.014775,-0.000396,0.004668,0.014625,-0.307319,0.002086,-0.951604,0.31237448705463583
1760733876.327069,-0.039939,-0.149721,-0.245937,0.956819,-0.089169,0.067425,-0.017767,-0.00099,0.016128,0.015042,-0.306157,0.002785,-0.951977,0.311153540694729
1760733876.327315,-0.041201,-0.148603,-0.246205,0.956871,-0.226516,0.078316,0.015699,-0.002661,0.043174,0.013519,-0.304675,0.005674,-0.95244,0.30959702716790644
1760733876.366405,-0.04376,-0.14692,-0.246279,0.956999,-0.339337,0.107912,0.063336,-0.001819,0.053644,0.007285,-0.302758,0.011391,-0.952999,0.30758526145791115
1760733876.367541,-0.047136,-0.144835,-0.246027,0.957221,-0.407984,0.130186,0.108539,-0.000345,0.061384,0.000846,-0.300471,0.018973,-0.953602,0.30518650211000997
1760733876.399762,-0.051093,-0.142505,-0.245489,0.957506,-0.448421,0.14087,0.1449,0.002315,0.064468,-0.003904,-0.297984,0.027876,-0.954164,0.3025799379617412
1760733876.403112,-0.055353,-0.139895,-0.244767,0.957838,-0.467553,0.153875,0.15334,0.004737,0.065294,-0.010454,-0.295091,0.037554,-0.954731,0.2995507146519526
1760733876.431727,-0.059812,-0.137124,-0.244021,0.958161,-0.484228,0.159864,0.151249,0.006057,0.062219,-0.006597,-0.291965,0.047696,-0.955239,0.29628071013700996
1760733876.464149,-0.064261,-0.134343,-0.243462,0.95841,-0.47109,0.158287,0.121787,0.006933,0.054907,-0.001932,-0.288801,0.057763,-0.955645,0.29297424433661007
1760733876.46447,-0.068561,-0.131732,-0.243199,0.958541,-0.454373,0.126818,0.080495,0.003119,0.056441,0.007553,-0.28589,0.067364,-0.955892,0.28993498701227
1760733876.500069,-0.072744,-0.129423,-0.243203,0.958546,-0.444159,0.108213,0.048659,-0.000922,0.061948,0.000609,-0.283499,0.076506,-0.955916,0.2874408113831152
1760733876.502065,-0.076757,-0.127313,-0.243488,0.958443,-0.423083,0.107308,0.019562,-0.0006,0.063454,-0.006379,-0.281423,0.085137,-0.9558,0.2852765967957481
1760733876.5306,-0.080514,-0.125329,-0.244036,0.958257,-0.4037,0.10119,-0.008098,-0.002505,0.063488,-0.01302,-0.279491,0.093138,-0.95562,0.2832640159925637
1760733876.566339,-0.084113,-0.123335,-0.244714,0.958034,-0.391643,0.108302,-0.013446,-0.000296,0.068983,-0.021939,-0.277485,0.100802,-0.955427,0.2811753550114904
1760733876.568338,-0.087521,-0.121341,-0.245358,0.957818,-0.36726,0.114607,-0.013009,0.001756,0.068587,-0.023357,-0.275394,0.108113,-0.955233,0.2789994749785942
1760733876.596696,-0.090651,-0.119359,-0.245946,0.957625,-0.330796,0.11981,0.000251,0.006048,0.068558,-0.018748,-0.273193,0.114908,-0.955072,0.27671062997733614
1760733876.627449,-0.093417,-0.117507,-0.246367,0.95748,-0.290491,0.104258,0.012921,0.003295,0.066723,-0.010844,-0.271051,0.12099,-0.954931,0.27448467633455703
1760733876.629432,-0.09593,-0.115841,-0.246569,0.957383,-0.268617,0.087033,0.026803,0.006314,0.065606,-0.007312,-0.269114,0.126558,-0.954757,0.2724729468813868
1760733876.658315,-0.098271,-0.114339,-0.246604,0.957317,-0.245291,0.08733,0.038831,0.009486,0.055395,-0.00959,-0.267385,0.13176,-0.954539,0.2706781759086259
1760733876.662082,-0.100342,-0.112919,-0.246536,0.957288,-0.207953,0.089255,0.042034,0.010079,0.045716,-0.007089,-0.265668,0.136435,-0.954362,0.26889664254806733
1760733876.68314,-0.102117,-0.111401,-0.24648,0.957293,-0.190192,0.092271,0.033654,0.00425,0.037461,-0.006153,-0.263627,0.140596,-0.954324,0.26678019401527153
1760733876.736802,-0.103566,-0.110236,-0.246525,0.95726,-0.16131,0.079178,0.021298,0.005291,0.034814,-0.008601,-0.262113,0.143927,-0.954244,0.26521113166827653
1760733876.737123,-0.105014,-0.109071,-0.246569,0.957225,-0.132428,0.066086,0.008942,0.006331,0.032168,-0.011063,-0.260597,0.147258,-0.954151,0.26364053815045624
1760733876.74811,-0.106047,-0.108135,-0.246672,0.95719,-0.10127,0.065605,0.009246,0.006556,0.035619,-0.017434,-0.25933,0.149666,-0.954122,0.26232830387898626
1760733876.778144,-0.106843,-0.107285,-0.246734,0.957182,-0.080612,0.051751,0.008894,0.006246,0.03149,-0.011896,-0.258106,0.151595,-0.954149,0.261061253370883
1760733876.782149,-0.10756,-0.106695,-0.246709,0.957174,-0.079686,0.032653,0.016815,0.010075,0.027979,-0.004835,-0.257322,0.153262,-0.954094,0.26024995848683397
1760733876.810781,-0.108305,-0.106181,-0.246622,0.957169,-0.075483,0.019473,0.015448,0.013186,0.019709,-0.002473,-0.256687,0.15496,-0.953991,0.2595928298895594
1760733876.8473,-0.109009,-0.105859,-0.246545,0.957145,-0.064737,0.005657,0.010822,0.010374,0.01479,-0.001256,-0.256395,0.156478,-0.953822,0.25929064989446055
1760733876.848591,-0.109687,-0.105631,-0.246494,0.957106,-0.062411,0.004796,0.008381,0.008721,0.013849,-0.005624,-0.256274,0.15789,-0.953622,0.2591654188213407
1760733876.878887,-0.110277,-0.105415,-0.246429,0.957079,-0.045568,-0.000824,0.008441,0.006833,0.012291,-0.003767,-0.256133,0.159132,-0.953453,0.2590196566685977
1760733876.881183,-0.110719,-0.10531,-0.24644,0.957036,-0.039613,-0.002808,0.006649,0.004562,0.011587,-0.004075,-0.256142,0.160019,-0.953302,0.25902899675975677
1760733876.949799,-0.111108,-0.105182,-0.246432,0.957007,-0.028029,-0.008122,0.001698,0.003115,0.011339,-0.002186,-0.256081,0.160823,-0.953183,0.25896591326663393
1760733876.952007,-0.111394,-0.105236,-0.246511,0.956948,-0.027322,-0.010536,-0.007192,0.002993,0.008094,-0.001692,-0.256331,0.161313,-0.953033,0.2592245436575217
1760733876.984906,-0.111689,-0.105278,-0.246657,0.956871,-0.028979,-0.010335,-0.015522,0.002982,0.004262,7.8e-05,-0.256572,0.161808,-0.952885,0.2594736860887145
1760733876.986199,-0.112013,-0.105389,-0.246879,0.956764,-0.030662,-0.017266,-0.022269,0.001013,0.002636,0.00381,-0.256972,0.162304,-0.952692,0.2598877749679802
1760733877.015331,-0.112384,-0.105551,-0.247128,0.956638,-0.037522,-0.022375,-0.024357,0.000139,0.001793,0.004982,-0.257495,0.162852,-0.952458,0.2604287946263972
1760733877.023124,-0.11278,-0.105677,-0.247336,0.956524,-0.035269,-0.018742,-0.015663,-0.000959,0.001231,0.003,-0.257955,0.163478,-0.952226,0.26090494370128264
1760733877.058243,-0.113153,-0.105732,-0.247439,0.956447,-0.036747,-0.010954,-0.002892,-0.00137,0.002011,0.000225,-0.258252,0.164124,-0.952034,0.261212449793458
1760733877.061824,-0.113522,-0.105695,-0.247413,0.956414,-0.032968,-0.00199,0.011656,-0.002765,0.002427,-0.00028,-0.25835,0.164848,-0.951883,0.2613137169890477
1760733877.091856,-0.113849,-0.105594,-0.247263,0.956425,-0.025144,0.001201,0.024797,-0.002696,0.002012,-2.9e-05,-0.258287,0.165557,-0.951777,0.2612485142177751
1760733877.122515,-0.114081,-0.10547,-0.247003,0.956478,-0.015757,0.003889,0.0321,-0.002421,0.000989,0.000172,-0.258116,0.166129,-0.951723,0.26107169529202456
1760733877.122826,-0.11423,-0.105354,-0.246723,0.956546,-0.010223,0.001979,0.030342,-0.003267,-0.001405,0.002342,-0.257918,0.166545,-0.951704,0.2608667490483646
1760733877.154076,-0.114358,-0.105291,-0.246466,0.956604,-0.009825,-0.002609,0.023619,-0.003771,-0.004037,0.004182,-0.257813,0.166889,-0.951672,0.2607581215347044
1760733877.170643,-0.114517,-0.10527,-0.246281,0.956635,-0.015823,-0.00354,0.015732,-0.004029,-0.006071,0.003705,-0.257817,0.16725,-0.951608,0.26076214451182667
1760733877.200315,-0.114741,-0.105252,-0.24617,0.956638,-0.021569,-0.003066,0.01137,-0.00432,-0.007389,0.003816,-0.257867,0.167711,-0.951513,0.26081397376190124
1760733877.200639,-0.115016,-0.105177,-0.246093,0.956633,-0.027677,-0.000255,0.008592,-0.00432,-0.00623,0.003446,-0.257841,0.168289,-0.951418,0.26078706093981335
1760733877.229847,-0.115323,-0.105105,-0.246044,0.956617,-0.031611,0.001438,0.007068,-0.003386,-0.005973,0.003423,-0.257838,0.168919,-0.951307,0.26078399711187067
1760733877.259661,-0.115639,-0.105004,-0.245997,0.956602,-0.03249,0.00266,0.007177,-0.002482,-0.004508,0.003414,-0.257787,0.16958,-0.951204,0.2607310136276056
1760733877.260832,-0.115965,-0.104893,-0.24593,0.956592,-0.033721,0.005756,0.010561,-0.002234,-0.003351,0.002284,-0.257717,0.170269,-0.9511,0.26065853489843366
1760733877.292464,-0.116295,-0.104776,-0.245852,0.956584,-0.032389,0.005129,0.015487,-0.002679,-0.001853,0.003747,-0.257638,0.170972,-0.950995,0.2605768460168634
1760733877.323215,-0.116604,-0.104624,-0.245707,0.956601,-0.028476,0.005228,0.018373,-0.002848,-0.00151,0.003413,-0.257467,0.171673,-0.950915,0.26039988137124187
1760733877.323509,-0.11689,-0.1045,-0.245541,0.956622,-0.029209,0.005405,0.022962,-0.001941,-0.002046,0.002358,-0.257337,0.172321,-0.950833,0.26026534285134106
1760733877.351604,-0.117209,-0.10432,-0.245338,0.956655,-0.032271,0.007142,0.025419,-0.002216,-0.001318,0.001686,-0.257107,0.17307,-0.950759,0.26002737995979514
1760733877.363446,-0.117539,-0.104148,-0.24514,0.956684,-0.033211,0.008557,0.024507,-0.002544,-0.002401,0.002842,-0.256901,0.173833,-0.950676,0.25981408942780027
1760733877.395021,-0.117889,-0.10396,-0.244965,0.956706,-0.037718,0.0121,0.021857,-0.001732,-0.002124,0.00243,-0.256676,0.174637,-0.950589,0.25958138854649165
1760733877.427782,-0.118206,-0.103755,-0.244825,0.956725,-0.031479,0.011013,0.016224,-0.001918,-0.001796,0.002854,-0.256409,0.175378,-0.950525,0.2593050511183201
1760733877.429711,-0.11849,-0.103545,-0.244734,0.956736,-0.029288,0.011516,0.014042,-0.001754,0.000162,0.001923,-0.256127,0.176045,-0.950477,0.25901349209412927
1760733877.462916,-0.118803,-0.103327,-0.244675,0.956736,-0.03585,0.01732,0.01154,-0.002297,0.001319,-0.000807,-0.25585,0.176764,-0.950419,0.25872673244264704
1760733877.464038,-0.119128,-0.103062,-0.244652,0.95673,-0.035477,0.015924,0.00673,-0.00238,0.001057,0.001572,-0.255495,0.177518,-0.950374,0.258359519374396
1760733877.504852,-0.119418,-0.102809,-0.24465,0.956721,-0.02928,0.012491,0.00184,-0.001441,0.001741,0.001739,-0.25515,0.178195,-0.950339,0.2580029409165172
1760733877.506916,-0.119627,-0.10265,-0.244687,0.956703,-0.019637,0.008615,0.000621,-0.001714,0.003069,0.001658,-0.254954,0.17866,-0.950305,0.2578000608324806
1760733877.535753,-0.11978,-0.102559,-0.244723,0.956684,-0.010022,0.005092,-0.000574,-0.0012,0.003871,0.001345,-0.254859,0.178987,-0.950269,0.2577018025195147
1760733877.541881,-0.119823,-0.102499,-0.244752,0.956678,-0.00237,0.005428,-0.002242,0.000507,0.00491,0.000292,-0.25477,0.179091,-0.950273,0.25760983216818323
1760733877.571868,-0.119795,-0.102456,-0.244811,0.956671,0.002307,0.007536,-0.005175,0.000509,0.004917,0.000417,-0.254689,0.179044,-0.950304,0.2575259611241575
1760733877.602238,-0.119727,-0.102393,-0.244873,0.95667,0.004263,0.010163,-0.008165,0.000988,0.004761,0.000559,-0.254549,0.178932,-0.950362,0.2573813408272483
1760733877.602571,-0.119681,-0.102311,-0.244967,0.956661,-0.002747,0.011776,-0.007165,0.000857,0.005569,0.00126,-0.25439,0.178863,-0.950418,0.25721681872790414
1760733877.620901,-0.119699,-0.102178,-0.24506,0.956649,-0.007727,0.011561,-0.005423,0.000336,0.004579,0.001593,-0.254163,0.17894,-0.950464,0.2569821632448088
1760733877.651123,-0.119763,-0.102017,-0.245119,0.956643,-0.009696,0.010557,-0.002282,7e-06,0.005283,0.001312,-0.2539,0.179128,-0.950499,0.25671021301004326
1760733877.682487,-0.119842,-0.101854,-0.245152,0.956642,-0.012417,0.01297,0.002474,0.001094,0.005587,0.000267,-0.253635,0.179353,-0.950527,0.2564363247335362
1760733877.683793,-0.119941,-0.101683,-0.24516,0.956646,-0.010758,0.015435,0.002905,0.000808,0.003696,0.000487,-0.253359,0.179626,-0.950549,0.2561510188721441
1760733877.723595,-0.120026,-0.101481,-0.245179,0.956652,-0.01122,0.018558,0.001343,0.000412,0.000965,0.00175,-0.25302,0.179884,-0.950591,0.25580047825915947
1760733877.725679,-0.12009,-0.101313,-0.245216,0.956652,-0.00932,0.012404,-0.000907,-0.000479,-9.4e-05,0.003707,-0.252738,0.180081,-0.950628,0.25550918321116345
1760733877.754165,-0.120136,-0.101171,-0.245253,0.956652,-0.008123,0.013253,-0.002852,-0.000791,0.001301,0.001221,-0.252498,0.180232,-0.950664,0.25526092965249886
1760733877.759949,-0.120151,-0.101014,-0.24531,0.956652,-0.00627,0.018623,-0.001594,-0.000999,0.001594,-0.000313,-0.252219,0.180325,-0.95072,0.2549727027035025
1760733877.796274,-0.120157,-0.100772,-0.245353,0.956666,-0.006532,0.023848,-0.002053,-0.001157,0.001365,-0.001397,-0.251772,0.18045,-0.950815,0.2545107365838573
1760733877.798476,-0.120134,-0.100504,-0.245412,0.956681,-0.005418,0.022796,-0.003391,-9.7e-05,0.001649,0.001967,-0.251265,0.18053,-0.950934,0.2539868775116629
1760733877.834894,-0.120155,-0.100294,-0.245479,0.956684,-0.008481,0.0173,-0.00581,0.00097,0.000428,0.004072,-0.25089,0.180661,-0.951008,0.2535994999270733
1760733877.839607,-0.120211,-0.100131,-0.245572,0.95667,-0.012352,0.012438,-0.010186,0.001866,-0.00183,0.005949,-0.250625,0.180827,-0.951046,0.25332583356705396
1760733877.87279,-0.120321,-0.100019,-0.245731,0.956627,-0.019978,0.008997,-0.013066,0.002133,-0.002831,0.004559,-0.250494,0.181049,-0.951038,0.2531905852717219
1760733877.903498,-0.120529,-0.09987,-0.245903,0.956572,-0.029405,0.00935,-0.015409,0.002196,-0.003667,0.003545,-0.250343,0.181472,-0.950998,0.25303440381270464
1760733877.906168,-0.120777,-0.099742,-0.246107,0.956502,-0.030348,0.006804,-0.015836,0.001797,-0.003524,0.003355,-0.250255,0.181952,-0.950929,0.2529436194238784
1760733877.959838,-0.121026,-0.099581,-0.246291,0.95644,-0.028159,0.008763,-0.0123,0.001194,-0.00103,0.002369,-0.250103,0.182456,-0.950872,0.2527867297431491
1760733877.960144,-0.121275,-0.099421,-0.246476,0.956377,-0.025971,0.010722,-0.008764,0.000592,0.001465,0.001381,-0.24995,0.18296,-0.950816,0.2526285602131455
1760733877.960903,-0.121483,-0.099249,-0.246598,0.956337,-0.02061,0.009393,-0.004088,0.001214,0.003496,0.000642,-0.249747,0.183409,-0.950783,0.25241887145513897
1760733877.993607,-0.121641,-0.099117,-0.246649,0.956318,-0.01314,0.00554,0.002018,0.001266,0.00373,0.000299,-0.249579,0.183762,-0.950759,0.2522453661622921
1760733878.000686,-0.121752,-0.099034,-0.246635,0.956316,-0.0094,0.00209,0.006476,0.001291,0.003838,0.000141,-0.249473,0.184017,-0.950737,0.2521360259146717
1760733878.02907,-0.121839,-0.09899,-0.24656,0.956329,-0.006397,-0.001503,0.01034,0.001272,0.002716,0.001255,-0.249415,0.184222,-0.950713,0.25207601433148774
1760733878.061099,-0.121919,-0.098967,-0.246433,0.956354,-0.004541,-0.001739,0.01212,0.000584,0.001247,0.000576,-0.249384,0.184418,-0.950683,0.2520440351479832
1760733878.062535,-0.121972,-0.098926,-0.246305,0.956384,-0.002864,0.000245,0.012203,0.000267,0.000571,0.000264,-0.249307,0.184572,-0.950673,0.25196459949659267
1760733878.092391,-0.122012,-0.098877,-0.246177,0.956417,-0.000672,0.005421,0.012246,0.000184,0.000635,0.000491,-0.249208,0.184706,-0.950673,0.2518623561820377
1760733878.099264,-0.122013,-0.098807,-0.246061,0.956454,-3.9e-05,0.005545,0.01004,0.000405,-0.000214,0.000679,-0.249054,0.184775,-0.9507,0.2517033297356221
1760733878.129669,-0.122025,-0.098741,-0.245961,0.956485,-0.002604,0.007342,0.009269,-0.000165,-0.000771,0.001049,-0.248915,0.184858,-0.95072,0.25155987545214575
1760733878.159465,-0.122051,-0.098693,-0.245914,0.956499,-0.004293,0.0036,0.002985,-0.000486,-0.003383,0.003607,-0.248827,0.184944,-0.950727,0.25146884820985466
1760733878.170085,-0.1221,-0.098631,-0.245911,0.9565,-0.007056,0.002553,-0.000228,7e-05,-0.003226,0.003296,-0.248732,0.185068,-0.950727,0.2513709425666466
1760733878.201704,-0.122178,-0.098587,-0.245928,0.95649,-0.01031,0.00274,-0.002034,-0.000164,-0.0022,0.004555,-0.248688,0.185233,-0.950706,0.25132560717113417
1760733878.2068,-0.122311,-0.098515,-0.245952,0.956474,-0.016366,0.003554,-0.001307,-0.000219,-0.002146,0.004013,-0.248619,0.185516,-0.95067,0.2512540927529148
1760733878.23718,-0.12247,-0.09843,-0.245978,0.956456,-0.019872,0.005764,0.000346,0.000755,-0.002455,0.003937,-0.248538,0.185852,-0.950625,0.25117060245913203
1760733878.239368,-0.122661,-0.098321,-0.246003,0.956436,-0.020883,0.007373,-0.00114,-1.2e-05,-0.001791,0.002528,-0.248426,0.186261,-0.950574,0.25105503075283175
1760733878.28355,-0.122834,-0.098185,-0.24604,0.956418,-0.020818,0.006333,-0.001645,0.000319,-0.001317,0.001601,-0.248256,0.186647,-0.950543,0.25087945954697366
1760733878.28573,-0.123026,-0.098092,-0.246095,0.956389,-0.019556,0.005452,-0.0032,9.1e-05,-0.000179,0.001845,-0.248179,0.187042,-0.950485,0.25080008439901297
1760733878.317184,-0.123198,-0.098004,-0.246148,0.956362,-0.01982,0.002932,-0.003156,0.000114,0.001092,0.002706,-0.248105,0.187397,-0.950435,0.2507235473125858
1760733878.31858,-0.123394,-0.097937,-0.246187,0.956334,-0.020045,0.002628,-0.000884,0.000595,0.002312,0.001594,-0.248077,0.18779,-0.950364,0.2506948231256305
1760733878.348641,-0.123586,-0.097859,-0.246197,0.956314,-0.021259,0.003662,0.002222,6.7e-05,0.002308,0.001007,-0.24802,0.18819,-0.9503,0.25063592382276
1760733878.377989,-0.12377,-0.097744,-0.246182,0.956306,-0.018295,0.004562,0.004136,-0.000171,0.002306,0.000743,-0.247885,0.188599,-0.950254,0.2504966061633614
1760733878.37902,-0.123948,-0.097655,-0.246157,0.956299,-0.0153,0.003605,0.006091,-0.000214,0.002686,0.001002,-0.247796,0.188987,-0.950201,0.25040452722191703
1760733878.422842,-0.124081,-0.097586,-0.246096,0.956304,-0.010333,0.002774,0.005222,-0.000476,0.002131,0.001117,-0.247716,0.189286,-0.950162,0.25032203608026166
1760733878.423126,-0.124187,-0.097523,-0.246042,0.956311,-0.005913,-0.000753,0.006103,-0.00035,0.002609,0.001169,-0.247636,0.189533,-0.950134,0.25023936983664347
1760733878.453352,-0.124272,-0.097516,-0.245982,0.956316,-0.003687,-0.000798,0.008012,-0.000537,0.002095,0.001192,-0.247651,0.189713,-0.950094,0.25025489240936444
1760733878.458645,-0.124321,-0.097521,-0.245909,0.956328,-0.001699,-0.002765,0.006002,-0.001043,0.000793,0.001579,-0.247668,0.18982,-0.950068,0.25027248680327546
1760733878.486433,-0.124339,-0.097539,-0.245843,0.956341,-0.000455,-0.002948,0.00435,-0.000728,0.001251,0.000614,-0.247696,0.189863,-0.950052,0.2503014135499591
1760733878.516096,-0.124366,-0.097543,-0.245777,0.956354,-0.003301,-0.001089,0.006898,-0.000664,0.003507,0.001242,-0.247704,0.189927,-0.950037,0.2503097004780684
1760733878.518217,-0.124443,-0.097509,-0.245686,0.95637,-0.007072,0.000569,0.010723,-0.000794,0.002527,0.001985,-0.247658,0.190114,-0.950012,0.25026212142893545
1760733878.547254,-0.124563,-0.097483,-0.245582,0.956384,-0.012596,0.002592,0.010195,-0.000945,0.000496,0.003161,-0.247644,0.190381,-0.949962,0.25024771485257546
1760733878.577302,-0.124733,-0.097388,-0.24548,0.956398,-0.017725,0.006825,0.011732,-0.000981,0.000813,0.00245,-0.247522,0.190776,-0.949914,0.2501219283303988
1760733878.57864,-0.12492,-0.097258,-0.245403,0.956406,-0.018338,0.004066,0.007402,-0.001605,-0.000478,0.002899,-0.247347,0.191214,-0.949872,0.2499411946817595
1760733878.615995,-0.125128,-0.097176,-0.245361,0.956398,-0.02246,0.005772,0.006332,-0.001153,0.000349,0.001567,-0.247282,0.191658,-0.949799,0.24987421686996159
1760733878.619402,-0.125355,-0.097062,-0.245344,0.956384,-0.023671,0.007143,0.003562,-0.001201,-2.5e-05,0.000981,-0.247168,0.192148,-0.94973,0.2497564843121398
1760733878.638183,-0.125577,-0.096941,-0.245351,0.956366,-0.021798,0.006126,-0.001141,-0.001457,-0.000112,0.00226,-0.247043,0.192626,-0.949666,0.24962740934411812
1760733878.66808,-0.125769,-0.096874,-0.245395,0.956336,-0.019107,0.00177,-0.001138,-0.001516,-0.000577,0.001666,-0.247015,0.19301,-0.949595,0.2495985899077382
1760733878.707408,-0.125919,-0.096819,-0.245423,0.956315,-0.015261,0.003727,0.00019,-0.001374,-0.000234,0.0015,-0.246985,0.193314,-0.949541,0.24956762183612605
1760733878.707736,-0.12607,-0.096763,-0.245451,0.956293,-0.011414,0.005684,0.001519,-0.001232,0.00011,0.001335,-0.246956,0.193618,-0.949487,0.24953759851311205
1760733878.736676,-0.126171,-0.09667,-0.245447,0.95629,-0.008164,0.00436,0.002448,-0.002238,-0.000624,0.002332,-0.246825,0.193858,-0.949472,0.24940243604649337
1760733878.740535,-0.126272,-0.096585,-0.245429,0.95629,-0.01015,0.008221,0.003695,-0.001671,-0.000449,0.001307,-0.246708,0.194096,-0.949454,0.24928165032678162
1760733878.770604,-0.126391,-0.096394,-0.245423,0.956295,-0.01727,0.016943,0.006103,-0.002929,-0.000283,-0.000565,-0.2464,0.19442,-0.949467,0.24896400615723951
1760733878.800241,-0.126546,-0.096098,-0.245395,0.956312,-0.023756,0.025164,0.007991,-0.001231,0.001112,-0.001494,-0.245907,0.19487,-0.949503,0.24845524926252546
1760733878.80058,-0.126737,-0.095783,-0.245358,0.956328,-0.026509,0.025378,0.008979,-0.00104,0.001476,0.000824,-0.245391,0.195402,-0.949527,0.2479229778145673
1760733878.836133,-0.126935,-0.095471,-0.245305,0.956346,-0.02619,0.019151,0.009152,-0.001109,0.000435,0.003855,-0.244881,0.195949,-0.949546,0.2473969131542262
1760733878.837383,-0.127158,-0.095257,-0.245284,0.956343,-0.023874,0.013258,0.004125,1.6e-05,-0.001228,0.002997,-0.244577,0.196483,-0.949514,0.2470833799263209
1760733878.871438,-0.127352,-0.095064,-0.245313,0.956329,-0.021901,0.012074,-0.001152,0.00053,-0.0007,0.001371,-0.244308,0.19694,-0.949488,0.2468061015134582
1760733878.87812,-0.127522,-0.094916,-0.245414,0.956295,-0.020946,0.010698,-0.005758,0.000292,9.7e-05,0.000976,-0.244127,0.197311,-0.949458,0.24661933743327352
1760733878.908172,-0.127667,-0.094766,-0.245522,0.956263,-0.016599,0.007126,-0.008579,0.000571,0.00198,0.001593,-0.243932,0.197632,-0.949441,0.24641834341265134
1760733878.938185,-0.127786,-0.094666,-0.245647,0.956225,-0.013301,0.007629,-0.007248,0.000196,0.004206,0.000502,-0.243824,0.197875,-0.949418,0.24630701146371453
1760733878.951886,-0.127892,-0.094559,-0.245742,0.956197,-0.011766,0.008636,-0.005895,0.000805,0.004899,-0.001443,-0.243691,0.198105,-0.949405,0.24616967996461292
1760733878.981291,-0.127992,-0.094449,-0.245826,0.956173,-0.01241,0.009495,-0.003927,0.001031,0.003943,-0.001002,-0.243547,0.198329,-0.949395,0.2460212504972745
1760733878.981617,-0.128052,-0.094336,-0.245881,0.956162,-0.004783,0.008903,-0.001832,0.001006,0.003577,-2.7e-05,-0.243372,0.198487,-0.949407,0.24584078753088714
1760733879.011097,-0.128065,-0.09425,-0.245916,0.95616,-0.002016,0.003753,-0.000772,0.000632,0.00354,0.002752,-0.243224,0.198547,-0.949432,0.245688293321925
1760733879.04042,-0.128071,-0.094215,-0.245931,0.956159,-0.000584,0.003175,0.001257,0.000464,0.002687,0.002344,-0.243161,0.198572,-0.949443,0.24562332166893516
1760733879.042509,-0.128096,-0.094136,-0.245934,0.956162,-0.006131,0.010053,0.002436,0.000195,0.001128,0.000984,-0.243025,0.19866,-0.949459,0.24548321393967507
1760733879.074465,-0.12814,-0.093984,-0.24594,0.95617,-0.008728,0.011342,0.001345,0.000647,-0.000565,0.002177,-0.242758,0.198818,-0.949494,0.245208026231443
1760733879.077912,-0.128211,-0.093871,-0.245951,0.956169,-0.008705,0.008121,0.001245,-0.000538,-0.001241,0.003686,-0.24258,0.199008,-0.949501,0.24502423033728776
1760733879.107622,-0.128271,-0.093793,-0.245965,0.956165,-0.006007,0.004178,0.001746,-0.000468,-0.000438,0.003127,-0.242463,0.199158,-0.949499,0.24490373288412343
1760733879.137458,-0.128324,-0.093746,-0.245944,0.956167,-0.006835,0.000633,0.002566,-0.000317,-0.000143,0.002097,-0.242394,0.199286,-0.949489,0.24483279170701902
1760733879.139552,-0.128391,-0.093688,-0.245932,0.956167,-0.007494,0.000965,0.001134,-0.000254,-2e-05,0.001668,-0.242314,0.199444,-0.949477,0.24475015419945223
1760733879.173644,-0.12844,-0.093645,-0.245925,0.956167,-0.006452,0.000665,-0.000876,-0.00035,7.2e-05,0.002288,-0.242254,0.199562,-0.949467,0.2446884340914114
1760733879.17705,-0.128499,-0.09363,-0.245945,0.956155,-0.005507,0.002078,-0.001709,-0.000145,3e-05,0.000946,-0.242257,0.199675,-0.949443,0.24469140216558158
1760733879.207531,-0.128593,-0.093596,-0.245985,0.956135,-0.011956,0.00409,-0.002352,7e-06,0.000418,0.000791,-0.242244,0.199859,-0.949407,0.24467814573487845
1760733879.242531,-0.128694,-0.09352,-0.24602,0.95612,-0.010861,0.005383,-0.002064,7e-05,0.000578,0.000727,-0.242156,0.200078,-0.949384,0.2445872846385005
1760733879.242819,-0.128761,-0.093454,-0.246069,0.956105,-0.009084,0.005474,-0.003373,2.9e-05,0.000237,0.000298,-0.242072,0.200225,-0.949374,0.24450081091709958
1760733879.281005,-0.128822,-0.09338,-0.246134,0.956087,-0.007655,0.004415,-0.00292,0.000146,0.000912,0.000929,-0.241975,0.200363,-0.94937,0.24440074730285438
1760733879.282714,-0.128887,-0.093308,-0.246182,0.956073,-0.008155,0.004344,-0.002919,-0.000256,4.4e-05,0.00159,-0.241877,0.20051,-0.949363,0.24429996898952422
1760733879.317589,-0.128976,-0.093216,-0.246221,0.95606,-0.011998,0.004665,-0.002664,0.000733,-0.000264,0.002449,-0.241754,0.200715,-0.949352,0.24417297287323286
1760733879.317893,-0.129096,-0.093143,-0.246256,0.956042,-0.013948,0.004057,-0.001752,0.000616,-0.001946,0.002797,-0.241679,0.200969,-0.949317,0.24409576603224403
1760733879.345754,-0.129238,-0.093066,-0.2463,0.956019,-0.01474,0.00381,-0.001381,0.000829,-0.00185,0.00294,-0.241609,0.201263,-0.949273,0.24402351766752503
1760733879.376286,-0.129379,-0.092999,-0.246337,0.955997,-0.016151,0.004074,-0.001416,-5.1e-05,-0.001488,0.001999,-0.241556,0.201554,-0.949224,0.24396907596733214
1760733879.378372,-0.129544,-0.092917,-0.24637,0.955974,-0.019293,0.004169,-0.000989,-0.000246,-0.002265,0.002524,-0.241484,0.201897,-0.94917,0.24389474360885696
1760733879.406777,-0.129726,-0.092817,-0.246411,0.955948,-0.020696,0.003382,-0.001633,-0.000611,-0.001612,0.002645,-0.241389,0.20228,-0.949112,0.24379699349404815
1760733879.438636,-0.129951,-0.092729,-0.246444,0.955918,-0.023704,0.003879,-0.000632,-0.00037,-0.000606,0.001877,-0.241334,0.20274,-0.949028,0.24374027862691505
1760733879.440676,-0.130192,-0.092616,-0.246433,0.955899,-0.024452,0.003048,0.002411,-0.000492,0.001182,0.001886,-0.24123,0.203252,-0.948945,0.24363309381237344
1760733879.469109,-0.130415,-0.092512,-0.246408,0.955885,-0.022165,0.002728,0.003185,-0.000541,0.001897,0.00189,-0.241133,0.203732,-0.948867,0.2435330769581513
1760733879.502708,-0.130618,-0.09242,-0.246391,0.955871,-0.02164,0.001852,0.004314,-0.001248,0.001538,0.000976,-0.241049,0.204165,-0.948795,0.2434465879036972
1760733879.503949,-0.130818,-0.092337,-0.246351,0.955862,-0.019225,0.000767,0.00514,-0.000978,0.00121,0.000705,-0.240976,0.204593,-0.948721,0.24337145203575056
1760733879.534877,-0.130979,-0.092284,-0.246317,0.955853,-0.014308,-0.000103,0.003563,-0.000181,0.001728,0.001516,-0.240944,0.204932,-0.948656,0.24333847083328178
1760733879.536216,-0.131125,-0.092243,-0.246287,0.955845,-0.011642,-0.001569,0.003949,-0.000902,0.002719,0.002062,-0.240929,0.205235,-0.948595,0.24332285166478518
1760733879.566069,-0.131251,-0.092215,-0.246271,0.955835,-0.011304,-0.001026,0.003088,-0.000841,0.001674,0.001132,-0.240931,0.205489,-0.948539,0.24332503051730084
1760733879.595298,-0.13137,-0.092145,-0.246259,0.955828,-0.009668,-0.000429,0.002111,-0.001278,8.9e-05,0.001177,-0.240852,0.205752,-0.948502,0.24324364531725143
1760733879.597327,-0.131516,-0.09212,-0.246262,0.95581,-0.014722,0.000825,-5e-05,-0.000825,-0.000301,0.001704,-0.240874,0.206037,-0.948435,0.24326620557094952
1760733879.629512,-0.131682,-0.092055,-0.24628,0.955788,-0.01782,0.001689,-0.001088,-0.000253,0.000302,0.001082,-0.240832,0.206378,-0.948371,0.24322305495611016
1760733879.659042,-0.131873,-0.091997,-0.246331,0.955755,-0.019361,0.003915,-0.003346,-9.9e-05,0.000118,0.000422,-0.240821,0.206754,-0.948292,0.24321169619204877
1760733879.659345,-0.132043,-0.091926,-0.246382,0.955725,-0.018123,0.00328,-0.003015,-0.001145,0.001302,0.001641,-0.240777,0.207096,-0.948229,0.2431662548706619
1760733879.688319,-0.132196,-0.091862,-0.246422,0.9557,-0.015006,0.003045,-0.003339,-0.000795,0.001957,0.001795,-0.240736,0.207405,-0.948171,0.24312421726769648
1760733879.730061,-0.132323,-0.091824,-0.246434,0.955683,-0.014369,0.001914,-0.000188,-3.7e-05,0.002446,0.000854,-0.240727,0.207661,-0.948118,0.24311476842278704
1760733879.730376,-0.132451,-0.091786,-0.246446,0.955665,-0.013732,0.000784,0.002963,0.000721,0.002934,-8.6e-05,-0.240717,0.207917,-0.948064,0.24310456717772722
1760733879.759045,-0.132567,-0.091729,-0.246407,0.955665,-0.008873,0.00507,0.008956,-0.000637,0.002776,0.001035,-0.240655,0.208175,-0.948024,0.24304048316449653
1760733879.761067,-0.132664,-0.091594,-0.246322,0.955686,-0.008384,0.007182,0.012755,-0.001993,0.002097,0.00137,-0.240426,0.208446,-0.948022,0.24280468698080362
1760733879.791112,-0.132775,-0.091457,-0.246218,0.955711,-0.012384,0.012094,0.009052,-0.002656,0.000985,0.000657,-0.240195,0.208752,-0.948013,0.24256676603652838
1760733879.798046,-0.132881,-0.091263,-0.246157,0.95573,-0.013945,0.019382,0.010817,-0.002086,0.000286,-0.001206,-0.239864,0.209067,-0.948027,0.2422258896443175
1760733879.828473,-0.132965,-0.090972,-0.246111,0.955758,-0.014756,0.023148,0.00708,-0.000735,-0.00036,-0.001726,-0.239343,0.209386,-0.948089,0.24168908775078388
1760733879.840923,-0.133064,-0.090703,-0.24611,0.95577,-0.017116,0.017147,0.003108,-0.000327,0.00123,0.002305,-0.238879,0.209712,-0.948134,0.2412112186291506
1760733879.870846,-0.133191,-0.090517,-0.246128,0.955765,-0.017913,0.007595,0.001975,0.000136,0.001729,0.00563,-0.23859,0.210041,-0.948134,0.24091359985765456
1760733879.902435,-0.133364,-0.09043,-0.246141,0.955746,-0.019093,0.004265,-0.000346,0.001402,0.00156,0.003595,-0.238508,0.210408,-0.948073,0.24082922186795028
1760733879.903674,-0.133541,-0.09034,-0.246164,0.955724,-0.017594,0.004173,-0.002727,0.000766,5.3e-05,0.002725,-0.238427,0.21078,-0.948011,0.24074575512166688
1760733879.937609,-0.133691,-0.090265,-0.246219,0.955696,-0.012319,0.003474,-0.001996,0.000501,0.00131,0.002302,-0.238367,0.211085,-0.947958,0.24068402602411085
1760733879.953563,-0.133802,-0.090233,-0.24625,0.955676,-0.011142,0.001657,-1.8e-05,0.000604,0.002172,0.001717,-0.238364,0.211304,-0.94791,0.2406809282302017
1760733879.953901,-0.133907,-0.090173,-0.246244,0.955668,-0.01082,0.001924,0.003287,6.9e-05,0.002687,0.0014,-0.238298,0.211532,-0.947876,0.24061290981014302
1760733879.987414,-0.134023,-0.090095,-0.24621,0.955668,-0.010557,0.002888,0.005381,-0.000979,0.002249,0.001183,-0.238197,0.211799,-0.947842,0.24050886021015003
1760733879.994395,-0.134152,-0.090046,-0.246179,0.955663,-0.012158,0.001985,0.005964,-0.000424,0.001311,0.001725,-0.238157,0.212073,-0.94779,0.240467857199965
1760733880.02355,-0.134276,-0.09002,-0.246137,0.955658,-0.010737,-0.000855,0.004855,-0.000217,0.000962,0.001927,-0.238157,0.212329,-0.947733,0.240467783378583
1760733880.059917,-0.134369,-0.090018,-0.24612,0.95565,-0.003628,-0.002267,0.003707,0.001217,0.000839,0.001769,-0.238193,0.212509,-0.947684,0.24050475883608324
1760733880.062186,-0.134399,-0.090082,-0.246076,0.955651,-0.001907,-0.008926,0.004333,0.000773,0.001116,0.004196,-0.238319,0.212542,-0.947644,0.24063470907656687
1760733880.091664,-0.134437,-0.090187,-0.246036,0.955646,-0.003996,-0.011395,0.005031,0.000223,0.000889,0.002836,-0.238526,0.21257,-0.947586,0.24084777166325302
1760733880.093643,-0.13451,-0.090242,-0.245966,0.955649,-0.004261,-0.006934,0.005097,1e-05,-0.000111,0.000605,-0.238649,0.212695,-0.947527,0.24097442462963248
1760733880.125128,-0.134542,-0.090267,-0.245914,0.955655,-0.003104,-0.001096,0.005993,-0.001158,0.000347,2.3e-05,-0.2387,0.212756,-0.947501,0.24102681624574046
1760733880.154136,-0.134584,-0.09026,-0.245866,0.955662,-0.00297,-0.000714,0.004584,-0.000832,-0.000664,0.000875,-0.238696,0.212849,-0.947481,0.24102272519770898
1760733880.155763,-0.134652,-0.09027,-0.24582,0.955663,-0.006974,-0.001077,0.003473,-0.001807,-0.000204,0.001421,-0.238737,0.212983,-0.94744,0.24106507555690118
1760733880.186106,-0.134731,-0.090238,-0.245773,0.955667,-0.007263,-0.001599,0.003268,-0.0012,-0.000823,0.002254,-0.238702,0.21316,-0.947409,0.2410290363964413
1760733880.215314,-0.134815,-0.090271,-0.245768,0.955654,-0.004493,-0.002742,0.000105,-0.000468,-0.001683,0.002218,-0.238802,0.213302,-0.947352,0.2411319767800792
1760733880.216584,-0.13484,-0.090278,-0.245793,0.955643,-0.001639,-0.002838,-0.003457,-0.000509,-0.000959,0.002107,-0.238832,0.213338,-0.947336,0.24116294780817465
1760733880.255424,-0.134881,-0.090296,-0.245814,0.95563,-0.003686,0.000942,-0.002714,-0.000111,9.5e-05,0.001196,-0.238891,0.213401,-0.947307,0.2412236911284538
1760733880.255706,-0.134915,-0.090278,-0.245847,0.955619,-0.003325,-0.000861,0.00057,-0.00092,0.002191,0.001979,-0.238879,0.213465,-0.947296,0.24121124163748045
1760733880.287251,-0.134957,-0.090256,-0.24583,0.955619,-0.004222,-0.000235,0.002428,-0.000843,0.001423,0.001047,-0.238853,0.21356,-0.947281,0.24118450006057277
1760733880.294267,-0.135002,-0.090232,-0.245795,0.955624,-0.004275,-9.7e-05,0.001343,-0.000155,0.001394,0.001252,-0.238821,0.213666,-0.947265,0.24115158477767457
1760733880.322713,-0.135066,-0.090231,-0.24578,0.955619,-0.003116,-0.000441,0.001154,-5.5e-05,0.000497,0.000446,-0.238847,0.21379,-0.947231,0.2411782352948191
1760733880.333041,-0.135114,-0.090211,-0.245773,0.955616,-0.001107,-0.000157,0.00041,-0.000389,0.001706,0.001378,-0.238828,0.213891,-0.947213,0.2411586665899658
1760733880.363367,-0.135139,-0.09024,-0.245785,0.955607,-0.000392,-5.5e-05,0.000145,0.000218,0.001895,0.00093,-0.238897,0.213919,-0.947189,0.24122978787049537
1760733880.39361,-0.135172,-0.09023,-0.245787,0.955602,-0.002158,-0.001232,0.001612,-0.000294,0.002204,0.001553,-0.238894,0.213987,-0.947174,0.24122679082176332
1760733880.394979,-0.135205,-0.090223,-0.245747,0.955609,7e-06,-0.001634,0.001651,-9.1e-05,0.001713,0.002315,-0.238887,0.214062,-0.947159,0.24121953976193913
1760733880.425196,-0.135249,-0.090236,-0.245745,0.955602,-0.004399,-0.000997,0.001741,-2e-05,0.00154,0.002583,-0.238934,0.214139,-0.94713,0.24126788054258402
1760733880.43436,-0.135319,-0.090254,-0.245715,0.955598,-0.006367,-0.00158,0.002658,0.000289,0.002331,0.002679,-0.238993,0.214268,-0.947086,0.2413286264899637
1760733880.464322,-0.135407,-0.09026,-0.245688,0.955592,-0.011421,-0.006021,0.004343,0.000618,0.00633,0.000738,-0.23904,0.214437,-0.947036,0.2413770032482166
1760733880.493952,-0.135614,-0.090271,-0.245643,0.955573,-0.025138,-0.010235,0.005968,-0.000868,0.018722,-0.008949,-0.239147,0.214829,-0.94692,0.2414872313771703
1760733880.494311,-0.135953,-0.090295,-0.245615,0.95553,-0.034546,-0.009205,0.006612,-0.002592,0.036774,-0.022336,-0.239344,0.215459,-0.946727,0.2416901395042058
1760733880.537305,-0.136307,-0.090258,-0.245578,0.955492,-0.025095,-0.003557,0.006692,-0.001567,0.055371,-0.032385,-0.23943,0.216149,-0.946548,0.24177870406207955
1760733880.539359,-0.136361,-0.090263,-0.245543,0.955493,0.020294,-0.005146,0.001436,-0.001068,0.068915,-0.034817,-0.239456,0.216258,-0.946516,0.24180560570404827
1760733880.568151,-0.135947,-0.090449,-0.245504,0.955544,0.070429,-0.010501,-0.003112,0.00259,0.080544,-0.030413,-0.239607,0.215396,-0.946675,0.24196097666309788
1760733880.571985,-0.135081,-0.090805,-0.245454,0.955646,0.113653,-0.013347,-0.006157,0.004691,0.081851,-0.018969,-0.239867,0.213602,-0.947015,0.24222892295823326
1760733880.60079,-0.133936,-0.091225,-0.245408,0.955779,0.130516,-0.013087,-0.00879,0.007551,0.076774,-0.006145,-0.240119,0.211251,-0.947479,0.24248836457060505
1760733880.636319,-0.132713,-0.091694,-0.245392,0.955909,0.134314,-0.017145,-0.014402,0.007918,0.067062,0.00639,-0.240435,0.208721,-0.947959,0.24281400826979108
1760733880.637382,-0.131489,-0.092243,-0.245427,0.956016,0.133342,-0.024502,-0.022838,0.007445,0.055286,0.013763,-0.240914,0.206134,-0.948404,0.24330736338173958
1760733880.666493,-0.130268,-0.092855,-0.245524,0.956099,0.137105,-0.033182,-0.029396,0.008587,0.048447,0.015214,-0.241525,0.203502,-0.948816,0.24393717072700455
1760733880.673053,-0.12908,-0.093557,-0.245657,0.956158,0.137977,-0.042742,-0.034129,0.007064,0.045326,0.013131,-0.242329,0.200875,-0.949171,0.24476572241017686
1760733880.703043,-0.127898,-0.094445,-0.245808,0.956191,0.138104,-0.061389,-0.04056,0.005438,0.041751,0.005874,-0.243491,0.19816,-0.949444,0.24596366772286263
1760733880.731545,-0.126793,-0.095435,-0.245964,0.956199,0.130922,-0.072038,-0.033361,0.00364,0.050194,-0.007019,-0.244883,0.195532,-0.949631,0.24739908178905753
1760733880.743101,-0.125911,-0.096533,-0.246003,0.956196,0.092266,-0.088762,-0.015343,-0.000769,0.065459,-0.017665,-0.246557,0.193295,-0.949656,0.24912598513368509
1760733880.773265,-0.125755,-0.097524,-0.245784,0.956172,-0.005502,-0.096225,0.027255,-0.001404,0.090213,-0.024409,-0.248316,0.192548,-0.94935,0.25094128990886694
1760733880.773598,-0.126884,-0.098063,-0.245199,0.956118,-0.176445,-0.075978,0.095788,0.00202,0.111846,-0.025827,-0.249744,0.194542,-0.948568,0.25241588063188275
1760733880.801926,-0.129965,-0.097778,-0.24407,0.956022,-0.409985,-0.055218,0.175033,0.001955,0.110617,-0.011054,-0.250397,0.200769,-0.947097,0.2530903514784078
1760733880.843802,-0.136842,-0.096247,-0.242079,0.955724,-0.622435,-0.056035,0.256003,0.004042,0.086217,0.011525,-0.250224,0.214969,-0.944021,0.2529116897242698
1760733880.844115,-0.143713,-0.09471,-0.240074,0.955375,-0.834886,-0.056852,0.336973,0.006049,0.061861,0.033912,-0.249971,0.229124,-0.940753,0.25265036676300734
1760733880.873162,-0.152286,-0.093161,-0.237623,0.954812,-0.875521,-0.106979,0.326187,0.003918,0.003321,0.028765,-0.250276,0.246534,-0.93626,0.25296533311761427
1760733880.876843,-0.160912,-0.091243,-0.235224,0.954176,-0.83764,-0.030385,0.320213,0.010572,-0.003984,-0.001174,-0.249824,0.264151,-0.931564,0.2524985818343501
1760733880.9068,-0.168908,-0.089018,-0.232809,0.953596,-0.773945,-0.009792,0.331098,0.003582,-0.000399,0.021411,-0.24842,0.280692,-0.927092,0.25104877186237445
1760733880.935663,-0.176217,-0.086632,-0.230158,0.953137,-0.690214,0.019207,0.356463,0.002738,-0.008576,0.022783,-0.24626,0.29604,-0.922885,0.24881946457193366
1760733880.935987,-0.182449,-0.084251,-0.227332,0.952856,-0.563348,0.040743,0.350907,-0.000678,-0.029424,0.018419,-0.243511,0.30939,-0.919228,0.24598419633543295
1760733880.95437,-0.18723,-0.08205,-0.224706,0.952743,-0.408953,0.06231,0.302116,-0.003073,-0.046084,0.009215,-0.240488,0.31989,-0.916426,0.24286848736691083
1760733880.98447,-0.190545,-0.080154,-0.22259,0.952744,-0.27728,0.076606,0.227262,-0.005176,-0.046513,-0.001343,-0.237559,0.327398,-0.914536,0.23985215964991155
1760733881.012876,-0.192607,-0.078506,-0.221128,0.952807,-0.169104,0.090975,0.151922,-0.008077,-0.042925,-0.005253,-0.234784,0.332315,-0.913479,0.2369962699488445
1760733881.01418,-0.193667,-0.077124,-0.22029,0.952899,-0.087413,0.089802,0.081938,-0.009564,-0.040607,-0.000911,-0.232309,0.335111,-0.91309,0.2344509346850002
1760733881.043984,-0.194055,-0.076128,-0.220062,0.952953,-0.040759,0.072608,0.013963,-0.009984,-0.039892,0.004304,-0.230501,0.336346,-0.913094,0.23259251623755434
1760733881.051854,-0.194174,-0.075513,-0.220376,0.952906,-0.026605,0.051445,-0.043283,-0.006906,-0.036251,0.010591,-0.229495,0.336776,-0.913189,0.23155878186442427
1760733881.0936,-0.194288,-0.075083,-0.221058,0.952758,-0.034576,0.039943,-0.073545,-0.004115,-0.037719,0.017786,-0.228969,0.337023,-0.91323,0.2310183735588257
1760733881.093853,-0.194492,-0.074891,-0.222002,0.952512,-0.042858,0.019252,-0.099437,-0.00366,-0.037044,0.024734,-0.229025,0.337261,-0.913128,0.23107592122191017
1760733881.121857,-0.194822,-0.07488,-0.2231,0.952189,-0.049831,0.012243,-0.108172,-0.003312,-0.032373,0.017553,-0.229529,0.337604,-0.912875,0.2315936425038626
1760733881.153821,-0.195118,-0.074906,-0.224176,0.951873,-0.032614,0.01263,-0.10128,-0.004046,-0.031638,0.010393,-0.230083,0.337871,-0.912636,0.23216303308546438
1760733881.155829,-0.195182,-0.07489,-0.22515,0.951632,-0.003327,0.022871,-0.084357,-0.005117,-0.032129,0.003242,-0.230427,0.337759,-0.912591,0.2325164593884689
1760733881.184142,-0.194888,-0.074826,-0.225942,0.951509,0.036177,0.033006,-0.066078,-0.009077,-0.033086,-0.000453,-0.230463,0.337062,-0.91284,0.2325533634430729
1760733881.191893,-0.194186,-0.074724,-0.226512,0.951525,0.076465,0.036835,-0.054229,-0.011493,-0.040054,-0.003382,-0.230175,0.335693,-0.913417,0.2322573967854473
1760733881.221865,-0.193181,-0.0747,-0.226992,0.951617,0.09895,0.040691,-0.045284,-0.011998,-0.038212,-0.006387,-0.229872,0.333756,-0.914202,0.23194621773736226
1760733881.23953,-0.192073,-0.074578,-0.227385,0.951757,0.092213,0.048422,-0.035222,-0.009593,-0.034952,-0.008507,-0.229309,0.331699,-0.915092,0.23136768172288832
1760733881.269842,-0.191089,-0.074331,-0.227702,0.951899,0.081922,0.053517,-0.029663,-0.009618,-0.035744,-0.008202,-0.228534,0.329945,-0.91592,0.2305714549392316
1760733881.270174,-0.190113,-0.074094,-0.228069,0.952025,0.085363,0.050852,-0.040462,-0.009632,-0.046165,-0.006624,-0.227795,0.328187,-0.916735,0.2298125055694364
1760733881.302186,-0.18903,-0.073997,-0.228576,0.952127,0.102338,0.039657,-0.063293,-0.011699,-0.055247,-0.005679,-0.227324,0.326134,-0.917584,0.22932885593752653
1760733881.332629,-0.187756,-0.074095,-0.229319,0.952192,0.126291,0.030038,-0.090408,-0.011399,-0.055212,-0.005392,-0.227218,0.323577,-0.918515,0.2292200173787076
1760733881.332936,-0.186242,-0.074354,-0.23023,0.95225,0.155874,0.024793,-0.105795,-0.010402,-0.05346,-0.007215,-0.227365,0.320461,-0.919571,0.22937084917164627
1760733881.360571,-0.184435,-0.074731,-0.231187,0.95234,0.184557,0.02274,-0.107334,-0.008984,-0.047684,-0.008341,-0.227617,0.316736,-0.920798,0.2296297244149183
1760733881.394926,-0.182367,-0.075248,-0.23211,0.952473,0.21204,0.012728,-0.099495,-0.007238,-0.040773,-0.006271,-0.228002,0.312468,-0.92216,0.23002511175594104
1760733881.397032,-0.180092,-0.075877,-0.232841,0.952678,0.232211,0.000597,-0.082048,-0.004573,-0.035848,-0.003991,-0.228438,0.307804,-0.923619,0.23047304117225367
1760733881.425735,-0.177764,-0.076655,-0.233344,0.952929,0.235068,-0.016369,-0.058918,-0.002728,-0.028577,-0.002456,-0.229054,0.303019,-0.925048,0.23110572794630227
1760733881.431786,-0.175565,-0.077491,-0.233603,0.953206,0.22239,-0.027173,-0.036082,-0.001406,-0.023609,-0.001036,-0.229756,0.298496,-0.926344,0.23182686379459855
1760733881.460858,-0.173574,-0.078313,-0.233682,0.953484,0.200752,-0.032622,-0.024094,-0.000573,-0.022296,-0.00352,-0.230462,0.294399,-0.927479,0.23255234190551058
1760733881.489555,-0.171836,-0.079049,-0.233672,0.95374,0.168146,-0.024419,-0.01221,0.000949,-0.016653,-0.005801,-0.231091,0.290831,-0.928447,0.23319893954708032
1760733881.492179,-0.170355,-0.079667,-0.233656,0.953959,0.14759,-0.024539,-0.018291,-0.001079,-0.024032,-0.000922,-0.231607,0.287793,-0.929265,0.23372926907272593
1760733881.520672,-0.169009,-0.080313,-0.233771,0.954116,0.135614,-0.022545,-0.033038,-0.000894,-0.024349,-0.000479,-0.232275,0.284958,-0.929972,0.23441592402032463
1760733881.550173,-0.167722,-0.080865,-0.234025,0.954234,0.131996,-0.017748,-0.04551,-0.001561,-0.023682,0.000997,-0.23283,0.282243,-0.930661,0.23498654972306093
1760733881.560624,-0.166464,-0.081411,-0.234378,0.954321,0.127115,-0.011962,-0.052898,-0.000513,-0.023386,0.003106,-0.233416,0.279559,-0.931324,0.2355891720962497
1760733881.591016,-0.165211,-0.081899,-0.234788,0.954396,0.128146,-0.005909,-0.051849,-0.001674,-0.022816,0.004461,-0.233908,0.276895,-0.931996,0.23609521765434754
1760733881.59245,-0.163908,-0.082333,-0.235142,0.954496,0.13,-0.005761,-0.046213,-0.000307,-0.025312,0.007248,-0.234257,0.27418,-0.932711,0.23645413243679933
1760733881.622606,-0.162651,-0.082825,-0.235451,0.954593,0.127108,-0.012959,-0.038748,-1.7e-05,-0.023371,0.009397,-0.234721,0.271528,-0.933369,0.2369316491766296
1760733881.652635,-0.161544,-0.083308,-0.235667,0.954685,0.099357,-0.016504,-0.02257,-0.000878,-0.012543,0.004811,-0.235207,0.269181,-0.933927,0.23743149097937133
1760733881.652807,-0.160804,-0.083685,-0.235722,0.954764,0.057773,-0.013588,-0.006262,0.000757,-0.002247,-0.002101,-0.235609,0.267607,-0.934278,0.23784510256321406
1760733881.690148,-0.160411,-0.083858,-0.235672,0.954827,0.024499,-0.007655,0.002794,0.001861,-0.000641,-0.005889,-0.235749,0.266803,-0.934472,0.23798929853558864
1760733881.692044,-0.160264,-0.083942,-0.235646,0.954851,0.009849,-0.004191,-0.003716,0.002707,-0.002485,-0.005731,-0.235834,0.266495,-0.934539,0.23807663708158558
1760733881.728636,-0.160199,-0.084111,-0.235734,0.954825,0.000557,-0.014148,-0.013894,0.003349,0.006372,-0.003048,-0.236151,0.266269,-0.934523,0.23840293486050018
1760733881.7299,-0.160246,-0.084299,-0.235821,0.954779,-0.004653,-0.0213,-0.009764,0.005181,0.017246,6.5e-05,-0.236552,0.26624,-0.93443,0.23881559114996714
1760733881.76365,-0.160287,-0.084554,-0.23582,0.95475,0.013698,-0.024564,-0.002476,0.004046,0.020767,0.002676,-0.237053,0.266189,-0.934317,0.2393313854830764
1760733881.770521,-0.160041,-0.084859,-0.235747,0.954782,0.050736,-0.028711,0.001529,0.003029,0.020367,0.004877,-0.237503,0.265598,-0.934372,0.2397943651022453
1760733881.799464,-0.159427,-0.085322,-0.235611,0.954877,0.09134,-0.027271,0.00718,0.002743,0.016536,0.007192,-0.238069,0.264261,-0.934606,0.24037731214914776
1760733881.84015,-0.158223,-0.085931,-0.235477,0.955056,0.128117,-0.032259,-0.004762,0.000872,0.011312,0.00662,-0.238653,0.261754,-0.935163,0.24097850389164208
1760733881.840404,-0.157018,-0.08654,-0.235343,0.955233,0.164894,-0.037247,-0.016704,-0.000999,0.006089,0.006041,-0.239238,0.259245,-0.935712,0.241581017855407
1760733881.869503,-0.155475,-0.087258,-0.23533,0.955423,0.17784,-0.026779,-0.024113,0.00183,0.008403,0.002615,-0.239912,0.25602,-0.936427,0.24227526015655432
1760733881.870274,-0.153792,-0.087922,-0.235395,0.955618,0.185341,-0.017846,-0.028855,0.002021,0.007596,0.002205,-0.240444,0.25254,-0.937235,0.242823341803252
1760733881.901131,-0.151993,-0.088568,-0.235531,0.955813,0.199458,-0.014157,-0.035534,0.002538,0.004542,0.002826,-0.240907,0.248833,-0.938107,0.2433004166249946
1760733881.930497,-0.150003,-0.089309,-0.235789,0.955995,0.222513,-0.026067,-0.058486,0.003789,0.000133,0.007476,-0.241497,0.244688,-0.939046,0.2439081651456215
1760733881.934305,-0.147809,-0.090277,-0.236202,0.956144,0.245101,-0.03792,-0.079117,0.00599,0.001052,0.006288,-0.242462,0.240006,-0.940005,0.24490276021230276
1760733881.967377,-0.145464,-0.09137,-0.236726,0.95627,0.253724,-0.048395,-0.087845,0.004469,0.00631,0.005407,-0.243618,0.234946,-0.940984,0.2460944752919268
1760733881.968607,-0.143093,-0.092609,-0.237268,0.956374,0.258139,-0.054009,-0.081308,0.00359,0.013781,0.006359,-0.24504,0.229755,-0.941896,0.2475609455422419
1760733881.998653,-0.140611,-0.093928,-0.237671,0.956514,0.27709,-0.061413,-0.068261,0.003874,0.014451,0.005705,-0.246525,0.224344,-0.942812,0.24909303666054755
1760733882.028031,-0.137904,-0.09532,-0.237928,0.956706,0.310215,-0.068406,-0.058239,-4.4e-05,0.013243,0.003429,-0.248009,0.218508,-0.943793,0.250624575391975
1760733882.03183,-0.13484,-0.096868,-0.238063,0.956954,0.35651,-0.075198,-0.059031,-0.000682,0.00738,-0.000998,-0.249597,0.21195,-0.94487,0.25226396012456676
1760733882.061618,-0.131357,-0.098633,-0.23821,0.957221,0.399436,-0.082952,-0.070898,0.00104,0.004178,-0.002789,-0.251408,0.204484,-0.946034,0.2541347025803069
1760733882.07314,-0.127556,-0.100519,-0.238441,0.957482,0.424619,-0.090775,-0.087126,0.002774,0.003481,-0.001471,-0.253319,0.196329,-0.947251,0.25610962219405925
1760733882.103144,-0.123633,-0.102568,-0.238816,0.957686,0.425289,-0.098504,-0.097023,0.003551,0.005378,0.000912,-0.255507,0.187813,-0.948389,0.25837217313579625
1760733882.133853,-0.119773,-0.104555,-0.239192,0.957867,0.414728,-0.095763,-0.091888,0.00432,0.004558,0.004817,-0.257596,0.179436,-0.949445,0.2605335746292332
1760733882.134138,-0.116035,-0.106646,-0.239527,0.958013,0.40204,-0.111492,-0.091344,-0.000286,0.001009,0.008908,-0.259923,0.171237,-0.950325,0.26294250414722664
1760733882.161784,-0.112438,-0.108801,-0.239852,0.958119,0.385932,-0.11324,-0.084852,0.000446,0.006126,0.001443,-0.262425,0.163266,-0.95104,0.26553445884005616
1760733882.176782,-0.109071,-0.110794,-0.240066,0.958226,0.358654,-0.108099,-0.074413,-8.2e-05,0.006515,-0.002569,-0.264699,0.155834,-0.951657,0.2678916599464034
1760733882.207149,-0.105971,-0.112684,-0.240258,0.958305,0.32823,-0.09892,-0.065309,-0.000486,0.008358,-0.003145,-0.266891,0.148958,-0.952145,0.27016564934416404
1760733882.208527,-0.103144,-0.114383,-0.240396,0.958378,0.296866,-0.089806,-0.057567,-0.000193,0.009774,0.000979,-0.268835,0.142708,-0.952556,0.2721831931334952
1760733882.23986,-0.100606,-0.115949,-0.240537,0.958424,0.264726,-0.086058,-0.05743,0.000864,0.009229,0.003763,-0.270655,0.137067,-0.952869,0.27407324558395807
1760733882.284868,-0.098501,-0.117308,-0.240716,0.958432,0.240327,-0.080756,-0.057697,0.000657,0.007377,0.0054,-0.272285,0.132337,-0.953073,0.27576691243310875
1760733882.285171,-0.096395,-0.118667,-0.240893,0.958434,0.215928,-0.075454,-0.057964,0.000445,0.005529,0.007013,-0.273911,0.127604,-0.953252,0.27745730110785755
1760733882.286826,-0.094502,-0.119917,-0.241151,0.958403,0.201354,-0.069026,-0.061782,0.000555,0.00504,0.006348,-0.275435,0.123305,-0.953379,0.27904216458332176
1760733882.315739,-0.092749,-0.121103,-0.241469,0.958345,0.183754,-0.061671,-0.061926,0.000741,0.004874,0.005146,-0.276908,0.119286,-0.953463,0.280574942739887
1760733882.346069,-0.091142,-0.1221,-0.241818,0.958284,0.166962,-0.049009,-0.060152,2.5e-05,0.00229,0.004338,-0.278092,0.115627,-0.95357,0.2818071100249247
1760733882.347387,-0.089628,-0.122939,-0.242166,0.958232,0.158288,-0.041116,-0.059646,0.000216,-0.003477,0.006079,-0.279018,0.112226,-0.953706,0.28277122086780204
1760733882.377921,-0.088166,-0.123717,-0.242512,0.95818,0.151144,-0.036456,-0.061542,-0.000722,-0.010095,0.006593,-0.279849,0.108952,-0.953842,0.2836367392284625
1760733882.407496,-0.086785,-0.124524,-0.242888,0.958106,0.139193,-0.03988,-0.057894,-0.001826,-0.012451,0.005528,-0.280772,0.105809,-0.953924,0.28459844953492797
1760733882.409425,-0.085547,-0.125243,-0.243209,0.958042,0.125311,-0.041446,-0.050041,-0.001834,-0.013619,0.002633,-0.281587,0.102995,-0.953992,0.2854476418113308
1760733882.439805,-0.084454,-0.126018,-0.243515,0.95796,0.11222,-0.046412,-0.046337,-0.001494,-0.012853,0.001995,-0.282573,0.100433,-0.953974,0.2864752689428025
1760733882.467862,-0.083466,-0.126825,-0.243748,0.957881,0.106314,-0.053334,-0.039129,-0.002107,-0.011881,-0.002124,-0.283656,0.098074,-0.953898,0.28760447599184413
1760733882.469907,-0.082578,-0.127635,-0.243944,0.9578,0.102072,-0.057285,-0.034599,-0.001195,-0.012016,-0.005037,-0.284786,0.095914,-0.953781,0.28878306400110015
1760733882.512307,-0.081695,-0.128487,-0.244071,0.95773,0.100411,-0.061333,-0.025878,-0.001823,-0.00891,-0.0043,-0.28599,0.093764,-0.953634,0.2900394549561429
1760733882.51444,-0.080798,-0.129391,-0.244121,0.957671,0.109451,-0.067632,-0.022295,-0.003205,-0.005538,-0.001163,-0.287277,0.091583,-0.953459,0.2913828507838038
1760733882.547265,-0.079815,-0.130404,-0.244133,0.957613,0.12148,-0.072346,-0.019813,-0.004087,-0.002325,-0.001814,-0.288724,0.089192,-0.953249,0.29289374748957503
1760733882.549345,-0.078723,-0.131362,-0.244092,0.957583,0.136942,-0.066143,-0.013237,-0.001757,-0.001334,-0.001581,-0.290011,0.08664,-0.953094,0.294238173736653
1760733882.583683,-0.077505,-0.132313,-0.243982,0.95758,0.14422,-0.058112,-0.012685,-0.00127,-0.001127,-0.001532,-0.291219,0.083871,-0.952973,0.2955007614826252
1760733882.586028,-0.076184,-0.133208,-0.243878,0.957588,0.154292,-0.052356,-0.015905,-0.000261,-0.000232,-0.000314,-0.292276,0.080932,-0.952903,0.2966059920521674
1760733882.618813,-0.074763,-0.134104,-0.243798,0.957595,0.159034,-0.048582,-0.017402,-0.001024,0.000853,0.002528,-0.293289,0.077797,-0.952853,0.297665375420075
1760733882.648037,-0.073354,-0.134908,-0.243717,0.957612,0.149057,-0.039516,-0.015339,-0.000799,-0.000214,0.003231,-0.294134,0.07473,-0.952838,0.2985493667879579
1760733882.650786,-0.072008,-0.135635,-0.24363,0.957634,0.137258,-0.034423,-0.009874,-0.001132,-0.002055,0.007311,-0.294863,0.071826,-0.952836,0.29931220180159807
1760733882.685875,-0.070837,-0.136307,-0.243543,0.957648,0.118834,-0.032707,-0.011275,-0.000758,-0.000824,0.008679,-0.295572,0.069279,-0.952805,0.3000542531080726
1760733882.68807,-0.069875,-0.136845,-0.243471,0.95766,0.089351,-0.030776,-0.004365,-0.000656,0.004672,0.009254,-0.296127,0.067198,-0.952782,0.30063517616403623
1760733882.742389,-0.069367,-0.137199,-0.243343,0.957679,0.063194,-0.024222,0.001299,-0.000824,0.005012,0.007118,-0.296546,0.06609,-0.952729,0.30107393474100247
1760733882.742699,-0.068859,-0.137553,-0.243216,0.957697,0.037037,-0.017669,0.006963,-0.000992,0.005352,0.004981,-0.296964,0.064982,-0.952675,0.30151165737386837
1760733882.746957,-0.068648,-0.137784,-0.243092,0.957711,0.024049,-0.014934,0.007905,-0.000882,7.9e-05,0.003158,-0.297289,0.064501,-0.952606,0.30185212472860834
1760733882.775225,-0.068426,-0.13798,-0.243006,0.95772,0.035028,-0.014176,-0.001185,0.001747,-0.002985,0.00331,-0.297549,0.064005,-0.952559,0.3021242338199227
1760733882.789338,-0.068025,-0.138312,-0.243051,0.957689,0.058275,-0.031696,-0.022628,-0.002863,-0.00837,0.009038,-0.297988,0.063059,-0.952485,0.30258405242054726
1760733882.819318,-0.067441,-0.138849,-0.243243,0.957604,0.070384,-0.042304,-0.036507,-0.002156,-0.006357,0.006798,-0.298733,0.061616,-0.952346,0.30336462246264
1760733882.849061,-0.066857,-0.139436,-0.243512,0.957491,0.060725,-0.040308,-0.041134,-0.001949,-0.003624,0.000572,-0.299578,0.060121,-0.952176,0.30425020687865983
1760733882.849352,-0.066338,-0.140013,-0.24384,0.95736,0.051465,-0.037444,-0.043263,-0.002721,-0.002841,-0.005291,-0.300437,0.058736,-0.951991,0.3051509177961888
1760733882.878861,-0.065886,-0.140519,-0.244206,0.957224,0.044991,-0.034125,-0.050252,-0.001446,0.000408,-0.008596,-0.301195,0.057504,-0.951827,0.3059456369562918
1760733882.891863,-0.065494,-0.140937,-0.244638,0.957079,0.036246,-0.026217,-0.053049,0.001581,0.002453,-0.007692,-0.30182,0.056409,-0.951695,0.3066010017000487
1760733882.921893,-0.065186,-0.141324,-0.245093,0.956926,0.021301,-0.027519,-0.050869,-0.001316,0.000372,-0.002185,-0.302426,0.055482,-0.951557,0.30723674026563064
1760733882.925873,-0.064992,-0.141751,-0.245513,0.956768,0.021185,-0.034601,-0.048595,-7.4e-05,0.000606,0.0048,-0.303159,0.054761,-0.951365,0.3080059960426734
1760733882.954518,-0.064784,-0.142175,-0.245878,0.956626,0.027715,-0.045254,-0.044408,0.00076,-0.001964,0.007412,-0.303875,0.054033,-0.951179,0.30875719613129005
1760733882.984078,-0.064567,-0.142692,-0.246187,0.956484,0.028382,-0.043355,-0.033518,0.001472,-0.000788,0.002664,-0.304757,0.053257,-0.95094,0.3096832787256717
1760733882.994302,-0.064373,-0.143174,-0.246379,0.956376,0.020534,-0.039181,-0.017966,0.000629,0.002152,0.002719,-0.305577,0.05258,-0.950714,0.31054450567379305
1760733883.024347,-0.064331,-0.143605,-0.246433,0.9563,0.008081,-0.037203,0.001529,0.000372,0.005715,0.004303,-0.306365,0.052262,-0.950478,0.3113721712703919
1760733883.028138,-0.064419,-0.143918,-0.246275,0.956288,-0.007732,-0.034752,0.028255,0.000977,0.009132,0.006278,-0.306984,0.052319,-0.950276,0.31202223875511964
1760733883.106477,-0.064965,-0.144096,-0.24583,0.956339,-0.028698,-0.034328,0.036493,-0.000527,0.007581,0.006254,-0.30755,0.053411,-0.950032,0.3126170749053852
1760733883.107407,-0.065511,-0.144274,-0.245384,0.956389,-0.049664,-0.033904,0.044731,-0.002033,0.006031,0.006229,-0.308115,0.054504,-0.949787,0.31321085504076324
1760733883.108109,-0.066058,-0.144452,-0.244938,0.956439,-0.07063,-0.03348,0.05297,-0.00354,0.00448,0.006203,-0.308678,0.055597,-0.94954,0.3138029523797405
1760733883.109195,-0.066874,-0.144467,-0.244494,0.956493,-0.078034,-0.019834,0.053008,0.000778,0.003933,0.004563,-0.309064,0.057286,-0.949315,0.3142084936041425
1760733883.13753,-0.067535,-0.144422,-0.244327,0.956497,-0.05344,-0.001648,-0.005106,-0.012234,-0.019768,-0.013123,-0.309279,0.058621,-0.949163,0.3144347143412151
1760733883.174757,-0.068138,-0.144588,-0.244273,0.956443,-0.064848,-0.015818,0.000752,-0.003387,0.000489,-0.001858,-0.309869,0.059702,-0.948903,0.3150552428419874
1760733883.176897,-0.068762,-0.144537,-0.244254,0.956411,-0.053905,-0.006259,0.001848,0.000421,0.010855,-0.005414,-0.310063,0.060922,-0.948762,0.3152593160459368
1760733883.205416,-0.069278,-0.144469,-0.244321,0.956366,-0.042264,-0.013029,-0.01028,-0.000923,0.004447,7.3e-05,-0.310182,0.061917,-0.948659,0.31538438961088955
1760733883.208251,-0.069579,-0.144569,-0.244514,0.95628,-0.016592,-0.022019,-0.022329,0.000992,0.005237,0.002335,-0.310522,0.062377,-0.948517,0.31574224364249914
1760733883.236505,-0.069653,-0.144896,-0.244753,0.956164,0.00925,-0.041856,-0.032953,0.001621,0.005857,0.006873,-0.311184,0.062271,-0.948307,0.3164387463740869
1760733883.267235,-0.069531,-0.145458,-0.244935,0.956041,0.034039,-0.053043,-0.027318,0.004493,0.009371,0.0084,-0.312188,0.061694,-0.948015,0.3174952824963321
1760733883.268513,-0.069184,-0.14614,-0.245076,0.955926,0.055899,-0.062015,-0.02213,0.001915,0.009017,0.008805,-0.313309,0.060638,-0.947713,0.31867557058302953
1760733883.297558,-0.068748,-0.146948,-0.245097,0.955828,0.070821,-0.062249,-0.014828,0.000565,0.003056,0.003009,-0.314613,0.05939,-0.94736,0.32004900926484947
1760733883.328444,-0.068091,-0.147808,-0.245048,0.955755,0.095852,-0.077439,-0.009514,-0.00208,-0.000735,0.005561,-0.315908,0.057716,-0.947033,0.3214134264058006
1760733883.329723,-0.067293,-0.148834,-0.244899,0.955691,0.10922,-0.080357,-0.004804,-0.003766,-0.001453,0.002714,-0.317438,0.055724,-0.94664,0.323026635588862
1760733883.360111,-0.066471,-0.149912,-0.244686,0.955634,0.105548,-0.080192,0.008262,-0.001484,0.000124,0.001414,-0.31905,0.053681,-0.946216,0.3247270538060265
1760733883.398716,-0.065773,-0.150794,-0.24424,0.955658,0.09453,-0.068493,0.021285,-0.001605,-0.00507,-0.001708,-0.320344,0.052054,-0.94587,0.32609260960650693
1760733883.399058,-0.065076,-0.151676,-0.243793,0.95568,0.083512,-0.056795,0.034307,-0.001726,-0.010265,-0.004834,-0.321638,0.050428,-0.945519,0.3274588754877464
1760733883.429694,-0.064468,-0.152445,-0.243364,0.955708,0.08076,-0.059861,0.023902,-0.001506,-0.015472,0.000487,-0.322764,0.049027,-0.945209,0.328648283357369
1760733883.431832,-0.063942,-0.153177,-0.242985,0.955723,0.067948,-0.061165,0.008481,0.000696,-0.014342,0.002645,-0.323863,0.047783,-0.944897,0.3298095731985069
1760733883.461424,-0.063572,-0.154024,-0.242827,0.955652,0.048418,-0.074357,0.000757,-0.003329,-0.015296,0.004749,-0.325261,0.046703,-0.94447,0.3312878144163212
1760733883.467489,-0.063355,-0.154872,-0.242739,0.955551,0.034084,-0.078475,-0.010478,-0.002844,-0.010043,0.0043,-0.326734,0.04589,-0.944002,0.33284570847080447
1760733883.508621,-0.063211,-0.155685,-0.242781,0.955418,0.028618,-0.082873,-0.019619,-0.004063,-0.010849,0.003508,-0.328182,0.045192,-0.943533,0.3343782896058687
1760733883.509964,-0.063153,-0.156553,-0.242856,0.955261,0.019878,-0.073096,-0.017624,-0.005355,-0.006737,-0.003104,-0.329773,0.044616,-0.943006,0.33606291606045613
1760733883.542272,-0.063134,-0.157312,-0.242963,0.955111,0.023634,-0.064545,-0.020683,-0.007289,-0.00436,-0.000607,-0.331179,0.044158,-0.942534,0.33755284923475565
1760733883.547161,-0.062933,-0.157977,-0.243046,0.954993,0.04356,-0.054621,-0.020973,-0.007678,-0.003374,-0.003437,-0.332325,0.043409,-0.942165,0.33876776491455524
1760733883.5756,-0.062533,-0.158606,-0.243121,0.954896,0.054853,-0.042273,-0.018965,-0.008213,0.000112,0.000297,-0.333311,0.042304,-0.941867,0.3398133457716178
1760733883.623865,-0.062002,-0.159035,-0.243182,0.954844,0.05752,-0.025738,-0.016697,-0.007201,0.002034,0.000609,-0.333863,0.041055,-0.941727,0.340398804425088
1760733883.62424,-0.06147,-0.159464,-0.243242,0.954791,0.060188,-0.009203,-0.014428,-0.00619,0.003957,0.000918,-0.334414,0.039806,-0.941585,0.34098344140664805
1760733883.625653,-0.060965,-0.159627,-0.243274,0.954788,0.035221,0.002407,-0.009838,-0.004959,0.005741,0.00291,-0.334481,0.038751,-0.941605,0.34105460602270976
1760733883.653119,-0.060677,-0.159594,-0.243293,0.954807,0.011159,0.006915,-0.009012,-0.003631,0.002302,0.005366,-0.334288,0.038213,-0.941696,0.3408496577934457
1760733883.683052,-0.060644,-0.15948,-0.24338,0.954806,-0.015421,0.017981,-0.000643,0.000217,0.003936,0.004233,-0.334064,0.038178,-0.941777,0.34061196338574906
1760733883.713378,-0.060821,-0.159228,-0.243471,0.954814,-0.029503,0.016416,-0.005071,-0.001014,0.000105,0.005933,-0.333682,0.038612,-0.941895,0.3402066169199733
1760733883.713733,-0.061147,-0.158962,-0.243589,0.954807,-0.044038,0.015384,-0.0075,-0.000602,0.003433,0.004757,-0.333345,0.039324,-0.941984,0.33984943902058495
1760733883.742025,-0.061579,-0.158732,-0.243743,0.954778,-0.051192,0.009314,-0.008322,-0.000988,0.00523,0.004496,-0.333127,0.040209,-0.942024,0.33961814284934316
1760733883.745748,-0.062081,-0.158504,-0.243933,0.954735,-0.057272,0.007861,-0.011704,1e-06,0.006379,0.005839,-0.332947,0.041213,-0.942045,0.3394269945123986
1760733883.774729,-0.062626,-0.158368,-0.244185,0.954658,-0.054507,0.001335,-0.011206,-0.000725,0.00677,0.005833,-0.332959,0.042231,-0.941995,0.33943994397736366
1760733883.827672,-0.063028,-0.158296,-0.244322,0.954608,-0.043189,0.000727,-0.007455,-0.002989,0.004422,0.002616,-0.333019,0.042983,-0.94194,0.33950350065605645
1760733883.82801,-0.063429,-0.158223,-0.244459,0.954558,-0.03187,0.000119,-0.003705,-0.005253,0.002074,-0.000602,-0.333079,0.043736,-0.941884,0.33956717390105073
1760733883.8293,-0.06367,-0.158038,-0.244539,0.954553,-0.026705,0.018533,-0.002374,0.000104,0.004632,-0.005907,-0.33285,0.044261,-0.94194,0.3393244583839453
1760733883.858818,-0.063852,-0.157744,-0.244591,0.954576,-0.026726,0.033635,0.004647,-0.001208,0.004138,-0.002811,-0.332392,0.044738,-0.94208,0.3388385349529055
1760733883.865709,-0.063998,-0.15732,-0.244636,0.954624,-0.016644,0.032961,-0.002015,-0.002925,0.00462,0.002302,-0.331676,0.045215,-0.942309,0.338079654393139
1760733883.894182,-0.064011,-0.157092,-0.244723,0.954639,-0.000521,0.015842,-0.013485,-0.001643,0.002182,0.006292,-0.331262,0.045327,-0.94245,0.337640594827778
1760733883.924781,-0.063938,-0.156999,-0.244922,0.954608,0.009867,0.011395,-0.028326,-0.000119,0.001507,0.003024,-0.331064,0.045166,-0.942527,0.3374308538077552
1760733883.926129,-0.063668,-0.156935,-0.245222,0.95456,0.023505,0.017479,-0.035635,-0.000398,0.0036,-0.001918,-0.330833,0.044582,-0.942636,0.3371860293147837
1760733883.955867,-0.063307,-0.156784,-0.24557,0.954519,0.023654,0.026339,-0.036791,-0.001686,0.006872,-8.9e-05,-0.3304,0.043852,-0.942822,0.336727259636371
1760733883.986046,-0.063002,-0.156659,-0.245861,0.954485,0.018849,0.025935,-0.02206,-0.002106,0.010594,0.003064,-0.330037,0.043237,-0.942977,0.33634286167130073
1760733883.988178,-0.062753,-0.156381,-0.246,0.954511,0.014313,0.03806,-0.006637,-0.003549,0.01068,-0.00014,-0.329409,0.042858,-0.943214,0.33567761573378174
1760733884.016906,-0.062514,-0.156046,-0.246027,0.954574,0.017616,0.04179,0.001418,-0.004025,0.006755,-0.000238,-0.328676,0.042565,-0.943483,0.3349013714269586
1760733884.024248,-0.062216,-0.155631,-0.246007,0.954667,0.018455,0.043215,0.000733,-0.003704,0.005674,0.001801,-0.327763,0.042219,-0.943816,0.3339348596977056
1760733884.05432,-0.061916,-0.155341,-0.24605,0.954722,0.020863,0.03575,-0.0051,-0.004247,0.001712,0.003355,-0.327084,0.041781,-0.944071,0.33321625181240605
1760733884.084558,-0.061615,-0.155061,-0.246098,0.954775,0.022275,0.029394,-0.012857,-0.002893,-0.001059,0.001837,-0.326423,0.041336,-0.94432,0.33251664531140446
1760733884.084909,-0.061225,-0.154845,-0.246235,0.9548,0.033613,0.023872,-0.020558,-0.001428,-0.003071,0.007284,-0.325843,0.040659,-0.944549,0.33190331881030766
1760733884.123793,-0.060795,-0.154804,-0.24645,0.954779,0.037558,0.010154,-0.031707,-0.003729,-0.007186,0.008116,-0.325572,0.039789,-0.94468,0.33161652272272957
1760733884.125853,-0.060338,-0.154871,-0.246697,0.954733,0.034783,0.013063,-0.030402,0.000231,-0.001941,0.00062,-0.32549,0.0388,-0.944749,0.33152992656875846
1760733884.154906,-0.059953,-0.154787,-0.246931,0.95471,0.024908,0.020593,-0.028223,-0.00076,-0.000536,-0.002043,-0.325161,0.038032,-0.944893,0.3311821655777523
1760733884.184797,-0.059669,-0.154734,-0.247198,0.954668,0.016284,0.015442,-0.026413,-0.000527,0.000816,0.004405,-0.324938,0.037428,-0.944994,0.330946304054666
1760733884.186893,-0.059469,-0.154692,-0.247422,0.954629,0.006504,0.007219,-0.022042,-0.001128,-0.000289,0.006045,-0.324775,0.036993,-0.945067,0.330774008254341
1760733884.215129,-0.059415,-0.154659,-0.247632,0.954583,-0.003199,0.005703,-0.016524,-9.1e-05,-0.000701,0.004982,-0.324695,0.036837,-0.945101,0.3306892884651742
1760733884.230476,-0.059406,-0.154586,-0.247837,0.954542,-0.004805,0.007393,-0.017845,-0.000837,-0.00253,0.000231,-0.324564,0.036787,-0.945148,0.33055076894388274
1760733884.260439,-0.059399,-0.154512,-0.248041,0.954502,-0.005175,0.011746,-0.019503,1.9e-05,-0.001526,0.002762,-0.324431,0.036742,-0.945196,0.3304099695101015
1760733884.264239,-0.059371,-0.154373,-0.248263,0.954468,-0.003919,0.01709,-0.016959,-0.001656,-0.003698,0.002723,-0.324167,0.036685,-0.945288,0.3301311419077023
1760733884.294221,-0.059342,-0.154231,-0.248485,0.954435,-0.005438,0.016449,-0.021078,-0.001269,-0.005341,0.002869,-0.323897,0.036628,-0.945383,0.32984566513415203
1760733884.323035,-0.059313,-0.154088,-0.248707,0.954402,-0.006418,0.019533,-0.021539,0.000451,-0.004571,0.000402,-0.323628,0.036572,-0.945477,0.3295614443184372
1760733884.325894,-0.059335,-0.153884,-0.248942,0.954372,-0.012996,0.019019,-0.01983,-0.000718,-0.002024,0.000669,-0.323267,0.03664,-0.945598,0.3291798906531324
1760733884.363872,-0.059339,-0.153611,-0.249195,0.95435,-0.011132,0.023938,-0.022401,0.000861,-0.000362,0.000172,-0.322772,0.036702,-0.945765,0.32865674667234107
1760733884.365725,-0.059422,-0.153346,-0.249402,0.954334,-0.021298,0.020446,-0.017091,-0.000601,-0.001215,0.001326,-0.322327,0.036928,-0.945908,0.32818660594168547
1760733884.402387,-0.05957,-0.153162,-0.249648,0.95429,-0.023385,0.020934,-0.017232,0.001557,-0.000561,0.001665,-0.322065,0.037221,-0.945986,0.3279097685720922
1760733884.403668,-0.059707,-0.15292,-0.249873,0.954261,-0.020509,0.018547,-0.015302,0.001618,-0.000543,0.001674,-0.32169,0.037532,-0.946101,0.32751378676972387
1760733884.434827,-0.059853,-0.152683,-0.250056,0.954242,-0.025904,0.016039,-0.01187,0.000949,0.001102,0.002856,-0.321327,0.037871,-0.946211,0.3271303822775848
1760733884.467028,-0.060058,-0.152473,-0.250214,0.954221,-0.027294,0.013548,-0.009123,0.000782,0.00333,0.002066,-0.321042,0.038316,-0.94629,0.3268293803933816
1760733884.467345,-0.060309,-0.152314,-0.250331,0.9542,-0.027655,0.007885,-0.006091,0.002257,0.002167,0.003024,-0.320871,0.038835,-0.946326,0.3266490977674622
1760733884.495558,-0.060523,-0.152197,-0.250452,0.954173,-0.018436,0.006134,-0.00316,0.000484,0.002747,0.002735,-0.32076,0.039262,-0.946346,0.3265319064236874
1760733884.526894,-0.060666,-0.152112,-0.250479,0.954171,-0.015958,0.002451,0.000188,0.000887,0.004049,0.002732,-0.320672,0.03957,-0.946363,0.32643899682374766
1760733884.527198,-0.060817,-0.152034,-0.250462,0.954178,-0.01336,9.9e-05,0.004892,0.000892,0.004066,0.002732,-0.3206,0.039903,-0.946374,0.32636279511612737
1760733884.558529,-0.060939,-0.152003,-0.250409,0.954189,-0.006719,-0.00358,0.007529,0.000572,0.003451,0.003407,-0.320598,0.04017,-0.946363,0.3263608060201823
1760733884.560836,-0.061071,-0.151979,-0.250314,0.954209,-0.020368,-0.006278,0.009752,0.000343,0.002075,0.002056,-0.320612,0.040463,-0.946346,0.32637551406948134
1760733884.590141,-0.061317,-0.151973,-0.250273,0.954205,-0.020676,-0.007667,0.008404,0.000569,0.003441,0.003408,-0.320719,0.040949,-0.946289,0.32648842726474125
1760733884.62673,-0.061554,-0.152046,-0.250279,0.954177,-0.019341,-0.013926,0.00053,0.00196,0.001526,0.003722,-0.320968,0.041358,-0.946186,0.32675157709652847
1760733884.659703,-0.061766,-0.152136,-0.250309,0.954141,-0.015682,-0.015152,0.001146,0.000132,0.002135,0.003411,-0.32124,0.041704,-0.946079,0.32703862602434985
1760733884.661838,-0.061978,-0.152227,-0.25034,0.954105,-0.016275,-0.014224,0.000308,0.000675,0.003415,0.002729,-0.321512,0.04205,-0.945971,0.32732595417221677
1760733884.690669,-0.062165,-0.152307,-0.250361,0.954074,-0.014735,-0.014373,0.000201,-0.000191,0.003702,0.002232,-0.321752,0.042356,-0.945876,0.3275793397628049
1760733884.721075,-0.062338,-0.152425,-0.250381,0.954039,-0.011479,-0.013812,-0.000907,-0.000518,0.003812,0.001299,-0.322055,0.042617,-0.945761,0.3278994232304662
1760733884.739197,-0.062474,-0.152548,-0.250411,0.954002,-0.008076,-0.012659,-0.004046,-0.000383,0.0034,0.001255,-0.32235,0.042802,-0.945652,0.32821108629985846
1760733884.742956,-0.062581,-0.152639,-0.250457,0.953969,-0.005731,-0.010834,-0.006979,-0.000373,0.002848,0.000889,-0.322573,0.042942,-0.94557,0.32844654430987624
1760733884.773078,-0.06265,-0.152731,-0.250533,0.953929,-0.002836,-0.011238,-0.008811,0.00016,0.003497,0.002507,-0.322781,0.042998,-0.945496,0.3286664513962824
1760733884.80331,-0.062679,-0.152845,-0.250628,0.953884,0.002237,-0.011178,-0.012001,-0.00073,0.002735,0.001773,-0.323011,0.042964,-0.94542,0.3289091446652565
1760733884.80363,-0.062647,-0.153007,-0.25076,0.953826,0.006697,-0.012532,-0.015337,-0.00117,0.002357,0.001409,-0.323302,0.042773,-0.945329,0.3292167041311021
1760733884.831312,-0.062583,-0.153193,-0.250909,0.953761,0.008134,-0.015158,-0.016299,-0.001785,0.003407,0.002878,-0.323624,0.042505,-0.94523,0.32955729031588027
1760733884.874974,-0.062497,-0.153332,-0.251021,0.953715,0.012878,-0.011164,-0.011454,-0.000649,0.003077,0.002803,-0.323845,0.042229,-0.945167,0.3297907649077706
1760733884.876052,-0.062357,-0.153503,-0.251091,0.953678,0.017409,-0.012886,-0.004279,-0.003066,0.002428,0.003754,-0.3241,0.04185,-0.945097,0.33006012364396287
1760733884.881783,-0.062217,-0.153649,-0.251061,0.953672,0.014428,-0.0083,0.003164,-0.002952,0.003899,6.6e-05,-0.324302,0.041519,-0.945042,0.3302737555539954
1760733884.911838,-0.062124,-0.153657,-0.250948,0.953706,0.007348,0.006198,0.013902,-0.00216,0.004749,-0.002711,-0.324267,0.041377,-0.94506,0.3302368330974972
1760733884.942324,-0.062106,-0.153503,-0.250775,0.953777,-0.003168,0.021607,0.020538,-0.001476,0.002097,-0.002451,-0.323965,0.041481,-0.945159,0.32991760290420974
1760733884.942648,-0.062134,-0.153286,-0.250615,0.953853,-0.007857,0.020106,0.015752,-0.001652,-0.002386,0.003826,-0.323568,0.041702,-0.945286,0.3294977625654252
1760733884.970568,-0.06218,-0.153106,-0.250518,0.953904,-0.005106,0.009506,0.008237,-0.001234,-0.002892,0.007254,-0.323252,0.041916,-0.945384,0.3291640236400006
1760733885.00114,-0.062222,-0.153041,-0.250471,0.953924,-0.001906,0.002213,0.002085,-0.000817,-0.001342,0.004937,-0.323149,0.042045,-0.945414,0.32905501558695255
1760733885.002385,-0.06223,-0.153018,-0.25046,0.95393,-0.000929,0.001079,0.001016,-0.00034,-0.000301,0.002757,-0.32311,0.042075,-0.945426,0.3290138032062679
1760733885.031554,-0.062221,-0.153016,-0.250467,0.953929,0.000486,0.000212,0.000655,6.8e-05,0.001268,0.002743,-0.323101,0.042059,-0.945429,0.329004547380127
1760733885.043104,-0.062202,-0.153039,-0.250452,0.953931,0.002059,-0.002753,0.002897,-0.001778,0.002341,0.002766,-0.323134,0.042016,-0.94542,0.32903929959454337
1760733885.073115,-0.062195,-0.153069,-0.250392,0.953942,0.001003,-0.00509,0.006633,-0.001158,0.002357,0.002317,-0.323184,0.042007,-0.945403,0.3290922342412646
1760733885.108828,-0.062212,-0.153125,-0.25031,0.953953,-0.00116,-0.004177,0.009535,-0.001386,0.002167,0.001666,-0.323293,0.042037,-0.945365,0.3292072231954175
1760733885.111062,-0.062242,-0.15315,-0.250215,0.953972,0.000227,-0.003793,0.009155,-0.000887,0.00112,0.002213,-0.32335,0.042113,-0.945342,0.3292674981407016
1760733885.128087,-0.062253,-0.153178,-0.250138,0.953987,0.000368,-0.004926,0.003175,-0.001118,0.000769,0.002398,-0.323404,0.042147,-0.945322,0.32932456833985324
1760733885.158445,-0.062258,-0.153235,-0.250103,0.953987,0.002662,-0.005464,-0.000102,-0.000982,-0.000236,0.002567,-0.323511,0.042137,-0.945286,0.3294375932600161
1760733885.160751,-0.062227,-0.153337,-0.250105,0.953972,0.004619,-0.005256,0.000594,-0.00069,-4.3e-05,0.00265,-0.323686,0.042024,-0.945231,0.3296225838089483
1760733885.189022,-0.062182,-0.153436,-0.250068,0.953969,0.005606,-0.00819,0.001088,-0.002534,-0.000799,0.003153,-0.323845,0.0419,-0.945182,0.32979064907749556
1760733885.219973,-0.062155,-0.153587,-0.250024,0.953958,0.004362,-0.009791,0.004703,-0.002751,0.000127,0.001981,-0.324112,0.041785,-0.945096,0.33007273090886075
1760733885.221113,-0.062171,-0.153646,-0.249957,0.953965,-0.001611,-0.00196,0.010281,-0.002698,0.000143,-0.000356,-0.324225,0.041808,-0.945056,0.3301922534472533
1760733885.250612,-0.062246,-0.153588,-0.249838,0.954,-0.010455,0.006828,0.013251,-0.002641,-0.000619,2.1e-05,-0.324149,0.042022,-0.945072,0.3301121021739695
1760733885.305509,-0.062388,-0.153467,-0.249728,0.95404,-0.012122,0.006232,0.01357,-0.002178,-0.001259,0.000948,-0.323988,0.042391,-0.945111,0.3299418296348565
1760733885.305811,-0.062529,-0.153347,-0.249618,0.954079,-0.013789,0.005636,0.01389,-0.001716,-0.001898,0.001875,-0.323826,0.042759,-0.94515,0.3297705796344763
1760733885.307217,-0.06268,-0.153252,-0.249534,0.954106,-0.015443,0.004879,0.011741,-0.001435,-0.001844,0.002675,-0.323719,0.043124,-0.94517,0.3296575108133538
1760733885.337887,-0.062838,-0.153125,-0.249461,0.954135,-0.015056,0.004126,0.009449,-0.001132,-0.001493,0.002701,-0.323555,0.043514,-0.945208,0.32948427308686556
1760733885.339036,-0.062984,-0.153036,-0.249407,0.954153,-0.013794,0.004169,0.009235,-0.000758,-0.000639,0.002715,-0.323458,0.043856,-0.945226,0.3293815643148699
1760733885.381244,-0.06313,-0.15297,-0.249342,0.954172,-0.012352,0.003145,0.008579,-0.000181,0.000781,0.002365,-0.3234,0.044191,-0.94523,0.3293203485496071
1760733885.386836,-0.063277,-0.152868,-0.249267,0.954198,-0.015172,0.004595,0.006897,0.000144,0.001059,0.001123,-0.323279,0.044548,-0.945255,0.32919236133314594
1760733885.416847,-0.063426,-0.15278,-0.249223,0.954213,-0.016171,0.005937,0.005382,6.8e-05,0.000502,0.000532,-0.323184,0.044892,-0.945271,0.3290920404941364
1760733885.418819,-0.063578,-0.152652,-0.24919,0.954232,-0.017728,0.006169,0.003779,-0.000138,-9e-05,0.000611,-0.323018,0.045257,-0.94531,0.328916740373495
1760733885.447793,-0.063737,-0.152539,-0.249176,0.954244,-0.017621,0.00523,0.002464,-0.000517,-0.000662,0.001726,-0.322882,0.045623,-0.945339,0.3287729979525358
1760733885.47854,-0.063894,-0.152474,-0.249194,0.954239,-0.012416,0.0023,-0.000939,-0.000405,0.000124,0.002616,-0.322837,0.045948,-0.945338,0.32872565422736266
1760733885.479738,-0.063997,-0.152439,-0.249245,0.954224,-0.007296,-0.001511,-0.003496,-0.000181,0.000824,0.002676,-0.322824,0.046147,-0.945333,0.3287118369259246
1760733885.511119,-0.064073,-0.152433,-0.249278,0.954211,-0.006053,-0.001379,-0.000531,-0.000328,0.002009,0.002622,-0.322851,0.046282,-0.945317,0.32874042232307993
1760733885.54045,-0.064141,-0.152446,-0.249281,0.954204,-0.006439,-0.000994,0.0007,8.8e-05,0.002406,0.002679,-0.322906,0.046403,-0.945293,0.3287983033624764
1760733885.542578,-0.064224,-0.152444,-0.249267,0.954202,-0.005363,-0.002781,0.003057,-0.000203,0.002754,0.002624,-0.322944,0.046568,-0.945272,0.32883842364627247
1760733885.576109,-0.064296,-0.152459,-0.249248,0.9542,-0.003542,-0.003284,0.003604,-0.0004,0.002551,0.002235,-0.323003,0.046702,-0.945245,0.3289008388199992
1760733885.578673,-0.064359,-0.152451,-0.249191,0.954212,-0.003885,-0.003122,0.005147,-0.000979,0.002619,0.001969,-0.323016,0.046845,-0.945233,0.328914730487904
1760733885.610909,-0.064433,-0.152453,-0.249139,0.95422,-0.004797,-0.002793,0.00425,-0.001797,0.002446,0.001399,-0.323053,0.047003,-0.945213,0.3289536689128494
1760733885.639243,-0.0645,-0.152469,-0.249102,0.954223,-0.004127,-0.00223,0.004724,-0.001144,0.002407,0.001662,-0.323112,0.047133,-0.945186,0.32901612831120625
1760733885.641288,-0.064556,-0.152458,-0.24906,0.954232,-0.002613,-0.002366,0.003656,-0.001988,0.002383,0.001982,-0.323117,0.04726,-0.945178,0.3290213953018266
1760733885.682332,-0.064589,-0.152486,-0.249053,0.954227,-0.000481,-0.002901,0.000407,-0.00172,0.002541,0.001851,-0.323185,0.047311,-0.945153,0.32909299211894527
1760733885.682594,-0.064584,-0.152521,-0.249052,0.954222,0.003694,-0.002655,0.000856,-0.001045,0.00282,0.002238,-0.323247,0.047283,-0.945133,0.3291585728126572
1760733885.710778,-0.064534,-0.152547,-0.249045,0.954223,0.003387,-0.000227,-0.000896,-0.001404,0.002005,0.001237,-0.323272,0.047177,-0.94513,0.32918490930718464
1760733885.720689,-0.064485,-0.152578,-0.249067,0.954215,0.005208,0.000245,-0.001376,-0.002113,0.002196,0.001787,-0.323306,0.047061,-0.945123,0.3292212110392588
1760733885.749002,-0.064415,-0.152602,-0.249071,0.954215,0.007036,0.000136,-0.001431,-0.001694,0.001253,0.002209,-0.323318,0.046913,-0.945127,0.32923365084014067
1760733885.760555,-0.064334,-0.152624,-0.249066,0.954219,0.010837,-0.000901,-0.000954,-0.000659,0.00132,0.001755,-0.32332,0.046751,-0.945134,0.329235875137506
1760733885.790561,-0.064201,-0.152655,-0.24905,0.954227,0.013231,-0.002379,0.000169,-0.00053,0.000682,0.002279,-0.323313,0.046487,-0.94515,0.3292282893588698
1760733885.820897,-0.064076,-0.152705,-0.249016,0.954236,0.012361,-0.002402,0.000351,-0.000593,-0.000357,0.001784,-0.323344,0.046235,-0.945151,0.3292612931593447
