quat_x,quat_y,quat_z,quat_w,rot_x,rot_y,rot_z,acc_x,acc_y,acc_z,grav_x,grav_y,grav_z,pitch_rad
-0.07176,0.395815,0.0,0.915522,-0.043748,-0.000992,-1.1e-05,-0.601965,0.121961,-0.286789,0.724754,0.131397,-0.676363,0.8106782801999228
-0.11825,0.078309,-0.136587,0.980423,-0.079529,-0.013022,-0.010245,0.004133,-0.001893,0.001553,0.121249,0.253262,-0.959769,0.12154813389180835
-0.118382,0.078363,-0.13658,0.980403,-0.077708,-0.016742,-0.010776,0.002733,0.001166,0.002681,0.121318,0.253529,-0.95969,0.12161699174861106
-0.118449,0.078488,-0.136557,0.980388,-0.076978,-0.018441,-0.011742,0.001718,0.0048,0.002783,0.121547,0.253689,-0.959619,0.12184859875241544
-0.118517,0.078613,-0.136535,0.980373,-0.076249,-0.02014,-0.012707,0.000703,0.008433,0.002885,0.121777,0.253848,-0.959548,0.12207969705220333
-0.118925,0.078898,-0.136552,0.980299,-0.070344,-0.022754,-0.021344,0.000287,0.011506,0.002146,0.122209,0.254712,-0.959264,0.12251462522211881
-0.11941,0.07893,-0.136648,0.980224,-0.064325,-0.020628,-0.026476,-0.000294,0.011186,0.000585,0.122104,0.255668,-0.959023,0.12240935431339454
-0.119995,0.078989,-0.136782,0.980129,-0.054402,-0.020103,-0.033475,-0.000902,0.009751,-0.002678,0.122012,0.256829,-0.958724,0.12231728762770708
-0.121322,0.079115,-0.137261,0.979888,-0.032164,0.012229,-0.032129,0.000165,0.006505,-0.006595,0.121743,0.259482,-0.958044,0.12204486997435454
-0.121642,0.079199,-0.137618,0.979792,-0.003667,0.004776,-0.035915,-0.003747,0.004048,-0.002805,0.121717,0.260166,-0.957862,0.12201939608103242
-0.121962,0.079282,-0.137975,0.979695,0.02483,-0.002677,-0.039702,-0.007659,0.00159,0.000983,0.121689,0.260849,-0.957679,0.12199129557403132
-0.121939,0.079264,-0.138176,0.979671,0.033699,0.009117,-0.035605,-0.004473,0.000641,-0.003658,0.121607,0.260825,-0.957696,0.12190893760570914
-0.121916,0.079245,-0.138377,0.979647,0.042568,0.02091,-0.031507,-0.001288,-0.000308,-0.008299,0.121524,0.260802,-0.957713,0.12182462691550246
-0.121253,0.07973,-0.139056,0.979594,0.058918,0.058309,-0.029552,-0.002108,-1.7e-05,-0.005943,0.122485,0.259731,-0.957882,0.1227924897867616
-0.120674,0.079935,-0.139728,0.979553,0.040851,0.03224,-0.029726,-0.006195,0.002625,0.004785,0.122878,0.258751,-0.958097,0.12318940791428988
-0.120492,0.079913,-0.139956,0.979545,0.035438,0.01378,-0.034131,-0.005483,0.005505,0.006249,0.122829,0.258424,-0.958191,0.12314057569930678
-0.120199,0.079719,-0.140365,0.979538,0.002464,-0.017895,-0.004417,-0.003644,0.01094,0.007068,0.122432,0.257859,-0.958394,0.12274006468871772
-0.12028,0.079531,-0.140331,0.979548,-0.006303,-0.025248,0.016987,-0.003484,0.009024,0.006293,0.122051,0.257961,-0.958415,0.12235590790165721
-0.120426,0.079238,-0.140082,0.97959,-0.003874,-0.040962,0.0378,-0.002548,0.00838,0.007094,0.121503,0.258135,-0.958438,0.12180343247129963
-0.120764,0.078364,-0.139153,0.979751,0.002533,-0.071358,0.072201,-0.003877,0.010098,0.005822,0.119946,0.258446,-0.95855,0.12023455169683235
-0.121012,0.077994,-0.138543,0.979836,-0.013015,-0.07318,0.084304,-0.003434,0.01095,0.004888,0.119312,0.258754,-0.958546,0.11959683002349497
-0.121344,0.077578,-0.137898,0.979919,-0.025441,-0.078986,0.084862,-0.003637,0.010058,0.004334,0.118574,0.259211,-0.958514,0.11885375054886912
-0.122376,0.076553,-0.136422,0.980078,-0.055109,-0.101817,0.067515,-0.005372,0.00907,0.001233,0.116666,0.260762,-0.958328,0.11693255695740852
-0.122912,0.076204,-0.136029,0.980093,-0.071474,-0.082216,0.055242,-0.001926,0.007927,-0.003769,0.115935,0.261662,-0.958171,0.1161961156229475
-0.124396,0.075603,-0.135196,0.980067,-0.100828,-0.043579,0.041253,-0.004921,0.008925,-0.0026,0.114555,0.264275,-0.95762,0.11480837556116696
-0.125034,0.075432,-0.135019,0.980024,-0.096321,-0.041925,0.029354,-0.006431,0.010997,-0.000992,0.114085,0.265442,-0.957353,0.11433535623102732
-0.125672,0.075261,-0.134841,0.97998,-0.091815,-0.04027,0.017455,-0.007942,0.01307,0.000613,0.113616,0.266609,-0.957085,0.11386294832459438
-0.12631,0.075089,-0.134663,0.979935,-0.087308,-0.038616,0.005556,-0.009452,0.015143,0.002217,0.113147,0.267776,-0.956815,0.11338892973260624
-0.127776,0.074935,-0.134608,0.979765,-0.090857,0.001088,-0.01108,-0.002532,0.019313,-0.002943,0.112437,0.270554,-0.956116,0.11267630776444813
-0.129158,0.075226,-0.134781,0.979537,-0.081587,0.036806,-0.023951,0.000509,0.016603,-0.001464,0.112556,0.273308,-0.955319,0.11279624411523795
-0.129838,0.075625,-0.135185,0.979361,-0.066453,0.047593,-0.039579,0.002604,0.015889,0.000693,0.113024,0.274763,-0.954846,0.11326608151908131
-0.130517,0.076025,-0.13559,0.979184,-0.051319,0.058379,-0.055206,0.004701,0.015175,0.002848,0.11349,0.276217,-0.954371,0.11373638356269683
-0.130952,0.07641,-0.136088,0.979027,-0.041739,0.064667,-0.062019,0.006294,0.015045,0.003052,0.113972,0.277209,-0.954026,0.11422111622689526
-0.131666,0.077391,-0.137273,0.978688,-0.007494,0.060954,-0.066123,0.00888,0.010261,0.008097,0.115335,0.278967,-0.953349,0.11559215545305333
-0.131719,0.077696,-0.137795,0.978584,0.009848,0.056115,-0.065948,0.005919,0.012193,0.009365,0.115764,0.279209,-0.953227,0.11602382019440607
-0.131649,0.077907,-0.138249,0.978512,0.03116,0.03433,-0.058415,0.003717,0.011565,0.010202,0.116065,0.279181,-0.953198,0.11632736417202136
-0.131229,0.078139,-0.139146,0.978423,0.067267,-0.002017,-0.03154,0.003155,0.010584,0.00835,0.116385,0.278541,-0.953346,0.11665037845278964
-0.130669,0.077956,-0.139192,0.978506,0.076057,-0.016653,-0.001441,0.00145,0.006783,0.004776,0.116185,0.277422,-0.953697,0.11644766305025539
-0.130207,0.077757,-0.139073,0.9786,0.080307,-0.024487,0.016913,0.00011,0.002873,0.002532,0.115969,0.276469,-0.954,0.11623097387876492
-0.129746,0.077558,-0.138954,0.978694,0.084557,-0.03232,0.035266,-0.001229,-0.001037,0.000288,0.115754,0.275517,-0.954302,0.11601371366996839
-0.128877,0.077186,-0.138404,0.978916,0.077258,-0.029336,0.056355,-0.000874,-0.008921,-0.005496,0.115444,0.273686,-0.954866,0.11570100629094289
-0.128668,0.077122,-0.138187,0.97898,0.07104,-0.021186,0.05266,-0.000895,-0.012251,-0.006792,0.115441,0.273242,-0.954993,0.11569925976603167
-0.128459,0.077057,-0.137971,0.979043,0.064823,-0.013036,0.048966,-0.000917,-0.015581,-0.008087,0.115438,0.272798,-0.955121,0.11569492904925717
-0.127732,0.076951,-0.137544,0.979206,0.053155,0.003229,0.019804,0.001176,-0.018375,-0.008805,0.115564,0.27132,-0.955526,0.11582300810205019
-0.126932,0.076984,-0.137569,0.979304,0.036031,0.009609,-0.016821,-0.000575,-0.015121,-0.00644,0.115858,0.269791,-0.955923,0.11611843275136126
-0.126621,0.07696,-0.137741,0.979322,0.026782,0.010759,-0.025783,0.003154,-0.010522,-0.007032,0.115855,0.269207,-0.956088,0.11611619192352893
-0.12636,0.077052,-0.137937,0.979321,0.01452,0.02471,-0.026098,0.007308,-0.006769,-0.008289,0.116058,0.26875,-0.956192,0.1163199754170172
-0.125991,0.077498,-0.138387,0.97927,-0.017113,0.047273,-0.026304,0.005638,-5e-05,-0.001647,0.116912,0.268209,-0.95624,0.11717988444636976
-0.126011,0.077787,-0.138567,0.979219,-0.027249,0.035352,-0.015685,0.001117,0.000214,0.004078,0.117419,0.268341,-0.956141,0.11769058630607122
-0.126146,0.077992,-0.138728,0.979162,-0.02515,-0.001052,-0.019306,-0.001785,-0.001094,0.010212,0.117734,0.268674,-0.956009,0.11800733996008557
-0.126268,0.077905,-0.138852,0.979136,-0.022712,-0.020777,-0.0195,0.000192,6e-05,0.006858,0.117494,0.268901,-0.955975,0.11776607610090718
-0.126631,0.077586,-0.138977,0.979097,-0.024534,-0.027318,-0.004294,0.002286,0.002685,0.002497,0.11673,0.269532,-0.95589,0.11699758304186786
-0.12686,0.077443,-0.138947,0.979083,-0.023613,-0.030727,0.000974,0.000532,0.002237,0.003241,0.116392,0.269934,-0.955818,0.11665703164206695
-0.127032,0.077224,-0.138886,0.979086,-0.019153,-0.036781,0.000207,-0.001396,0.001915,0.002291,0.115932,0.270201,-0.955799,0.11619321685251371
-0.12743,0.076707,-0.138774,0.979091,-0.02013,-0.03791,-0.000474,-0.001981,0.00423,-0.00394,0.114839,0.270822,-0.955755,0.1150922464362871
-0.12765,0.076593,-0.138731,0.979077,-0.024617,-0.023021,0.003046,-0.001562,0.003575,-0.003348,0.114563,0.271209,-0.955678,0.11481495633852144
-0.1278,0.076486,-0.138752,0.979063,-0.014567,-0.014833,-0.001496,-0.001628,0.002927,-0.003893,0.114305,0.271473,-0.955634,0.11455459501375001
-0.12795,0.07638,-0.138773,0.979049,-0.004518,-0.006645,-0.006037,-0.001695,0.00228,-0.004439,0.114047,0.271737,-0.95559,0.11429620579461787
-0.1281,0.076273,-0.138793,0.979035,0.005531,0.001542,-0.010579,-0.001761,0.001633,-0.004984,0.113789,0.272001,-0.955546,0.11403610453587709
-0.128026,0.076362,-0.138951,0.979015,0.013457,0.026597,-0.004126,-0.003277,0.002378,-0.001854,0.113941,0.271899,-0.955556,0.11418839388445538
-0.127892,0.076469,-0.139028,0.979013,0.02419,0.014951,-0.01354,-0.005257,5e-06,0.000871,0.114167,0.271678,-0.955592,0.11441663005648857
-0.127716,0.076494,-0.139163,0.979015,0.027307,0.016745,-0.014172,-0.004284,0.000745,-3.7e-05,0.11423,0.271362,-0.955675,0.1144807607684327
-0.127271,0.076631,-0.139552,0.979007,0.025663,0.019403,-0.019341,-0.00266,0.001165,-0.000467,0.114522,0.270587,-0.95586,0.1147745510315045
-0.127099,0.076707,-0.139727,0.978999,0.024256,0.020821,-0.024155,-0.002377,0.002013,-0.000465,0.114674,0.270295,-0.955924,0.11492665610263957
-0.12697,0.07676,-0.139918,0.978984,0.021294,0.021096,-0.02284,-0.001802,0.001959,-0.000374,0.114763,0.270082,-0.955973,0.11501626582077104
-0.126689,0.076925,-0.140333,0.978948,0.01533,0.017479,-0.020552,-0.000594,0.0022,0.000149,0.115054,0.269634,-0.956065,0.11530921445104406
-0.126584,0.076978,-0.140512,0.978932,0.012601,0.01441,-0.018907,-0.001234,0.005394,0.001802,0.115139,0.269466,-0.956102,0.11539524422868695
-0.126568,0.077026,-0.140619,0.978915,0.004296,0.009857,-0.011764,-0.001513,0.007041,0.002313,0.115208,0.269461,-0.956095,0.11546447434970662
-0.126633,0.077127,-0.140715,0.978885,-0.011437,0.006472,0.006362,0.000298,0.006248,0.004583,0.115358,0.269623,-0.956031,0.11561600385428938
-0.126753,0.077154,-0.14067,0.978873,-0.013039,0.002135,0.007269,-0.000119,0.002493,0.00377,0.115388,0.269858,-0.955962,0.11564484068348282
-0.12709,0.077168,-0.140582,0.978841,-0.021623,-0.004081,0.000492,0.000244,0.001494,0.002525,0.115337,0.270499,-0.955787,0.11559453074047382
-0.127402,0.077137,-0.140596,0.978801,-0.028768,-0.007037,-0.003311,0.001339,0.001723,0.001541,0.115179,0.271092,-0.955637,0.11543532016604136
-0.127714,0.077106,-0.140609,0.978761,-0.035912,-0.009992,-0.007113,0.002434,0.001953,0.000556,0.115021,0.271686,-0.955488,0.11527635706966971
-0.127985,0.077077,-0.140643,0.978723,-0.033928,-0.008882,-0.00808,0.002458,0.001187,-0.000375,0.114874,0.272205,-0.955358,0.11512783354437618
-0.128348,0.07703,-0.14072,0.978668,-0.023446,-0.007119,-0.007212,0.002585,-0.000879,-0.000257,0.114652,0.2729,-0.955186,0.11490400905394015
-0.128503,0.076999,-0.140762,0.978644,-0.014623,-0.003463,-0.006933,0.002754,-0.000126,-0.002187,0.114532,0.273194,-0.955116,0.11478443052797022
-0.128649,0.076987,-0.140891,0.978607,0.008422,-0.000891,0.000384,8e-05,0.000623,0.000755,0.114428,0.273488,-0.955045,0.1146802672624521
-0.128571,0.077,-0.140883,0.978618,0.011119,0.000918,0.003314,-0.000121,0.000237,0.001178,0.114479,0.27334,-0.955081,0.11473177969171462
-0.128385,0.076982,-0.140882,0.978644,0.009886,0.003793,0.002869,0.000362,0.000958,-0.000249,0.114501,0.272977,-0.955182,0.11475335965729595
-0.128199,0.076964,-0.140881,0.97867,0.008654,0.006668,0.002424,0.000845,0.001678,-0.001676,0.114522,0.272614,-0.955283,0.11477493704322755
-0.128155,0.076973,-0.14086,0.978678,0.003228,0.002053,0.001804,-0.001214,0.00037,0.00071,0.11456,0.272529,-0.955303,0.11481180737229725
-0.128187,0.076937,-0.140825,0.978681,-0.003634,-0.012521,-0.003205,-0.003051,-0.001084,0.000184,0.11449,0.272578,-0.955297,0.11474129830678856
-0.128206,0.07685,-0.140845,0.978683,-0.001906,-0.008621,-0.005713,0.000553,-0.001829,-0.007392,0.114309,0.272593,-0.955315,0.11455964302490879
-0.128295,0.077008,-0.140932,0.978646,-0.018304,0.029922,-0.002964,0.004851,0.00389,-0.01046,0.114565,0.272816,-0.95522,0.11481750857683044
-0.128422,0.077275,-0.140932,0.978608,-0.032995,0.044094,0.006958,0.001978,0.003292,-0.003437,0.115046,0.273131,-0.955073,0.11530163700043351
-0.128567,0.077361,-0.140903,0.978587,-0.025421,0.029121,0.007134,0.00237,0.002635,-0.002072,0.115177,0.273429,-0.954972,0.11543417607388443
-0.128712,0.077447,-0.140873,0.978565,-0.017846,0.014149,0.007309,0.002761,0.001978,-0.000707,0.115309,0.273727,-0.95487,0.11556683006315734
-0.128857,0.077532,-0.140844,0.978544,-0.010272,-0.000824,0.007484,0.003153,0.001321,0.000658,0.11544,0.274024,-0.954769,0.11569742239411596
-0.128943,0.077524,-0.14077,0.978544,-0.008401,-0.003128,0.006766,0.001409,0.00059,0.000294,0.115419,0.274179,-0.954727,0.11567648412897899
-0.129076,0.077437,-0.140627,0.978553,-0.004838,-0.01259,0.003731,-0.001188,-9.6e-05,0.005767,0.11525,0.274394,-0.954686,0.1155059442027648
-0.129129,0.077266,-0.14062,0.978561,-0.007102,-0.020806,0.000919,-0.001412,0.001977,0.002754,0.114903,0.274452,-0.954711,0.11515709918898849
-0.129368,0.077017,-0.140578,0.978555,-0.020515,-0.014193,-0.00205,0.001186,0.007886,-0.005995,0.114359,0.274841,-0.954665,0.11460888845864214
-0.129533,0.077008,-0.140556,0.978537,-0.025508,-0.009615,0.003501,-2.4e-05,0.009261,-0.004379,0.114297,0.275153,-0.954582,0.11454740777003004
-0.129762,0.077026,-0.140496,0.978514,-0.029372,-0.006233,0.006892,-0.001258,0.007652,-0.00136,0.114281,0.275592,-0.954457,0.11453017578719887
-0.130234,0.077026,-0.140391,0.978466,-0.020296,-0.003423,0.002242,0.000866,0.004253,1e-06,0.114167,0.276486,-0.954212,0.1144167599075133
-0.130373,0.077006,-0.14036,0.978454,-0.020795,-0.003261,0.005494,0.000454,0.007432,-0.002306,0.114094,0.276744,-0.954146,0.11434435443041452
-0.130759,0.077081,-0.140162,0.978425,-0.025285,0.000556,0.015841,0.003032,0.001725,-0.001189,0.114181,0.277483,-0.953921,0.11443063835216084
-0.130893,0.077112,-0.140104,0.978413,-0.010076,0.014701,0.00271,0.008917,-0.008869,-0.008059,0.114217,0.277743,-0.953841,0.11446731009778781
-0.130838,0.077289,-0.140207,0.978392,0.011158,0.026995,-0.011503,0.006812,-0.012596,-0.003214,0.114549,0.277694,-0.953816,0.11480107155415013
-0.130783,0.077466,-0.140309,0.97837,0.032393,0.039289,-0.025717,0.004706,-0.016322,0.001632,0.114881,0.277646,-0.95379,0.11513496104457764
-0.129751,0.077831,-0.140802,0.978408,0.054076,0.023909,-0.017376,-0.000685,-0.002991,0.003119,0.115762,0.275816,-0.954214,0.11602267225060793
-0.129085,0.078073,-0.140901,0.978462,0.03938,0.03021,0.001476,-0.003072,0.002784,0.004516,0.116407,0.27461,-0.954483,0.11667102635559078
-0.128418,0.078316,-0.141001,0.978516,0.024685,0.036511,0.020327,-0.005459,0.00856,0.00591,0.117052,0.273404,-0.954751,0.117321743843861
-0.128265,0.078524,-0.140739,0.978557,0.005436,0.009109,0.046407,-0.010295,0.000692,0.018931,0.117577,0.273132,-0.954764,0.11784924514858973
-0.128062,0.078355,-0.139941,0.978712,0.020931,-0.043292,0.037378,-0.012487,-0.010512,-0.001641,0.117531,0.272602,-0.954921,0.1178039961835694
-0.127913,0.07812,-0.139697,0.978785,0.016258,-0.025191,0.034822,-0.007748,-0.000898,-0.006535,0.117187,0.272225,-0.955071,0.11745713403258287
-0.127894,0.077938,-0.139366,0.978849,0.008035,-0.036765,0.04893,-0.004085,-0.00057,-0.002562,0.116931,0.272102,-0.955137,0.1171990322076017
-0.127816,0.077435,-0.138719,0.978991,0.025109,-0.013043,0.009072,0.002449,-0.007741,-0.02957,0.116155,0.271745,-0.955334,0.11641811517781245
-0.127617,0.077381,-0.13878,0.979013,0.029249,0.004196,-0.007534,0.002902,-0.002864,-0.02267,0.116092,0.271354,-0.955453,0.1163550028294974
-0.127167,0.077431,-0.139049,0.979029,0.021724,0.018951,-0.004686,-0.004098,0.012371,3.7e-05,0.11625,0.270534,-0.955666,0.11651293741604712
-0.126982,0.077542,-0.139129,0.979033,0.026996,0.034273,-0.005607,-0.001089,0.012384,-0.009156,0.116499,0.270216,-0.955725,0.11676373727099748
-0.126414,0.078226,-0.139226,0.979039,0.017485,0.064988,0.014004,0.000798,0.014746,-0.001792,0.117972,0.26931,-0.955801,0.11824775305530091
-0.126257,0.078671,-0.139142,0.979035,0.011946,0.069736,0.023177,0.002343,0.004518,0.001754,0.118907,0.269114,-0.95574,0.11919002907807413
-0.126118,0.079136,-0.139081,0.979024,0.023187,0.074948,0.022359,0.003617,-0.004261,0.002257,0.119872,0.268959,-0.955663,0.12015979479470142
-0.125295,0.080195,-0.139186,0.979029,0.079397,0.06671,-0.015432,0.008639,-0.025119,0.003419,0.122148,0.267659,-0.95574,0.12245364211436056
-0.124666,0.080488,-0.139507,0.979039,0.101284,0.059434,-0.035701,0.00836,-0.019292,-0.005412,0.122819,0.266562,-0.95596,0.1231291091541223
-0.123822,0.08079,-0.139952,0.979058,0.091063,0.05173,-0.033021,0.008547,-0.010817,-0.001074,0.123537,0.26507,-0.956283,0.12385432782435941
-0.122977,0.081091,-0.140397,0.979076,0.080841,0.044025,-0.030341,0.008733,-0.002341,0.00326,0.124257,0.263578,-0.956602,0.12457929525125629
-0.121906,0.081634,-0.140812,0.979105,0.019622,0.044881,0.000536,0.015811,0.003131,0.001011,0.125524,0.261707,-0.95695,0.1258568577727042
-0.121723,0.081968,-0.140792,0.979103,-0.009273,0.05159,0.011643,0.014247,0.002686,-0.002944,0.126235,0.26144,-0.956929,0.1265726721240746
-0.121784,0.082313,-0.140724,0.979076,-0.024017,0.035356,0.013381,0.008801,-0.002994,0.005756,0.126906,0.261638,-0.956786,0.12724863060195668
-0.122269,0.082587,-0.140656,0.979002,-0.027109,-0.024791,-0.019928,0.008761,-0.014253,0.016493,0.12731,0.262636,-0.956459,0.12765637492822446
-0.122513,0.082353,-0.140826,0.978967,-0.021888,-0.045803,-0.040525,0.007706,-0.008305,0.008714,0.126735,0.263068,-0.956417,0.12707745334200182
-0.122758,0.082124,-0.141035,0.978926,-0.027375,-0.048899,-0.04104,0.006781,-0.001317,0.003403,0.12616,0.263506,-0.956372,0.1264973785731123
-0.123467,0.081528,-0.14133,0.978844,-0.050728,-0.044339,-0.001856,-0.003163,0.017802,-0.003416,0.124707,0.264754,-0.956218,0.12503272707305987
-0.123814,0.081344,-0.141163,0.978839,-0.054448,-0.05284,0.02783,-0.010564,0.020267,-1.4e-05,0.124289,0.265353,-0.956107,0.12461169418119096
-0.124102,0.081113,-0.140836,0.978869,-0.052561,-0.063443,0.048849,-0.014689,0.021643,0.000458,0.123842,0.265807,-0.956039,0.12416070582592285
-0.124898,0.080431,-0.139567,0.979006,-0.064903,-0.07759,0.1057,-0.012006,0.022108,-0.003335,0.122622,0.267004,-0.955862,0.122930973615803
-0.125412,0.080192,-0.138681,0.979085,-0.074513,-0.058325,0.125577,-0.008244,0.01335,-0.004649,0.122246,0.267821,-0.955682,0.122551579993322
-0.126612,0.079997,-0.136449,0.979261,-0.04828,-0.013871,0.102686,0.006427,-0.019539,-0.004627,0.122124,0.269803,-0.95514,0.12242934147319849
-0.126909,0.080006,-0.13587,0.979302,-0.023705,0.008422,0.051592,0.012146,-0.027331,-0.008076,0.122214,0.270306,-0.954986,0.12252011855946011
-0.127259,0.080278,-0.136165,0.979193,-0.022041,0.024164,-0.042384,0.012544,-0.010832,0.001538,0.122559,0.271083,-0.954721,0.12286777996764932
-0.127497,0.080448,-0.13688,0.979049,-0.030937,0.023004,-0.083764,0.011303,-0.003187,8e-06,0.122622,0.271675,-0.954545,0.12293087723244644
-0.127689,0.08057,-0.137848,0.978878,-0.030178,0.019637,-0.111428,0.016549,-0.001828,-0.002299,0.122533,0.272196,-0.954408,0.12284177046786932
-0.127883,0.080713,-0.139007,0.978677,-0.028379,0.017284,-0.119508,0.011596,0.003372,0.001314,0.12243,0.272752,-0.954262,0.12273858824742101
-0.128094,0.080837,-0.140135,0.978478,-0.022177,0.010083,-0.108162,0.004066,0.01071,0.008116,0.122294,0.273331,-0.954114,0.12260044794745269
-0.128284,0.080732,-0.141045,0.978331,-0.005369,-0.026565,-0.075383,-0.004016,0.017857,0.01492,0.121778,0.273783,-0.954051,0.1220806188285535
-0.128346,0.080376,-0.141482,0.978289,0.001675,-0.052469,-0.020537,-0.009418,0.025868,0.012249,0.120945,0.273863,-0.954134,0.1212414286238782
-0.128403,0.079846,-0.141253,0.978358,0.002266,-0.066457,0.045053,-0.010643,0.024322,0.007822,0.119961,0.273804,-0.954275,0.12025092882107805
-0.128523,0.079296,-0.140435,0.978505,-0.004158,-0.078831,0.095288,-0.011781,0.016484,0.00789,0.119085,0.273793,-0.954388,0.11936808216984691
-0.128718,0.078655,-0.139253,0.9787,-0.010159,-0.08535,0.113671,-0.00945,0.003397,0.000697,0.118111,0.273859,-0.95449,0.11838690913400036
-0.129039,0.077968,-0.137987,0.978892,-0.008536,-0.084858,0.114687,-0.01016,-0.006926,-0.004937,0.117034,0.274147,-0.95454,0.11730191621569898
-0.129337,0.077299,-0.136825,0.979069,-0.01096,-0.085082,0.099187,-0.012641,-0.010875,-0.006693,0.115969,0.274413,-0.954594,0.11623056616181923
-0.129594,0.076585,-0.135844,0.979228,-0.009594,-0.079551,0.07667,-0.013027,-0.007223,-0.008954,0.114778,0.27461,-0.954681,0.11503274605059068
-0.130052,0.076177,-0.135174,0.979291,-0.031301,-0.061404,0.060981,-0.010832,-0.006605,-0.005905,0.11404,0.275311,-0.954567,0.11428824221624517
-0.130967,0.075361,-0.133833,0.979417,-0.074713,-0.025108,0.029604,-0.006445,-0.005372,0.000187,0.112565,0.276715,-0.954336,0.1128033534199682
-0.13051,0.075769,-0.134503,0.979354,-0.053007,-0.043256,0.045293,-0.008638,-0.005988,-0.002859,0.113302,0.276013,-0.954453,0.11354519662644942
-0.131641,0.075147,-0.133563,0.97938,-0.078094,-0.014857,0.000662,-0.003114,-0.008131,-0.00172,0.11203,0.277926,-0.954047,0.11226588162342963
-0.132343,0.075018,-0.13357,0.979294,-0.066529,-0.007393,-0.021206,-0.005068,-0.004626,-0.00079,0.111576,0.279245,-0.953715,0.11180805283580983
-0.13289,0.074908,-0.13376,0.979202,-0.052251,-0.00923,-0.030734,-0.004858,0.00319,0.000255,0.11115,0.280291,-0.953458,0.11137953586999458
-0.133342,0.074818,-0.134015,0.979113,-0.046255,-0.00582,-0.02691,-0.002221,0.010948,-0.00192,0.110771,0.281167,-0.953245,0.1109986866451506
-0.133763,0.07479,-0.134216,0.97903,-0.049881,-8.9e-05,-0.021303,0.000265,0.01636,-0.000921,0.110536,0.281992,-0.953028,0.11076338281833005
-0.134255,0.074816,-0.134288,0.978951,-0.055119,0.006037,-0.003428,-0.000137,0.014867,-0.000783,0.110424,0.282952,-0.952756,0.11065037840142243
-0.13472,0.074903,-0.134296,0.978879,-0.039597,0.005244,-0.004405,0.003924,0.008884,0.00076,0.110457,0.283867,-0.95248,0.11068308656961534
-0.135056,0.074988,-0.134352,0.978819,-0.016303,0.008159,-0.006284,0.005719,0.00387,0.001371,0.110509,0.284541,-0.952273,0.11073544479340171
-0.135164,0.075167,-0.134494,0.978771,0.0061,0.018563,-0.015007,0.009037,0.001537,0.001401,0.110786,0.284808,-0.952161,0.11101294326610726
-0.135107,0.075361,-0.13474,0.97873,0.023185,0.020307,-0.023752,0.007354,0.003196,0.007069,0.111107,0.284774,-0.952134,0.1113373894854411
-0.13491,0.075463,-0.134987,0.978715,0.016897,0.012716,-0.012719,0.005172,0.007397,0.007595,0.111291,0.284451,-0.952209,0.11152237580014189
-0.134714,0.075565,-0.135233,0.9787,0.010609,0.005125,-0.001687,0.00299,0.011598,0.008121,0.111476,0.284128,-0.952284,0.11170755459893894
-0.134621,0.075502,-0.135215,0.97872,0.015458,-0.025811,0.004513,0.000763,0.008945,0.008046,0.111385,0.283931,-0.952353,0.11161669230617036
-0.134444,0.075298,-0.135073,0.97878,0.025604,-0.015436,0.01171,0.00534,0.005841,0.00039,0.111081,0.283523,-0.95251,0.11131055875609216
-0.134266,0.075094,-0.134931,0.97884,0.035749,-0.00506,0.018907,0.009917,0.002737,-0.007267,0.110777,0.283115,-0.952667,0.11100455679213045
-0.133977,0.075228,-0.134776,0.97889,0.031728,0.003303,0.021546,0.004602,0.002353,-0.003997,0.111166,0.282575,-0.952782,0.1113963515847707
-0.133688,0.075361,-0.134622,0.978941,0.027706,0.011665,0.024186,-0.000712,0.00197,-0.000728,0.111554,0.282035,-0.952897,0.1117859226479813
-0.133369,0.07538,-0.134499,0.979,0.040367,-0.008559,0.003928,-0.00209,-0.003646,0.004156,0.111717,0.281414,-0.953061,0.11195175141788206
-0.132963,0.07524,-0.134536,0.979061,0.046085,-0.007047,-0.005336,6.1e-05,0.000158,-0.000156,0.111553,0.280602,-0.95332,0.11178514319703893
-0.132478,0.075198,-0.134598,0.979121,0.048027,0.004384,-0.002953,0.001641,-0.000529,0.000262,0.111593,0.279667,-0.95359,0.11182625517390399
-0.131989,0.075196,-0.134716,0.979171,0.059905,0.009544,-0.008626,-0.001482,-0.004073,0.001855,0.111698,0.278739,-0.953849,0.11193100058658778
-0.131358,0.075114,-0.134879,0.97924,0.069702,0.004616,-0.015172,-0.002543,-0.004848,4.2e-05,0.111674,0.277524,-0.954206,0.1119078261691704
-0.130662,0.075022,-0.135121,0.979307,0.072419,-0.001707,-0.015283,-0.003256,0.00118,-0.00117,0.111629,0.276191,-0.954598,0.11186192310431056
-0.130022,0.074948,-0.135315,0.979371,0.069801,-0.005332,-0.004212,-0.003018,0.003646,0.00056,0.111615,0.274963,-0.954954,0.11184900462482343
-0.129376,0.074839,-0.135346,0.97946,0.06123,-0.001605,0.00932,-0.002912,0.006503,-0.005728,0.111583,0.273696,-0.955322,0.11181541895698262
-0.128733,0.074739,-0.135273,0.979563,0.063805,0.00952,0.011848,0.007047,0.005445,-0.011717,0.111595,0.272425,-0.955684,0.11182785080844745
-0.128103,0.07491,-0.135267,0.979633,0.059753,0.037171,0.011368,0.007131,0.002303,-0.007782,0.112112,0.271254,-0.955956,0.11234859782565262
-0.127544,0.075296,-0.135321,0.979669,0.055171,0.050371,0.001196,0.003663,-0.001484,0.000517,0.113012,0.270279,-0.956126,0.11325350052217195
-0.126912,0.075539,-0.135505,0.979707,0.07705,0.026777,-0.021942,0.001061,-0.003052,0.006712,0.113618,0.269145,-0.956374,0.11386363252508255
-0.126105,0.075663,-0.135851,0.979754,0.088763,0.020159,-0.023429,0.001153,0.002065,0.00445,0.113999,0.267662,-0.956745,0.11424764765558712
-0.125164,0.075763,-0.136145,0.979826,0.095857,0.026942,-0.011378,0.000419,0.006759,7.3e-05,0.114389,0.265907,-0.957188,0.1146391444568311
-0.12421,0.075956,-0.136294,0.979912,0.096981,0.029963,0.00246,-0.001186,0.005629,0.00021,0.115001,0.264133,-0.957605,0.1152572508674735
-0.123233,0.07613,-0.136307,0.98002,0.094496,0.026996,0.012355,-0.00203,0.002414,-0.001678,0.115622,0.262296,-0.958036,0.11588198619769967
-0.122311,0.076277,-0.136288,0.980126,0.090137,0.028163,0.017574,-0.003791,0.002743,-0.002107,0.116183,0.260553,-0.958443,0.11644608243790712
-0.121497,0.076466,-0.136208,0.980224,0.07882,0.019772,0.020567,-0.003987,0.004808,0.002287,0.116809,0.259019,-0.958783,0.11707717081256533
-0.120821,0.076558,-0.136059,0.980321,0.068187,0.015654,0.025956,-0.002425,0.002409,-0.00027,0.117225,0.25772,-0.959082,0.11749541556442364
-0.120226,0.076637,-0.135902,0.98041,0.061684,0.013216,0.021653,-0.000874,-0.001635,0.000614,0.117594,0.256571,-0.959345,0.11786617315126223
-0.119663,0.07664,-0.135776,0.980496,0.05697,0.00904,0.015675,-0.001087,-0.003843,-0.001238,0.117795,0.25547,-0.959614,0.1180698338941954
-0.119151,0.076624,-0.135668,0.980574,0.05249,0.001973,0.01498,-0.0016,-0.004507,0.000555,0.117941,0.254464,-0.959864,0.11821620291147472
-0.118656,0.076569,-0.135578,0.980651,0.052282,-0.003971,0.015222,-0.002043,-0.005779,0.000667,0.118001,0.253482,-0.960116,0.11827621989253202
-0.118128,0.076428,-0.135489,0.980738,0.05478,-0.005164,0.010393,-0.000402,-0.005038,-0.001747,0.117902,0.252416,-0.960409,0.11817647566009709
-0.117576,0.076332,-0.135421,0.980821,0.046795,-0.005273,0.011508,-0.000668,-0.004185,-0.003965,0.117892,0.251315,-0.960699,0.11816634461296283
-0.11714,0.076278,-0.135367,0.980885,0.039129,0.001271,0.008809,-0.000682,-0.004137,-0.004089,0.117927,0.250453,-0.96092,0.11820116062264427
-0.116829,0.076324,-0.135327,0.980924,0.020522,0.004928,0.005706,-0.000575,-0.00348,-0.003447,0.118115,0.249858,-0.961051,0.11839223531051041
-0.116649,0.07633,-0.135353,0.980942,0.010624,0.003953,-0.00243,-0.000314,-0.004921,-0.001969,0.118174,0.249515,-0.961133,0.11844980947572989
-0.116595,0.076375,-0.135395,0.980939,-0.002293,0.006672,-0.006203,0.000572,-0.005281,-0.00175,0.118265,0.249427,-0.961145,0.118543114450389
-0.116623,0.076448,-0.13549,0.980917,-0.009186,0.00472,-0.008578,0.001139,-0.003383,-0.001085,0.118375,0.249511,-0.96111,0.11865400631004552
-0.116691,0.07649,-0.135584,0.980892,-0.010613,0.006416,-0.010286,0.00226,-0.002272,0.000404,0.118414,0.249664,-0.961065,0.11869248492590274
-0.116773,0.07655,-0.135696,0.980862,-0.009531,0.004699,-0.008742,0.001792,-0.00276,0.002432,0.118479,0.249852,-0.961008,0.11875766487522849
-0.116786,0.076558,-0.135812,0.980844,-0.00393,-0.004246,-0.011441,0.004367,-0.002234,0.000176,0.118461,0.249892,-0.961,0.11873985470573428
-0.116831,0.076591,-0.135927,0.98082,-0.010866,0.00628,-0.007749,0.0032,-0.001089,-0.002183,0.118482,0.250001,-0.960969,0.11876197562066673
-0.116946,0.076527,-0.135979,0.980804,-0.008367,-0.015505,-0.00747,-0.001256,-0.001709,0.004569,0.118312,0.250215,-0.960934,0.11858934194986397
-0.117008,0.07625,-0.136046,0.980809,-0.002529,-0.036488,-0.009649,0.0003,0.001969,0.002113,0.117736,0.250273,-0.96099,0.11801015043883906
-0.117087,0.076,-0.136038,0.98082,-0.006222,-0.017285,0.003748,0.006665,0.001388,-0.006511,0.117228,0.25036,-0.96103,0.11749825114522941
-0.117155,0.076074,-0.135979,0.980814,-0.012567,0.019478,0.004029,0.007579,-0.001016,-0.009901,0.117368,0.250505,-0.960975,0.11763879293043475
-0.117272,0.076322,-0.135938,0.980787,-0.023138,0.022279,0.0092,-0.000876,-0.000395,-0.000998,0.117829,0.250787,-0.960844,0.11810216772070226
-0.117523,0.076483,-0.135869,0.980754,-0.026762,0.000541,-0.001174,-0.005469,-0.003931,0.006234,0.118086,0.251306,-0.960677,0.1183627296208317
-0.117768,0.076401,-0.135928,0.980723,-0.022289,-0.018534,-0.016282,-0.000385,-0.000661,0.000748,0.11784,0.251765,-0.960587,0.11811494662967317
-0.118053,0.076366,-0.135969,0.980686,-0.023653,-0.010936,-0.011395,-0.000221,-0.001412,0.001471,0.117678,0.252312,-0.960464,0.11795235433055043
-0.118338,0.076331,-0.13601,0.980648,-0.025016,-0.003338,-0.006507,-5.6e-05,-0.002164,0.002194,0.117517,0.252859,-0.96034,0.11778956958693718
-0.118509,0.07619,-0.136074,0.98063,-0.009529,-0.01426,-0.009126,-0.000926,-0.004779,0.002195,0.117177,0.253162,-0.960301,0.11744622728026013
-0.118619,0.076015,-0.136161,0.980618,-0.009285,-0.015811,-0.013225,-0.001182,0.001849,-0.001671,0.116781,0.253341,-0.960302,0.11704787149414805
-0.118812,0.075942,-0.136206,0.980594,-0.027383,-0.00688,0.000336,-0.001127,0.004021,-0.003871,0.116571,0.253699,-0.960233,0.11683636021433028
-0.119094,0.075911,-0.13614,0.980571,-0.024112,-0.012353,0.001111,-0.001135,0.001467,-0.002692,0.116446,0.25423,-0.960108,0.1167101119217692
-0.119337,0.075853,-0.13611,0.98055,-0.022261,-0.00053,-0.002005,0.002065,0.000224,-0.005478,0.116269,0.25468,-0.96001,0.11653297280646842
-0.119538,0.075919,-0.136102,0.980522,-0.01975,0.007761,-0.002027,0.00234,-0.001423,-0.004203,0.116341,0.255085,-0.959894,0.1166058448785114
-0.119702,0.076051,-0.136136,0.980487,-0.014508,0.009827,-0.004845,0.000242,-0.002236,0.000315,0.116541,0.255439,-0.959775,0.11680797290578758
-0.119807,0.076133,-0.136211,0.980457,-0.010206,0.002945,-0.007002,-1.4e-05,-0.002168,0.001953,0.116652,0.255672,-0.9597,0.11691839836656112
-0.11988,0.076204,-0.136277,0.980434,-0.008902,0.00495,-0.004937,0.002351,-0.002226,0.000326,0.116752,0.255838,-0.959643,0.11701909497535269
-0.119925,0.076297,-0.136349,0.980411,-0.007044,0.009224,-0.004599,0.002667,-0.003809,-0.001596,0.116902,0.255957,-0.959594,0.11716944143560247
-0.119955,0.076401,-0.136426,0.980389,-0.004618,0.008625,-0.006192,0.001762,-0.005347,-0.0009,0.117075,0.256052,-0.959547,0.11734455371835496
-0.119991,0.076483,-0.136492,0.980368,-0.008771,0.006417,-0.004156,0.001692,-0.005861,-0.002285,0.117207,0.25615,-0.959505,0.1174773782082516
-0.120088,0.076572,-0.136502,0.980348,-0.016063,0.004114,0.000369,0.001571,-0.007567,-0.002199,0.11735,0.256362,-0.959431,0.1176209302699754
-0.120355,0.076672,-0.136454,0.980315,-0.03074,0.003533,-4.8e-05,0.00181,-0.011167,-0.001503,0.117479,0.256895,-0.959272,0.11775150471795406
-0.120621,0.076771,-0.136406,0.980281,-0.045418,0.002953,-0.000466,0.00205,-0.014767,-0.000808,0.117607,0.257429,-0.959114,0.11788026535115087
-0.121078,0.076894,-0.136345,0.980223,-0.058729,0.000987,0.000618,0.001665,-0.020086,0.001776,0.11773,0.258336,-0.958855,0.1180034469579669
-0.121642,0.076971,-0.136267,0.980158,-0.069052,-0.000946,0.00276,0.00222,-0.027406,0.001962,0.117735,0.259435,-0.958557,0.11800961697253333
-0.122223,0.077065,-0.136132,0.980097,-0.066909,-0.002067,0.011368,0.002593,-0.035499,0.005159,0.117786,0.260562,-0.958245,0.11805948971679076
-0.122667,0.077159,-0.13586,0.980072,-0.049435,-0.001402,0.034533,0.002828,-0.044696,0.005556,0.117911,0.261411,-0.957999,0.11818662154282439
-0.122837,0.077282,-0.135403,0.980104,-0.01797,0.005467,0.049752,0.003495,-0.056464,0.000811,0.118224,0.261715,-0.957877,0.1185009444399423
-0.122598,0.077433,-0.134861,0.980197,0.019121,0.011292,0.053911,0.004722,-0.064371,-0.001614,0.118732,0.261225,-0.957948,0.11901256072423604
-0.121993,0.077585,-0.134378,0.980327,0.048345,0.017157,0.046693,0.004307,-0.066007,-0.001978,0.119331,0.260037,-0.958197,0.11961603014139513
-0.121143,0.077749,-0.134048,0.980464,0.060279,0.020774,0.0327,0.001615,-0.059589,-0.001815,0.119983,0.258397,-0.958559,0.12027199046900057
-0.120258,0.077923,-0.133798,0.980594,0.044361,0.027508,0.030281,0.002422,-0.054546,-0.004036,0.120641,0.256701,-0.958932,0.12093566672511576
-0.119562,0.078169,-0.133596,0.980687,0.015038,0.028204,0.017959,0.004009,-0.055143,-0.002244,0.121372,0.255392,-0.959189,0.12167262369100876
-0.119169,0.078521,-0.133487,0.980721,-0.018507,0.040286,0.009166,0.005906,-0.06147,0.002358,0.122199,0.254706,-0.959267,0.12250555209118662
-0.119044,0.078895,-0.133556,0.980697,-0.029786,0.039994,-0.02297,0.004732,-0.067215,0.008369,0.122946,0.254566,-0.959208,0.12325796165469345
-0.119039,0.079253,-0.133913,0.98062,-0.034425,0.037323,-0.041874,0.004249,-0.06248,0.015986,0.123552,0.25469,-0.959098,0.12386893568994718
-0.119134,0.079574,-0.134354,0.980522,-0.044348,0.031783,-0.03962,0.00437,-0.05805,0.021787,0.124036,0.255009,-0.95895,0.1243561250716851
-0.119307,0.079791,-0.134708,0.980435,-0.038729,0.023116,-0.041044,0.004719,-0.060989,0.027962,0.124316,0.255442,-0.958799,0.12463902171518333
-0.11948,0.080007,-0.135061,0.980348,-0.03311,0.014449,-0.042469,0.005068,-0.063929,0.034138,0.124596,0.255877,-0.958646,0.12491987012700881
-0.119524,0.080033,-0.135444,0.980288,-0.012348,-0.007888,-0.038015,0.001668,-0.058845,0.042065,0.124532,0.256016,-0.958618,0.12485731631379489
-0.119453,0.079865,-0.135659,0.98028,-0.003644,-0.01745,-0.01349,0.001836,-0.055105,0.044251,0.12417,0.255864,-0.958705,0.12449169205787874
-0.119204,0.079664,-0.135659,0.980327,0.027505,-0.021139,0.001617,0.002417,-0.055777,0.053542,0.123852,0.255333,-0.958888,0.12417018433143348
-0.118631,0.079505,-0.135594,0.980418,0.059482,0.004175,0.006448,0.005643,-0.050226,0.061804,0.123725,0.254176,-0.959211,0.12404281788168404
-0.117804,0.079367,-0.135583,0.980531,0.081537,-0.019591,0.001316,-0.002837,-0.029741,0.072854,0.123698,0.252543,-0.959646,0.12401682393829323
-0.117135,0.078941,-0.135657,0.980635,0.04502,-0.058796,-0.004753,-0.006766,0.001794,0.059051,0.123044,0.251152,-0.960095,0.12335686356838316
-0.117046,0.078221,-0.135646,0.980705,-0.020642,-0.078944,-0.003945,-0.005711,0.024657,0.024956,0.12167,0.250796,-0.960364,0.12197201641745291
-0.117526,0.077498,-0.135611,0.98071,-0.067231,-0.085652,-0.017121,-0.002646,0.041181,0.004825,0.120131,0.251538,-0.960363,0.12042132362836332
-0.118488,0.076863,-0.135739,0.980626,-0.107157,-0.066737,-0.036801,0.002641,0.051193,-0.00682,0.11858,0.253252,-0.960105,0.11886050285975042
-0.119901,0.076508,-0.135896,0.98046,-0.14059,-0.041418,-0.032168,0.002251,0.052264,0.00071,0.117437,0.25591,-0.959541,0.11770956817116812
-0.12152,0.076262,-0.135975,0.980269,-0.141044,-0.063863,-0.012586,-0.006252,0.051676,0.018587,0.116468,0.258984,-0.958834,0.11673211051815123
-0.123071,0.075661,-0.135639,0.980169,-0.134521,-0.077078,0.014192,-0.00747,0.060627,0.014658,0.114934,0.261787,-0.958258,0.11518924232854721
-0.124623,0.075058,-0.135302,0.980066,-0.127998,-0.090293,0.040971,-0.00869,0.069579,0.010718,0.113401,0.264588,-0.957671,0.11364456905016902
-0.126274,0.07449,-0.134683,0.979983,-0.147192,-0.073608,0.05346,-0.009899,0.070913,0.003708,0.111984,0.267557,-0.957012,0.11221932979381433
-0.128128,0.074082,-0.133928,0.979877,-0.152754,-0.0925,0.064907,-0.019018,0.072433,0.016556,0.110863,0.270942,-0.95619,0.11109100087397286
-0.130048,0.073343,-0.132998,0.979806,-0.163037,-0.121309,0.082762,-0.018033,0.083442,0.00535,0.109131,0.274353,-0.955417,0.10934936508751264
-0.132185,0.072244,-0.131839,0.979758,-0.185913,-0.173048,0.089503,-0.014023,0.094831,-0.03139,0.106708,0.278068,-0.954616,0.10691255476525066
-0.134828,0.071154,-0.130597,0.979644,-0.267988,-0.134486,0.098001,-0.001947,0.106505,-0.073091,0.104194,0.282753,-0.953517,0.10438437419264361
-0.138172,0.070521,-0.129295,0.979397,-0.346334,-0.100786,0.092777,-0.000154,0.105422,-0.086049,0.102406,0.288887,-0.951871,0.1025860537387624
-0.142054,0.070341,-0.12815,0.979005,-0.396131,-0.061885,0.063138,-0.000373,0.0955,-0.084639,0.10132,0.296171,-0.949746,0.10149410082798711
-0.146145,0.070442,-0.127416,0.978491,-0.412957,-0.034141,0.011545,-0.001004,0.08636,-0.07332,0.100611,0.303955,-0.947359,0.1007818232074109
-0.150257,0.07069,-0.127163,0.977883,-0.407531,-0.017844,-0.024062,-6.6e-05,0.078557,-0.052658,0.100038,0.311846,-0.944852,0.10020645364854232
-0.154147,0.071033,-0.127271,0.977238,-0.368562,0.01049,-0.055576,0.002434,0.066799,-0.038227,0.099595,0.319358,-0.942386,0.09976079923349199
-0.157467,0.071603,-0.127794,0.976599,-0.302141,0.042792,-0.085548,0.001795,0.05763,-0.018448,0.099608,0.325866,-0.940154,0.09977361572906981
-0.160096,0.072331,-0.128635,0.976007,-0.232267,0.065843,-0.102069,-0.0014,0.051995,0.00163,0.100002,0.331118,-0.938275,0.10017066413167731
-0.162107,0.073145,-0.129616,0.975485,-0.177073,0.082157,-0.10113,-0.002709,0.042253,0.015794,0.100679,0.335228,-0.936742,0.10085125116264994
-0.163281,0.073912,-0.130558,0.975106,-0.119862,0.066764,-0.091122,-0.004814,0.034797,0.019003,0.101509,0.337733,-0.935752,0.10168392605339992
-0.164455,0.074679,-0.131499,0.974723,-0.062652,0.051371,-0.081115,-0.006914,0.027343,0.022204,0.102332,0.340237,-0.934755,0.10251078587028474
-0.165185,0.075177,-0.132337,0.974448,-0.032931,0.049465,-0.067124,-0.003475,0.022078,0.014172,0.102792,0.341826,-0.934125,0.1029738660168023
-0.165703,0.075629,-0.133033,0.97423,-0.019135,0.049308,-0.053878,-0.002554,0.017906,0.010868,0.103271,0.342989,-0.933645,0.10345660216636239
-0.166105,0.075969,-0.13358,0.974061,-0.005824,0.027842,-0.044163,-0.002411,0.012135,0.003409,0.103619,0.343889,-0.933276,0.10380660137253869
-0.16637,0.07611,-0.134079,0.973936,0.004919,0.016507,-0.043524,0.000243,0.009048,-0.006062,0.10364,0.344478,-0.933056,0.1038255263073204
-0.166505,0.07611,-0.134548,0.973848,0.007708,0.002497,-0.041584,0.003219,0.009045,-0.011314,0.103433,0.344782,-0.932967,0.10361863603360208
-0.166669,0.076033,-0.134925,0.973774,-0.004732,-0.003286,-0.032876,0.005698,0.006278,-0.015685,0.103102,0.345114,-0.932881,0.1032858310738133
-0.166928,0.07601,-0.135259,0.973685,-0.017064,0.005917,-0.033618,0.006388,-0.001623,-0.014714,0.102863,0.345632,-0.932715,0.1030448272602665
-0.16716,0.076003,-0.13565,0.973591,-0.014868,-0.002101,-0.042912,0.005132,-0.005883,-0.006412,0.102641,0.34611,-0.932562,0.1028222497111161
-0.167406,0.075986,-0.13613,0.973483,-0.02143,0.004015,-0.051062,0.006713,-0.006923,-7e-05,0.102364,0.346622,-0.932403,0.10254381850727773
-0.167672,0.075934,-0.136638,0.97337,-0.027107,-0.004357,-0.053825,0.006492,-0.007889,0.007294,0.102003,0.347165,-0.93224,0.10218073875627422
-0.167952,0.075825,-0.137137,0.973261,-0.030835,-0.009343,-0.050554,0.008191,-0.009321,0.008229,0.10153,0.34772,-0.932085,0.10170541311921011
-0.168208,0.075749,-0.13759,0.973158,-0.024948,-0.012494,-0.047879,0.004532,-0.0097,0.011436,0.101143,0.34823,-0.931937,0.10131726442631676
-0.168417,0.075584,-0.138002,0.973077,-0.020973,-0.024837,-0.042058,0.00113,-0.006867,0.01555,0.100614,0.348627,-0.931846,0.10078487354989901
-0.168633,0.075274,-0.138283,0.973023,-0.020875,-0.042728,-0.026685,-0.001175,-0.003315,0.012889,0.099849,0.348987,-0.931793,0.10001517148489295
-0.168944,0.075026,-0.138266,0.972991,-0.030294,-0.028596,-0.012182,0.001423,-0.002071,0.004364,0.099281,0.349509,-0.931658,0.09944464759506612
-0.169255,0.074778,-0.13825,0.972959,-0.039714,-0.014464,0.002321,0.00402,-0.000827,-0.004161,0.098713,0.350032,-0.931522,0.09887386915968516
-0.169664,0.074745,-0.138092,0.972912,-0.046998,-0.007967,0.013736,-0.000895,0.001748,-0.005866,0.098583,0.350779,-0.931255,0.09874251245953312
-0.170108,0.074688,-0.137913,0.972864,-0.043591,-0.017037,0.011049,-0.00466,0.003824,-0.005742,0.098402,0.351584,-0.93097,0.09856182487574278
-0.170524,0.074583,-0.137779,0.972818,-0.04349,-0.018945,0.00172,-0.00506,0.005134,-0.005511,0.098121,0.35233,-0.930718,0.09828025597841675
-0.170967,0.074477,-0.137719,0.972757,-0.047413,-0.01765,-0.002335,-0.003763,0.002773,-0.002688,0.097805,0.353132,-0.930447,0.09796184465164395
-0.171445,0.074361,-0.137784,0.972673,-0.047458,-0.013961,-0.01204,-0.003745,0.001434,-0.001153,0.097412,0.354012,-0.930154,0.09756784373895333
-0.171924,0.074244,-0.137848,0.972588,-0.047503,-0.010273,-0.021745,-0.003727,9.6e-05,0.00038,0.097019,0.354891,-0.92986,0.09717173719490967
-0.172426,0.074084,-0.138005,0.972489,-0.047668,-0.015163,-0.024127,-0.003302,-0.000218,-0.000864,0.0965,0.355813,-0.929562,0.09665085514497646
-0.172949,0.073923,-0.138157,0.972387,-0.047437,-0.019048,-0.023459,-0.004103,-3.1e-05,0.001577,0.095974,0.356773,-0.929248,0.09612325473333067
-0.173428,0.073661,-0.138319,0.972298,-0.04404,-0.029242,-0.024607,-0.004486,0.000887,0.001018,0.095264,0.357626,-0.928993,0.095408793488348
-0.173907,0.073316,-0.138451,0.97222,-0.044125,-0.04222,-0.025713,-0.003804,0.002653,-0.001537,0.094403,0.358453,-0.928762,0.0945441526667211
-0.174464,0.072929,-0.138588,0.97213,-0.05489,-0.038524,-0.021177,-0.001404,0.003958,-0.003541,0.093436,0.359418,-0.928487,0.0935721933144416
-0.175099,0.07263,-0.138673,0.972026,-0.06184,-0.02873,-0.017585,0.000211,0.003922,-0.005484,0.092633,0.360546,-0.92813,0.09276648446345478
-0.175796,0.072379,-0.138793,0.971902,-0.066569,-0.026659,-0.023585,0.000216,0.004322,-0.00484,0.091891,0.361804,-0.927714,0.0920219003197734
-0.176493,0.072127,-0.138912,0.971777,-0.071297,-0.024588,-0.029586,0.00022,0.004722,-0.004198,0.091149,0.363062,-0.927296,0.09127541431651563
-0.177229,0.071959,-0.139079,0.971632,-0.075624,-0.015464,-0.030546,0.001537,0.003626,-0.003656,0.090537,0.364419,-0.926823,0.09066181908625043
-0.177956,0.071889,-0.13929,0.971474,-0.066336,-0.004446,-0.033594,0.001735,0.002445,-0.002645,0.090102,0.365786,-0.926327,0.09022396579942472
-0.178542,0.071881,-0.139604,0.971322,-0.049429,0.000981,-0.039355,0.001198,0.003805,0.0016,0.089788,0.366914,-0.925912,0.08990992523786955
-0.178981,0.071858,-0.139932,0.971196,-0.038964,-0.003613,-0.032173,0.000802,0.007778,0.004027,0.089487,0.367761,-0.925604,0.08960592861042634
-0.179348,0.071843,-0.140165,0.971096,-0.032277,-0.004659,-0.019175,0.001452,0.008791,0.002417,0.089257,0.368467,-0.925346,0.0893752146467184
-0.179662,0.071842,-0.14027,0.971022,-0.028701,-0.002846,-0.006392,0.002739,0.006796,0.001603,0.089118,0.369066,-0.925121,0.08923633374279151
-0.179921,0.071902,-0.140272,0.97097,-0.02272,0.000766,-0.003853,0.002406,0.004087,0.001131,0.089154,0.369568,-0.924917,0.08927214156439704
-0.180181,0.071962,-0.140274,0.970917,-0.01674,0.004377,-0.001314,0.002073,0.001379,0.000659,0.089189,0.37007,-0.924713,0.08930750872013617
-0.180374,0.071966,-0.140328,0.970873,-0.012286,-0.000602,-0.01012,0.000942,0.00098,0.000672,0.089116,0.370439,-0.924572,0.08923502827250535
-0.180572,0.071954,-0.140447,0.97082,-0.014034,-0.00655,-0.014212,-0.000351,-0.001023,0.001859,0.088987,0.370818,-0.924432,0.08910503771814852
-0.180752,0.071886,-0.140593,0.97077,-0.015193,-0.006392,-0.015328,-0.001526,-0.001235,0.000205,0.088745,0.37115,-0.924322,0.08886151361477003
-0.180871,0.071826,-0.140743,0.970731,-0.007016,-0.007521,-0.019279,-0.001956,-0.000924,-9.5e-05,0.088535,0.371372,-0.924254,0.08865086719634115
-0.180917,0.071748,-0.140918,0.970703,-0.001986,-0.005147,-0.017585,-0.002879,0.000723,-5e-06,0.088303,0.371454,-0.924243,0.08841823483231137
-0.180936,0.07169,-0.141082,0.970679,-0.004358,-0.000966,-0.012834,-0.003332,0.001013,-0.000365,0.088123,0.371491,-0.924245,0.08823678291097373
-0.181015,0.071712,-0.141216,0.970644,-0.011287,0.00786,-0.012111,-0.003088,-0.00071,0.00046,0.088088,0.371655,-0.924182,0.08820354069614404
-0.18115,0.071775,-0.141384,0.970589,-0.018608,0.010477,-0.016522,-0.00273,-0.000664,0.000805,0.088105,0.37194,-0.924066,0.0882190120240981
-0.181363,0.071844,-0.141608,0.970512,-0.028147,0.015442,-0.022823,-0.001313,0.002341,-0.000643,0.088085,0.372378,-0.923892,0.08820033651261794
-0.181701,0.072,-0.141831,0.970404,-0.039856,0.015814,-0.019167,-0.002709,0.001262,0.002257,0.088196,0.373071,-0.923601,0.0883112502807549
-0.182079,0.072081,-0.142064,0.970293,-0.04164,0.005556,-0.027337,-0.003111,0.003745,0.004572,0.088146,0.373821,-0.923303,0.08826018180274085
-0.182522,0.072153,-0.142276,0.970174,-0.048158,0.003229,-0.021827,-0.001338,0.001988,0.003087,0.088064,0.374688,-0.922959,0.08817915846256234
-0.182979,0.072217,-0.142492,0.970051,-0.047399,0.010556,-0.023558,0.002487,0.003669,-0.003763,0.087961,0.375578,-0.922607,0.088076088172924
-0.183447,0.072396,-0.142724,0.969915,-0.050375,0.02497,-0.018741,0.002768,0.006081,-0.006455,0.088072,0.376522,-0.922212,0.08818560784594781
-0.183967,0.072661,-0.142903,0.969771,-0.058682,0.022923,-0.012493,8e-05,0.009723,-0.003989,0.08835,0.377578,-0.921753,0.08846553448392236
-0.184519,0.072872,-0.143013,0.969634,-0.052968,0.011289,-0.012135,-0.000772,0.008976,-0.001587,0.088541,0.378676,-0.921284,0.08865720297418128
-0.185001,0.073022,-0.143131,0.969513,-0.04693,0.008755,-0.014849,0.001173,0.007906,-0.001044,0.088634,0.379626,-0.920885,0.08874925900535201
-0.185439,0.073181,-0.143265,0.969398,-0.044926,0.015653,-0.012267,0.001752,0.006672,0.002508,0.088749,0.380497,-0.920514,0.08886611259940229
-0.18582,0.073378,-0.143385,0.969292,-0.032915,0.017325,-0.013603,0.000347,0.003684,0.005073,0.088962,0.381271,-0.920173,0.08907957890607363
-0.186118,0.073513,-0.143569,0.969198,-0.019502,0.010824,-0.019979,0.000162,0.003212,0.005302,0.089056,0.381879,-0.919912,0.08917389276481287
-0.186331,0.073583,-0.143768,0.969122,-0.015231,0.005968,-0.020121,0.001177,0.004834,0.002549,0.089044,0.382312,-0.919733,0.08916303259070994
-0.186557,0.073683,-0.14395,0.969044,-0.021342,0.004876,-0.016405,0.000403,0.00501,0.003789,0.089095,0.382778,-0.919534,0.08921266984698858
-0.186854,0.073747,-0.144087,0.968961,-0.029369,0.001935,-0.016476,-0.001449,0.003857,-7.7e-05,0.08907,0.383361,-0.919293,0.08918766175638135
-0.187171,0.073703,-0.14425,0.968879,-0.02448,-0.0002,-0.021927,0.00184,0.004672,-0.004432,0.088821,0.383955,-0.91907,0.08893694328763703
-0.187445,0.073761,-0.144487,0.968787,-0.021178,0.009874,-0.025291,0.00316,0.002807,-0.003124,0.08875,0.384502,-0.918848,0.08886758940496658
-0.187701,0.073858,-0.144755,0.968689,-0.022428,0.015629,-0.022905,0.002047,0.003483,-0.00124,0.08875,0.385031,-0.918626,0.08886646841144046
-0.187938,0.073968,-0.145046,0.968592,-0.015799,0.008533,-0.030515,0.000467,0.002813,0.000649,0.088771,0.385527,-0.918416,0.08888731870856202
-0.188088,0.074019,-0.145395,0.968506,-0.010151,0.008221,-0.031513,0.001241,0.004279,0.000261,0.088682,0.385853,-0.918288,0.08879823325424738
-0.188167,0.074092,-0.145688,0.968441,-0.003253,0.007414,-0.023541,0.000766,0.003358,0.001755,0.08868,0.386046,-0.918207,0.08879675909017687
-0.188155,0.074158,-0.145936,0.968401,0.009614,0.006352,-0.014554,0.000266,0.003535,0.005239,0.088712,0.386064,-0.918196,0.08882895920352915
-0.188055,0.074133,-0.146059,0.968404,0.01828,0.000309,-0.005929,0.000185,0.002685,0.004129,0.088648,0.385883,-0.918279,0.08876365232533323
-0.187875,0.07407,-0.14604,0.968447,0.019099,-0.00476,0.007412,0.000836,0.002123,0.002958,0.088591,0.385529,-0.918433,0.08870750301643378
-0.187728,0.074016,-0.145928,0.968496,0.014757,-0.008743,0.013736,0.000465,0.001669,0.001987,0.088579,0.385231,-0.918559,0.08869510238883101
-0.187617,0.073981,-0.145779,0.968543,0.012986,-0.008496,0.012694,0.000995,0.000381,-0.000795,0.088607,0.385,-0.918653,0.0887226761864925
-0.18754,0.073959,-0.145674,0.968575,0.009798,-0.00311,0.007363,0.000876,-0.00046,-0.000631,0.08863,0.38484,-0.918718,0.08874672163950101
-0.187464,0.07392,-0.145634,0.968599,0.009654,-0.003158,0.002137,0.000735,0.000582,-0.001079,0.088596,0.384686,-0.918786,0.08871172283726762
-0.18743,0.073876,-0.145642,0.968608,0.006551,-0.005716,-0.001935,-0.000762,0.001021,-0.000193,0.088519,0.384611,-0.918825,0.08863441639742613
-0.187389,0.073778,-0.145668,0.968619,0.005648,-0.010377,-0.005004,-0.000156,0.00124,0.000761,0.088332,0.384512,-0.918884,0.08844765919629458
-0.187369,0.073674,-0.145701,0.968626,0.002491,-0.007686,-0.003421,0.000674,0.002467,-0.000121,0.088125,0.38445,-0.91893,0.08823986790707634
-0.187376,0.073599,-0.1457,0.96863,-0.000906,-0.007709,0.000348,-9.2e-05,0.002409,0.001115,0.087979,0.384443,-0.918947,0.08809292699791282
-0.187402,0.073548,-0.145698,0.96863,-0.002996,-0.00298,0.000589,0.0002,0.000399,0.001782,0.087872,0.384478,-0.918943,0.08798688926063673
-0.187441,0.073497,-0.145672,0.96863,-0.000394,-0.007673,-0.001918,-0.000521,-0.000995,0.001943,0.087773,0.384535,-0.918928,0.08788608197712693
-0.187491,0.073449,-0.145708,0.968618,-0.008102,0.003312,-0.002267,0.000798,0.001536,-0.001357,0.08765,0.384619,-0.918905,0.0877627889870747
-0.187605,0.073398,-0.145735,0.968596,-0.007779,-0.007604,-0.00402,-0.000666,0.002167,0.001331,0.087505,0.38482,-0.918834,0.08761684759593498
-0.187719,0.073348,-0.145761,0.968574,-0.007456,-0.01852,-0.005772,-0.00213,0.002799,0.004018,0.087361,0.385022,-0.918763,0.08747322168318501
-0.187831,0.073202,-0.14573,0.968568,-0.007337,-0.015466,0.00014,0.000148,0.000747,-0.000915,0.087058,0.385189,-0.918722,0.08716734933609
-0.187905,0.073174,-0.145729,0.968556,-0.005818,0.006019,-0.004483,0.003178,0.001965,-0.007774,0.08698,0.38532,-0.918675,0.08708986720938462
-0.188002,0.073342,-0.145767,0.968519,-0.016194,0.016001,0.000697,0.000805,0.005409,-0.006712,0.087257,0.385549,-0.918552,0.08736837403661656
-0.188215,0.073515,-0.145766,0.968464,-0.02681,0.011118,0.002061,-0.002573,0.004812,-0.003108,0.087522,0.38599,-0.918342,0.08763469353914366
-0.188457,0.073572,-0.145759,0.968414,-0.019765,-0.008039,-0.004473,-0.002358,0.003177,0.002045,0.087556,0.386457,-0.918142,0.08766996429380314
-0.188608,0.073503,-0.145802,0.968383,-0.010949,-0.008196,-0.006336,0.00058,0.003888,0.001294,0.087359,0.386724,-0.918048,0.08747076316368461
-0.188715,0.073451,-0.145852,0.968359,-0.004424,-0.001121,-0.004268,0.000645,0.004042,0.003049,0.087205,0.386914,-0.917983,0.087315861393744
-0.188741,0.073429,-0.145883,0.968351,0.001603,0.00124,-0.002051,0.000766,0.002696,0.00423,0.087141,0.386958,-0.91797,0.08725255147646716
-0.188689,0.073425,-0.145909,0.968357,0.009457,-0.000665,-0.001104,9.3e-05,0.00152,0.003714,0.08714,0.386863,-0.918011,0.08725104002286181
-0.188631,0.073404,-0.145932,0.968367,0.009186,-0.000306,-0.003057,0.000238,0.000954,0.000946,0.08711,0.386753,-0.91806,0.08721996736986165
-0.188566,0.073425,-0.14598,0.968371,0.007093,-0.003179,-0.005702,-0.000524,-0.000823,0.001638,0.087152,0.38664,-0.918103,0.08726225583481902
-0.188537,0.073364,-0.146021,0.968375,0.004737,-0.011078,-0.003046,-0.002228,0.001297,0.000211,0.087028,0.386574,-0.918143,0.08713723326884062
-0.188537,0.073238,-0.146045,0.968381,-0.000721,-0.004165,-0.002376,0.002,0.003691,-0.006292,0.086775,0.386542,-0.91818,0.08688407413722596
-0.188597,0.073265,-0.146041,0.968367,-0.007464,0.002719,0.003136,0.001722,0.001945,-0.003067,0.086808,0.386662,-0.918127,0.08691842830398397
-0.188701,0.073381,-0.14599,0.968346,-0.010738,0.010136,0.0039,0.000628,0.000709,-0.001119,0.087019,0.386881,-0.918015,0.08712967783163955
-0.188776,0.073442,-0.145958,0.968332,-0.002691,-0.000424,0.00181,-0.001031,-0.000251,0.002095,0.087125,0.387035,-0.917939,0.08723634796830976
-0.188775,0.073419,-0.145971,0.968332,0.003954,-0.001797,-0.000288,-0.000739,0.001421,0.001966,0.087075,0.387028,-0.917947,0.0871870009174414
-0.188698,0.073411,-0.146004,0.968342,0.012835,0.000197,-0.002861,-0.00056,0.002468,0.002355,0.087073,0.386884,-0.918008,0.08718298604212309
-0.188566,0.073373,-0.146006,0.968371,0.01296,-0.001781,0.001235,-0.000728,0.004322,0.002833,0.087042,0.386629,-0.918119,0.08715131824453545
-0.188438,0.07334,-0.145996,0.968399,0.011833,-0.002104,0.002515,-0.001459,0.003818,0.000721,0.087023,0.386381,-0.918225,0.08713258802349974
-0.18835,0.073328,-0.145969,0.968422,0.010546,-6e-05,0.004528,-0.001489,0.002158,-0.000378,0.087038,0.386212,-0.918294,0.08714864666346654
-0.188277,0.073323,-0.145936,0.968441,0.008616,-0.000705,0.003295,1.8e-05,0.001525,-0.001887,0.087065,0.386071,-0.918351,0.08717558875137371
-0.188253,0.073342,-0.145962,0.96844,0.002939,0.005422,-0.002734,0.000693,0.001255,-0.003305,0.087098,0.386034,-0.918364,0.08720958775503619
-0.188256,0.07342,-0.146023,0.968425,5e-06,0.007914,-0.006843,0.001153,0.002493,-0.002489,0.087225,0.386065,-0.918338,0.08733509645392656
-0.188277,0.073494,-0.146108,0.968402,0.000292,0.009295,-0.007221,0.000973,0.002575,-0.000878,0.087325,0.386132,-0.918301,0.0874372925280655
-0.188281,0.073549,-0.146202,0.968383,0.004145,0.005703,-0.005669,0.000417,0.001354,0.000132,0.087393,0.386162,-0.918282,0.08750471395628714
-0.188174,0.073563,-0.146289,0.96839,0.013242,-3.7e-05,-0.00371,-0.000151,0.002461,0.001716,0.087419,0.385975,-0.918358,0.08753150605477468
-0.188016,0.073528,-0.146323,0.968418,0.02241,-0.002162,0.001536,0.000379,0.002609,0.001489,0.08739,0.385674,-0.918487,0.08750116243036211
-0.187803,0.073507,-0.14629,0.968466,0.023715,0.00246,0.009189,0.000727,0.000712,0.000621,0.087431,0.385269,-0.918653,0.08754243210569004
-0.187562,0.073518,-0.146221,0.968522,0.024445,0.003988,0.010088,0.000217,-0.001166,0.001649,0.087557,0.384815,-0.918831,0.08766885252204167
-0.187338,0.073498,-0.146176,0.968574,0.024008,-0.0038,0.006142,0.000848,-0.001614,0.001665,0.087608,0.384388,-0.919005,0.0877203206389232
-0.187178,0.073471,-0.14615,0.968611,0.012857,0.005735,0.005217,0.002847,-0.000929,-0.003132,0.087617,0.384081,-0.919133,0.08773000129878655
-0.187094,0.073544,-0.146105,0.968628,0.005302,0.0055,0.003589,-0.001,-0.004435,0.002489,0.087802,0.38394,-0.919174,0.08791602759951168
-0.18706,0.073498,-0.146114,0.968637,0.003209,-0.015777,-0.001347,-0.003018,-0.003027,0.005571,0.087722,0.383865,-0.919213,0.08783449023175513
-0.187069,0.073336,-0.146036,0.968659,-0.001825,-0.014967,0.006009,0.001235,-0.003222,-0.003617,0.087437,0.383832,-0.919254,0.08754933564011418
-0.187077,0.073352,-0.145985,0.968664,-0.006783,0.010378,0.004018,0.004574,-0.001035,-0.009356,0.087485,0.383846,-0.919243,0.08759799800631742
-0.187181,0.073573,-0.145943,0.968633,-0.024196,0.025233,0.010773,0.001841,0.002921,-0.006532,0.087895,0.384094,-0.919101,0.08800852574268661
-0.187429,0.07383,-0.145849,0.96858,-0.031243,0.008527,0.009362,-0.004617,0.003696,0.001473,0.088349,0.384615,-0.918839,0.08846319483290262
-0.187717,0.073836,-0.145782,0.968534,-0.028881,-0.011257,0.001977,-0.002972,0.002199,0.00255,0.088293,0.385149,-0.918621,0.0884089579815199
-0.187952,0.073739,-0.1457,0.968508,-0.021818,-0.010378,0.001921,0.000465,0.002185,-0.000846,0.088063,0.385554,-0.918473,0.08817863736196117
-0.188136,0.073721,-0.145644,0.968482,-0.013466,-0.004332,0.002532,0.000459,0.002565,0.001531,0.087993,0.385888,-0.91834,0.08810711355359388
-0.188249,0.073666,-0.145622,0.968468,-0.004497,-0.001447,0.000846,-7.7e-05,0.003355,0.002681,0.08786,0.38608,-0.918271,0.0879733672929697
-0.188301,0.073692,-0.145602,0.968459,-0.001193,0.001358,0.002103,-0.000763,0.00233,0.003519,0.087901,0.386183,-0.918224,0.08801494940568981
-0.188309,0.073688,-0.145582,0.96846,0.000879,-0.003864,0.00111,-0.000177,0.001234,0.001625,0.087899,0.386196,-0.918219,0.0880125425213383
-0.188306,0.073696,-0.145602,0.968458,0.001156,0.000383,-0.001454,-0.000339,0.0005,0.002362,0.087907,0.386193,-0.91822,0.08802111754308617
-0.188305,0.073698,-0.145609,0.968457,0.000509,-0.000889,-0.003222,-0.003393,0.000771,0.000714,0.087909,0.386192,-0.91822,0.08802250428173256
-0.188309,0.073598,-0.145648,0.968457,0.00216,0.00101,-0.01021,0.00158,0.002784,-0.006522,0.0877,0.386177,-0.918246,0.08781214745894105
-0.188337,0.073644,-0.145701,0.96844,-0.00286,0.00837,0.000413,0.00259,0.004139,-0.00386,0.087758,0.386247,-0.918211,0.08787084792152666
-0.188409,0.073859,-0.145708,0.968409,-0.008801,0.023009,0.00357,0.000845,0.00135,-0.001259,0.088147,0.386438,-0.918094,0.08826058955387953
-0.188434,0.074033,-0.145752,0.968384,-0.001576,0.008041,-0.005281,-0.00128,-0.000521,0.002705,0.088456,0.386535,-0.918023,0.0885712400900299
-0.18843,0.074067,-0.145818,0.968372,-0.000436,0.005536,-0.004683,0.000472,0.002489,0.000879,0.088496,0.386542,-0.918016,0.08861176477411506
-0.188478,0.074152,-0.14584,0.968353,-0.003703,0.00396,-0.001218,0.000307,0.001736,0.001208,0.088635,0.386656,-0.917955,0.08875182908252073
-0.188537,0.074221,-0.145873,0.968332,-0.004191,0.003266,-0.0038,-0.000844,-0.000614,0.003625,0.088737,0.386787,-0.91789,0.0888530909595993
-0.188595,0.074212,-0.145935,0.968312,-0.004193,0.00398,-0.003703,-0.000994,-0.000948,0.00394,0.088676,0.386897,-0.917849,0.08879214519911699
-0.188648,0.074238,-0.145967,0.968295,-0.004944,0.001485,-0.004604,-0.00094,-9.5e-05,0.00115,0.088696,0.387006,-0.917801,0.08881251099721098
-0.188703,0.074256,-0.14603,0.968273,-0.006928,0.00425,-0.004383,-0.000481,0.001026,-0.00067,0.088689,0.387119,-0.917755,0.08880423679764546
-0.188783,0.074288,-0.146101,0.968244,-0.009408,0.003756,-0.004528,0.000965,0.003436,-0.000674,0.088696,0.387284,-0.917684,0.08881175520849202
-0.188894,0.074361,-0.146136,0.968212,-0.013196,0.007592,-0.004276,0.00094,0.004362,-0.001715,0.088786,0.387512,-0.917579,0.08890306295592247
-0.189024,0.074459,-0.146172,0.968173,-0.01157,0.009857,-0.001896,0.000595,0.002268,-0.000537,0.088919,0.387783,-0.917452,0.08903594519069051
-0.189093,0.074529,-0.146223,0.968147,-0.004354,0.007336,-0.004765,0.000186,0.000709,-0.000168,0.089011,0.387934,-0.917379,0.08912852176525683
-0.189085,0.074607,-0.146309,0.968129,0.004279,0.00743,-0.007619,-3.6e-05,0.002757,0.001252,0.08913,0.387948,-0.917362,0.08924715531417876
-0.188992,0.074642,-0.146393,0.968132,0.012177,0.006726,-0.006708,0.000407,0.00373,-0.000656,0.089193,0.387793,-0.917421,0.08931108964765559
-0.188828,0.074663,-0.14645,0.968154,0.017397,0.00457,-0.001069,0.0004,0.004079,-0.000307,0.089262,0.387498,-0.917539,0.08938180895657137
-0.188638,0.074699,-0.14646,0.968187,0.019699,0.003669,0.004668,0.00036,0.002686,0.001324,0.089389,0.387155,-0.917671,0.08950883220251916
-0.188447,0.07473,-0.146428,0.968226,0.019903,0.006589,0.007169,0.000864,6.2e-05,0.002986,0.089524,0.386804,-0.917806,0.08964323592287762
-0.188266,0.074731,-0.146395,0.968266,0.020129,0.000355,0.00151,0.001231,-0.001316,0.001126,0.089597,0.386463,-0.917943,0.08971687928732044
-0.18811,0.074729,-0.146429,0.968292,0.012977,0.007955,0.001121,0.002734,-0.000173,-0.000281,0.089629,0.386175,-0.918061,0.08974990878020933
-0.188016,0.074812,-0.146416,0.968306,0.006071,0.009812,0.002251,-0.000447,-0.002171,0.003241,0.089825,0.38602,-0.918107,0.08994594780158086
-0.187943,0.074752,-0.146384,0.968329,0.008183,-0.021553,0.000921,-0.002968,-0.001244,0.007903,0.089745,0.385866,-0.918179,0.08986627296823634
-0.187908,0.074505,-0.146274,0.968371,0.003774,-0.023228,0.011112,0.003644,-0.000858,-0.003768,0.089325,0.385726,-0.918279,0.08944406778231673
-0.1879,0.074485,-0.146174,0.96839,-0.004578,0.010283,0.010414,0.009477,0.000532,-0.010181,0.089328,0.385696,-0.918291,0.08944809987515052
-0.187975,0.074754,-0.146079,0.968369,-0.01865,0.032343,0.015694,0.004674,0.00261,-0.004829,0.08986,0.385898,-0.918155,0.08998188992240774
-0.188138,0.075028,-0.145996,0.968329,-0.016193,0.010049,0.007905,-0.004356,0.000115,0.005112,0.09037,0.386267,-0.917949,0.09049223946308793
-0.188257,0.075019,-0.145953,0.968313,-0.010884,-0.014507,-0.004648,-0.001687,0.001708,0.00284,0.090331,0.386482,-0.917863,0.09045369434185825
-0.188383,0.074909,-0.145948,0.968297,-0.016565,-0.014196,-0.00292,0.001266,0.004548,-0.001571,0.090081,0.386686,-0.917801,0.09020234737523042
-0.188558,0.074867,-0.145914,0.968272,-0.011627,-0.009099,0.003306,0.001675,0.004502,-0.001903,0.089956,0.386999,-0.917682,0.09007850443142128
-0.188659,0.074823,-0.14586,0.968263,-0.003132,-0.003764,0.006017,-0.001137,0.003913,0.001053,0.089861,0.387171,-0.917618,0.08998246124980706
-0.188656,0.07479,-0.145762,0.968281,0.004243,-0.003851,0.009629,-0.001793,0.004721,0.002884,0.089838,0.387147,-0.917631,0.08995900519658674
-0.188596,0.074744,-0.145652,0.968313,0.012866,-0.008111,0.007898,-0.001115,0.00415,0.001097,0.089813,0.387013,-0.91769,0.08993358676807363
-0.188522,0.074717,-0.14558,0.968341,0.009393,-0.001116,0.006073,-7.6e-05,0.002664,0.001775,0.089812,0.386862,-0.917754,0.08993418811230233
-0.188453,0.07464,-0.145578,0.96836,0.008677,0.002388,0.005677,0.000692,0.002704,0.000295,0.089689,0.386712,-0.917829,0.08980823546311939
-0.188384,0.074564,-0.145575,0.96838,0.007961,0.005892,0.00528,0.00146,0.002744,-0.001186,0.089565,0.386563,-0.917904,0.08968475040367299
-0.188314,0.074488,-0.145573,0.9684,0.007245,0.009396,0.004884,0.002228,0.002784,-0.002666,0.089441,0.386414,-0.917979,0.08956117395166263
-0.188262,0.074601,-0.145534,0.968407,0.005152,0.013101,0.012394,0.000407,0.001375,0.001703,0.08969,0.386343,-0.917984,0.08981190853237636
-0.188154,0.074631,-0.145471,0.968435,0.017776,-0.004937,0.005394,-0.001516,-0.002747,0.00391,0.089809,0.386143,-0.918057,0.08992981085110038
-0.187997,0.074543,-0.145427,0.968479,0.017049,-0.008569,0.004728,-0.000655,-0.001213,0.001579,0.089706,0.385824,-0.918201,0.08982773569106223
-0.18787,0.074486,-0.145374,0.968516,0.011029,-0.004481,0.004406,-0.000333,-0.000286,0.001423,0.089659,0.385567,-0.918313,0.08977949935218825
-0.187778,0.074412,-0.145318,0.968548,0.012703,-0.006574,0.004991,-0.001028,-0.001879,0.002365,0.089568,0.385371,-0.918404,0.08968833451271908
-0.18767,0.074316,-0.145262,0.968585,0.011143,-0.004362,0.004703,0.000147,-0.001187,0.001255,0.089439,0.385138,-0.918515,0.08955976438632379
-0.187583,0.074275,-0.145205,0.968613,0.007889,-0.003869,0.003178,0.00054,-0.001548,-0.000538,0.089411,0.38496,-0.918592,0.08953104480097311
-0.187532,0.074246,-0.14519,0.968627,0.002139,-0.001049,0.000862,0.00073,-0.001145,-0.00053,0.089377,0.384856,-0.918639,0.08949724568288075
-0.187549,0.074235,-0.145228,0.968619,-0.00048,-0.002049,-0.005972,0.000503,-0.000408,-0.002134,0.089336,0.384889,-0.918629,0.0894553905101323
-0.1876,0.074277,-0.145266,0.968601,-0.00919,0.002478,-0.005192,0.001081,0.001708,-0.002565,0.089386,0.384999,-0.918578,0.08950520898649647
-0.187682,0.074317,-0.145331,0.968572,-0.009017,0.001789,-0.005527,-0.000816,0.001359,-0.001412,0.08941,0.385168,-0.918505,0.08953026472060101
-0.187735,0.074324,-0.145391,0.968552,-0.003114,0.000722,-0.005702,-0.001996,0.00149,-0.001218,0.089384,0.385274,-0.918463,0.08950280855000403
-0.187708,0.074328,-0.145465,0.968546,0.003306,0.002036,-0.004051,-0.002057,0.003048,0.000343,0.08937,0.385231,-0.918482,0.08948968282933868
-0.187605,0.074295,-0.145545,0.968556,0.017437,-0.003912,-0.007591,-0.002385,0.006253,-0.000983,0.089308,0.385038,-0.918569,0.08942694280308827
-0.187404,0.074178,-0.145671,0.968585,0.024297,-0.007596,-0.013104,-0.000248,0.010668,-0.007379,0.089096,0.384645,-0.918755,0.08921504156712329
-0.187214,0.073968,-0.145892,0.968605,0.022336,-0.024553,-0.032989,0.000781,0.020854,-0.021352,0.088666,0.384255,-0.91896,0.08878208744776155
-0.187118,0.073623,-0.146335,0.968583,0.01301,-0.01191,-0.06217,0.004665,0.04179,-0.051314,0.087856,0.384025,-0.919133,0.08796956432491294
-0.187123,0.073433,-0.147026,0.968492,0.012024,-0.008034,-0.07679,-0.000603,0.06824,-0.05844,0.087214,0.384047,-0.919185,0.08732559871124598
-0.187003,0.073212,-0.147843,0.968407,0.032533,0.005589,-0.086325,-0.000935,0.098585,-0.074852,0.086503,0.383838,-0.91934,0.08661210595021832
-0.186597,0.072977,-0.148658,0.968379,0.061966,0.000946,-0.063715,-0.004461,0.136857,-0.090493,0.08586,0.38309,-0.919712,0.0859663607793907
-0.185954,0.073153,-0.149151,0.968413,0.076291,0.045393,-0.00892,-0.015088,0.158484,-0.07349,0.086213,0.381982,-0.92014,0.0863213444478402
-0.18484,0.07334,-0.149196,0.968605,0.139122,0.034597,0.027651,-0.017841,0.15956,-0.054308,0.086919,0.379958,-0.920911,0.08703002669595547
-0.183029,0.073543,-0.148929,0.968975,0.207709,0.040496,0.065524,-0.019206,0.150717,-0.026541,0.088006,0.376607,-0.922184,0.08812000465648127
-0.180617,0.073683,-0.148394,0.969499,0.260186,0.026834,0.086401,-0.020798,0.136299,-0.003937,0.089266,0.372084,-0.923897,0.08938521097157527
-0.177913,0.073683,-0.147753,0.970096,0.270133,0.014557,0.101046,-0.019355,0.123314,0.014018,0.090384,0.366959,-0.925836,0.09050832793284015
-0.175253,0.073635,-0.14701,0.970697,0.252987,0.029107,0.096522,-0.012991,0.101589,0.025565,0.091426,0.361884,-0.927729,0.09155451167535185
-0.172647,0.073742,-0.146348,0.971256,0.260213,0.034379,0.087537,-0.01076,0.080039,0.043615,0.092711,0.356952,-0.929511,0.09284496628510877
-0.170022,0.073896,-0.145785,0.971792,0.286391,0.034153,0.078557,-0.011804,0.066495,0.050286,0.09405,0.351998,-0.931264,0.09418897419536115
-0.167346,0.073757,-0.145466,0.972314,0.309543,0.02635,0.06377,-0.006901,0.055408,0.03792,0.094744,0.346884,-0.93311,0.09488593859111746
-0.164668,0.073618,-0.145145,0.97283,0.332696,0.018548,0.048982,-0.001992,0.044332,0.025527,0.095433,0.341759,-0.934929,0.09557958490036436
-0.162141,0.073473,-0.14509,0.973273,0.311944,0.031037,0.031097,0.00328,0.040903,0.010953,0.095968,0.336936,-0.936624,0.09611642366341112
-0.159956,0.073571,-0.145166,0.973616,0.260923,0.054958,0.019819,0.001218,0.033382,0.01377,0.09682,0.332832,-0.938002,0.09697136613881525
-0.158112,0.073785,-0.145308,0.97388,0.233338,0.033376,0.008616,-0.003492,0.01847,0.03699,0.097765,0.329408,-0.939113,0.09792201072443243
-0.156315,0.073627,-0.145564,0.974144,0.223068,-0.000583,-0.009281,-0.001673,0.012362,0.029522,0.097939,0.325982,-0.940289,0.09809617921559227
-0.154557,0.073233,-0.145797,0.974419,0.211334,-0.01543,-0.000488,0.002929,0.011818,0.014375,0.097652,0.322561,-0.941498,0.09780722627786209
-0.152889,0.073098,-0.145789,0.974693,0.196701,0.014345,0.032625,0.005237,-0.005609,0.021679,0.097916,0.319352,-0.942564,0.0980742957627417
-0.151154,0.072992,-0.145609,0.974999,0.203692,0.015428,0.044209,0.005902,-0.017521,0.025928,0.098316,0.316007,-0.943649,0.09847456654864749
-0.149267,0.073169,-0.145297,0.975323,0.208084,0.053123,0.056246,0.009109,-0.035367,0.036254,0.099351,0.31243,-0.944731,0.0995148941483663
-0.147163,0.073532,-0.144999,0.975659,0.215729,0.068424,0.061808,0.0028,-0.043264,0.043671,0.100807,0.308486,-0.945872,0.1009788610674569
-0.145001,0.074035,-0.144738,0.975984,0.208834,0.06112,0.044826,-0.005093,-0.042296,0.045829,0.10254,0.304468,-0.946987,0.10272018705432387
-0.143074,0.074473,-0.144412,0.976283,0.167432,0.062537,0.070831,-0.008713,-0.0426,0.051505,0.104091,0.30087,-0.947967,0.10427913094155862
-0.141357,0.074793,-0.143833,0.976594,0.152194,0.023883,0.084116,-0.012319,-0.051972,0.046218,0.105422,0.297612,-0.948848,0.10561743901664043
-0.139763,0.074867,-0.143129,0.976921,0.154196,0.001121,0.085256,-0.007935,-0.06144,0.038552,0.106271,0.294507,-0.949722,0.10647105902614508
-0.13828,0.074703,-0.142199,0.977281,0.138546,-0.016242,0.101554,-0.007489,-0.064486,0.037092,0.106685,0.291522,-0.950596,0.10688850967772913
-0.136797,0.074538,-0.141269,0.977637,0.122895,-0.033604,0.117852,-0.007037,-0.06753,0.035623,0.107092,0.288535,-0.951462,0.1072976264842181
-0.135524,0.074069,-0.140099,0.978018,0.109864,-0.050168,0.133724,-0.003197,-0.07343,0.02235,0.106907,0.285844,-0.952294,0.10711277938717009
-0.134294,0.073661,-0.13876,0.978409,0.115443,-0.041491,0.141071,-0.001502,-0.088201,0.012057,0.106871,0.283232,-0.953078,0.10707639401605172
-0.13286,0.073269,-0.137428,0.978823,0.143835,-0.034903,0.137685,-0.00271,-0.101154,0.004608,0.106917,0.280231,-0.95396,0.10712215299486696
-0.131024,0.072899,-0.136195,0.97927,0.190361,-0.028579,0.131861,-0.004472,-0.106234,0.00239,0.107086,0.276472,-0.955037,0.10729170993478723
-0.128765,0.072444,-0.13494,0.979777,0.227101,-0.037494,0.13645,-0.009007,-0.105305,-0.003815,0.107206,0.271872,-0.956343,0.10741326135152257
-0.126108,0.071871,-0.133648,0.980342,0.225807,-0.038628,0.14173,-0.004355,-0.095286,-0.007313,0.107209,0.266469,-0.957862,0.10741459304652214
-0.123451,0.071298,-0.132354,0.980897,0.224513,-0.039762,0.14701,0.000314,-0.085259,-0.01084,0.107194,0.261058,-0.959353,0.10739987373280234
-0.120848,0.070803,-0.131025,0.981435,0.206179,-0.026956,0.142406,0.009687,-0.079644,-0.009874,0.107309,0.255763,-0.960765,0.10751588781324202
-0.118328,0.070502,-0.129754,0.981933,0.193361,-0.000299,0.134386,0.016698,-0.08491,-0.013065,0.107748,0.250677,-0.962056,0.1079590089610759
-0.11572,0.070301,-0.128691,0.982398,0.226086,0.014331,0.101733,0.018856,-0.09323,-0.017716,0.108342,0.24546,-0.963333,0.10855596406528188
-0.112685,0.070177,-0.128101,0.982836,0.272046,0.028811,0.054396,0.020882,-0.094219,-0.021812,0.109075,0.239481,-0.964755,0.10929229084464916
-0.109292,0.070203,-0.128115,0.983216,0.3085,0.040136,-0.010961,0.016134,-0.08031,-0.014445,0.110046,0.232904,-0.966253,0.1102688646615605
-0.105725,0.070023,-0.128644,0.98355,0.306486,0.008616,-0.046914,0.013585,-0.044004,-0.007024,0.110541,0.225989,-0.967838,0.11076683569419339
-0.102943,0.069727,-0.129092,0.983807,0.219953,0.002705,-0.022268,0.012877,-0.017524,-0.005869,0.110617,0.220555,-0.969082,0.11084442790729983
-0.10016,0.06943,-0.129539,0.984056,0.13342,-0.003206,0.002379,0.012166,0.008963,-0.004746,0.110696,0.215115,-0.970295,0.11092409498579658
-0.098648,0.069253,-0.129478,0.98423,0.065833,-0.020425,0.018103,0.01159,0.006239,0.003208,0.110775,0.212118,-0.970945,0.11100409219670526
-0.097952,0.069038,-0.129285,0.98434,0.017057,-0.017366,0.016211,0.01617,0.003591,-0.00197,0.110587,0.210687,-0.971278,0.11081292999485635
-0.097833,0.069022,-0.129091,0.984378,-0.001587,-0.003966,0.018316,0.015564,-0.00419,0.001262,0.110629,0.210429,-0.971329,0.11085566805458014
-0.097891,0.069055,-0.128908,0.984394,0.015984,-0.019326,0.01242,0.008889,-0.011791,0.008053,0.110717,0.210531,-0.971297,0.11094424444625935
-0.097682,0.068891,-0.128791,0.984442,0.046675,-0.027641,0.010124,0.008576,-0.016423,0.007821,0.110476,0.210069,-0.971425,0.11070323939564847
-0.097093,0.068724,-0.128676,0.984527,0.08071,-0.018208,0.014731,0.013098,-0.013944,0.002537,0.110334,0.208868,-0.9717,0.11055928599092057
-0.096221,0.068627,-0.12845,0.984649,0.081731,-0.001704,0.043008,0.008086,-0.003135,0.00021,0.110428,0.207117,-0.972064,0.11065351135557583
-0.095335,0.068672,-0.127915,0.984801,0.076858,-0.008087,0.069624,-0.002624,-0.002837,0.008828,0.110867,0.20534,-0.972391,0.11109534086183831
-0.094471,0.06839,-0.127302,0.984983,0.075392,-0.051334,0.056374,-0.0083,-0.000285,0.007251,0.110673,0.203518,-0.972796,0.1109004663766515
-0.093875,0.067851,-0.126671,0.985159,0.037254,-0.064195,0.061436,-0.007069,0.00489,-0.001665,0.109906,0.202154,-0.973167,0.1101280402940378
-0.093739,0.067341,-0.126026,0.98529,-0.006419,-0.052654,0.052358,-0.004381,0.004324,-0.010297,0.109074,0.201694,-0.973356,0.10929116792285005
-0.094041,0.066937,-0.1256,0.985343,-0.035154,-0.044752,0.024991,-0.007685,0.00182,-0.009829,0.108289,0.202141,-0.973351,0.10850147450394648
-0.094602,0.066661,-0.12533,0.985342,-0.06188,-0.021439,0.018402,-0.006561,0.002085,-0.013055,0.107655,0.203139,-0.973214,0.10786386623164496
-0.095284,0.066851,-0.125278,0.98527,-0.061646,0.011727,0.007707,-0.008472,-0.001886,-0.012165,0.107859,0.20451,-0.972904,0.10806882246394954
-0.095966,0.067041,-0.125225,0.985198,-0.061411,0.044892,-0.002989,-0.010384,-0.005856,-0.011277,0.108063,0.205881,-0.972592,0.10827406396558394
-0.096394,0.067452,-0.12535,0.985112,-0.042835,0.05624,-0.018683,-0.013403,-0.007424,-0.007369,0.10873,0.206827,-0.972317,0.10894495693733353
-0.096631,0.067939,-0.125613,0.985022,-0.025754,0.055736,-0.025935,-0.010763,0.000543,-0.003733,0.109567,0.207435,-0.972093,0.10978701409521581
-0.09679,0.068488,-0.125966,0.984923,-0.027123,0.064407,-0.028094,-0.006548,0.010375,0.001731,0.110527,0.207917,-0.971882,0.11075259349182998
-0.097083,0.069132,-0.126178,0.984822,-0.057967,0.073424,-0.000172,-0.000662,0.016926,0.002515,0.111666,0.208665,-0.971591,0.1118993291269388
-0.097566,0.069788,-0.12611,0.984737,-0.068605,0.065583,0.021428,-3.8e-05,0.010534,0.005347,0.112838,0.209756,-0.971221,0.11307838459638996
-0.098028,0.070345,-0.125886,0.98468,-0.049155,0.048699,0.027426,0.003546,0.000339,0.003772,0.113853,0.210763,-0.970884,0.11410134559757126
-0.09836,0.070788,-0.125645,0.984646,-0.026053,0.041977,0.026829,0.00903,-0.00342,0.001422,0.114686,0.211488,-0.970629,0.11493826172636891
-0.098577,0.071247,-0.125409,0.984621,-0.013188,0.044076,0.029258,0.009163,-0.005617,0.001668,0.115578,0.211992,-0.970413,0.11583657641222479
-0.09867,0.071669,-0.125162,0.984613,-0.003819,0.034335,0.028853,0.008967,-0.003351,0.002746,0.116433,0.212243,-0.970256,0.11669768043261586
-0.098677,0.07206,-0.124869,0.984621,-0.010563,0.030623,0.03975,0.006189,0.004792,0.002687,0.117259,0.212314,-0.970141,0.1175305786097587
-0.098784,0.072477,-0.124362,0.984644,-0.026412,0.031293,0.057046,0.003882,0.002776,0.002539,0.118158,0.212561,-0.969978,0.11843481767576079
-0.098986,0.072871,-0.123752,0.984671,-0.038855,0.023456,0.061842,0.002236,-0.002099,0.001332,0.119007,0.212973,-0.969783,0.11929121553319348
-0.099295,0.073217,-0.123206,0.984683,-0.039156,0.014398,0.038778,0.000749,-0.012446,0.000244,0.119723,0.213589,-0.96956,0.12001146605754533
-0.099664,0.073478,-0.122949,0.984658,-0.04398,0.017377,0.007999,-0.000143,-0.012939,0.00056,0.120194,0.214338,-0.969336,0.1204855211755203
-0.100153,0.073645,-0.123008,0.984589,-0.04892,0.002712,-0.02154,-0.001824,-0.009945,0.005094,0.12038,0.215336,-0.969092,0.12067353692678565
-0.10065,0.073723,-0.123276,0.984499,-0.048083,0.00037,-0.034845,-0.002773,-0.006133,0.005998,0.120345,0.216356,-0.968869,0.1206373814670047
-0.100984,0.073602,-0.123662,0.984425,-0.02762,-0.016914,-0.049716,-0.004313,-0.00518,0.004643,0.119935,0.217027,-0.96877,0.12022494428192256
-0.101139,0.073415,-0.124123,0.984365,-0.017738,-0.009988,-0.044719,-0.003169,0.00154,-0.001184,0.119426,0.217341,-0.968762,0.1197126922695103
-0.101246,0.073344,-0.124564,0.984304,-0.012618,-0.00276,-0.043831,-0.005752,0.006466,0.00057,0.119162,0.217585,-0.96874,0.11944620012795765
-0.101363,0.073263,-0.124932,0.984251,-0.012742,-0.008104,-0.029934,-0.005758,0.008878,0.002587,0.118891,0.217838,-0.968716,0.11917328571717581
-0.101452,0.073167,-0.125208,0.984214,-0.002539,-0.005692,-0.028131,-0.000747,0.004917,-0.002389,0.118619,0.218023,-0.968708,0.1188987127720668
-0.101442,0.073187,-0.125534,0.984172,0.011528,0.01872,-0.034599,0.00211,0.004351,-0.005709,0.118589,0.218047,-0.968706,0.11886808139424114
-0.10129,0.073313,-0.125927,0.984128,0.024563,0.029306,-0.032716,0.005346,0.003964,-0.007486,0.118789,0.217829,-0.968731,0.11906961411463211
-0.101013,0.07355,-0.126371,0.984082,0.039518,0.036372,-0.045698,0.003854,0.003883,-0.002351,0.119229,0.217399,-0.968774,0.1195125359374116
-0.100606,0.073748,-0.126897,0.984041,0.04833,0.030835,-0.046938,0.005685,0.003853,0.00289,0.119608,0.216718,-0.968879,0.11989595732204544
-0.100098,0.073938,-0.127455,0.984007,0.055546,0.032066,-0.04745,0.00844,0.003647,0.004478,0.119994,0.215841,-0.969027,0.12028488423101412
-0.099575,0.074095,-0.127964,0.983982,0.059048,0.015574,-0.041225,0.002772,0.006257,0.011766,0.120333,0.214923,-0.969189,0.12062456958783273
-0.099058,0.074042,-0.128376,0.983984,0.057196,-0.010291,-0.030905,0.000564,0.008375,0.014685,0.120279,0.213954,-0.96941,0.12057086458324805
-0.098647,0.073696,-0.128625,0.984019,0.042179,-0.03817,-0.014474,0.001096,0.011633,0.005469,0.119659,0.213099,-0.969675,0.11994699943080236
-0.098396,0.073379,-0.128639,0.984066,0.021884,-0.024098,0.008718,0.007107,0.015248,-0.007339,0.119105,0.212536,-0.969867,0.11938784481236969
-0.098357,0.073281,-0.128429,0.984105,-0.004109,-0.005511,0.030485,0.005971,0.01418,-0.006848,0.118968,0.212409,-0.969912,0.11925105498363234
-0.098566,0.073388,-0.127994,0.984132,-0.02447,-0.003114,0.050078,-0.000554,0.006946,0.0002,0.119216,0.212791,-0.969798,0.11949945329748624
-0.098853,0.073369,-0.127601,0.984156,-0.014231,-0.018841,0.027734,-0.00411,-0.000691,0.00456,0.119186,0.213297,-0.96969,0.1194695950122624
-0.099046,0.073224,-0.127358,0.984179,-0.011752,-0.028723,0.011077,-0.001247,0.006887,0.002466,0.118902,0.213609,-0.969656,0.11918441250590671
-0.09935,0.073084,-0.127191,0.98418,-0.02397,-0.013432,0.013329,0.000814,0.008276,-0.001317,0.118583,0.214148,-0.969577,0.1188624599967475
-0.099503,0.07313,-0.127178,0.984163,-0.01588,-0.004454,0.004288,0.000882,0.006899,-0.002265,0.118635,0.214456,-0.969502,0.11891455248536247
-0.099656,0.073177,-0.127165,0.984146,-0.00779,0.004523,-0.004753,0.000951,0.005523,-0.003213,0.118688,0.214763,-0.969428,0.11896863246409758
-0.099809,0.073224,-0.127151,0.984129,0.0003,0.013501,-0.013794,0.001019,0.004147,-0.004161,0.118741,0.215071,-0.969353,0.11902291862667465
-0.099879,0.073424,-0.12733,0.984083,-0.004829,0.026903,-0.023777,0.000107,0.006361,3.8e-05,0.119075,0.215276,-0.969266,0.11935863927432268
-0.100006,0.073619,-0.127608,0.98402,-0.01362,0.025314,-0.025688,-0.001463,0.00703,-0.0012,0.119362,0.215605,-0.969158,0.11964726899798374
-0.100174,0.073784,-0.127892,0.983954,-0.009145,0.005896,-0.025379,-0.002124,0.004549,0.002654,0.119577,0.216005,-0.969042,0.11986403348852236
-0.100315,0.073838,-0.128229,0.983891,-0.0077,0.012296,-0.028179,0.001663,0.003782,-0.003627,0.119571,0.216335,-0.96897,0.11985727055656764
-0.100456,0.074067,-0.128483,0.983827,-0.012945,0.024021,-0.020609,0.000501,0.000123,-0.002786,0.119925,0.216696,-0.968845,0.12021378517742679
-0.100548,0.074167,-0.12876,0.983773,-0.005906,0.012859,-0.026114,-0.001438,-0.000428,-0.001335,0.120034,0.216932,-0.968779,0.12032399216751577
-0.10064,0.074266,-0.129037,0.98372,0.001133,0.001698,-0.031619,-0.003377,-0.000979,0.000117,0.120142,0.217169,-0.968712,0.12043224401174006
-0.100751,0.074276,-0.129338,0.983669,-0.013851,0.011622,-0.024325,-0.001419,0.001037,-0.002209,0.120064,0.217424,-0.968665,0.1203544810541216
-0.100927,0.074416,-0.129586,0.983607,-0.017213,0.004797,-0.023903,-0.00324,-0.003008,0.000862,0.120234,0.217831,-0.968552,0.12052633899266837
-0.101108,0.074448,-0.129827,0.983554,-0.017696,0.008638,-0.025457,-0.000642,-0.003453,0.002124,0.120194,0.218221,-0.968469,0.12048545769128498
-0.101247,0.074403,-0.130106,0.983507,-0.014394,0.000836,-0.025957,-3.3e-05,-0.000179,0.00011,0.120005,0.218515,-0.968427,0.12029598477145725
-0.101454,0.074406,-0.130384,0.983448,-0.026571,0.005931,-0.024165,-0.000749,0.005777,-0.001728,0.119893,0.218952,-0.968342,0.12018201070423783
-0.101765,0.07446,-0.130601,0.983383,-0.033958,0.000117,-0.019483,-0.000459,0.008043,0.000132,0.119865,0.219597,-0.968199,0.1201530697242498
-0.102055,0.074477,-0.130779,0.983328,-0.032084,-0.00646,-0.021278,0.000537,0.008517,0.001021,0.119778,0.220188,-0.968076,0.1200656019582959
-0.102359,0.074454,-0.130972,0.983273,-0.02569,-0.00468,-0.019154,0.00131,0.010388,0.00041,0.119605,0.220795,-0.967959,0.11989190605533027
-0.102566,0.074335,-0.131132,0.983239,-0.004966,-0.012832,-0.01417,-4.6e-05,0.010229,0.002198,0.119279,0.221189,-0.967909,0.11956343732997333
-0.102585,0.07422,-0.131247,0.98323,0.013645,-0.009292,-0.004699,-0.001144,0.007766,0.003578,0.119022,0.221211,-0.967936,0.11930554162958366
-0.102363,0.074065,-0.1313,0.983258,0.044973,-0.017979,-0.000552,-0.001036,0.005515,0.004436,0.11877,0.220749,-0.968072,0.11905050208723447
-0.101878,0.073804,-0.131308,0.983327,0.073496,-0.021811,0.009395,-0.002802,0.006027,0.004164,0.118392,0.219741,-0.968348,0.1186704760026782
-0.101136,0.073478,-0.131236,0.983438,0.091537,-0.029063,0.014059,-0.002139,0.006515,0.00085,0.117978,0.218207,-0.968745,0.11825215180948398
-0.100254,0.073176,-0.131065,0.983573,0.097204,-0.020921,0.022834,-0.001376,0.003755,1.9e-05,0.117668,0.216395,-0.969189,0.11794153640908318
-0.099371,0.072873,-0.130893,0.983708,0.102871,-0.012779,0.031609,-0.000611,0.000997,-0.000815,0.117356,0.214582,-0.96963,0.11762864336811782
-0.098392,0.072681,-0.130626,0.983856,0.108076,-0.009994,0.031108,-0.001913,-5.5e-05,-0.00099,0.11731,0.212595,-0.970073,0.1175809131991619
-0.097414,0.072524,-0.130414,0.983993,0.104527,-0.002999,0.030189,0.000261,-0.00081,-0.003362,0.117319,0.210626,-0.970501,0.11758871586158236
-0.096434,0.072487,-0.130206,0.98412,0.096805,0.015437,0.026707,0.002531,-0.000137,-0.003101,0.11756,0.208682,-0.970892,0.11783172162617826
-0.095517,0.07258,-0.130035,0.984225,0.088522,0.021345,0.025117,0.001821,-0.002029,-0.002427,0.118029,0.206896,-0.971217,0.11830476769733711
-0.094696,0.072759,-0.129995,0.984297,0.076833,0.036812,0.014257,0.002921,-0.002425,-0.003611,0.118612,0.205334,-0.971478,0.11889282154329184
-0.093926,0.072986,-0.129974,0.984357,0.068318,0.032591,0.006131,0.000369,-0.003738,-0.00326,0.119273,0.203886,-0.971702,0.11955730500232165
-0.093272,0.073272,-0.130004,0.984394,0.063247,0.025551,-0.002699,-0.001468,-0.006767,0.001479,0.120005,0.202684,-0.971863,0.12029549108568352
-0.092645,0.073343,-0.130164,0.984426,0.053279,0.017227,-0.009444,-0.000251,-0.00284,-0.004071,0.120284,0.201498,-0.972075,0.12057537496523754
-0.092148,0.073472,-0.130239,0.984453,0.04148,0.024011,-0.000441,0.005116,-0.001699,-0.008915,0.120657,0.200569,-0.972221,0.12095162543183174
-0.091748,0.073726,-0.130292,0.984465,0.023476,0.037289,0.008738,0.003522,0.000291,-0.007867,0.121253,0.199857,-0.972294,0.12155237360702659
-0.091552,0.074026,-0.130176,0.984476,0.019499,0.01891,0.008343,-0.001956,-0.001908,0.001571,0.121919,0.199534,-0.972277,0.12222196343922946
-0.09137,0.074122,-0.130083,0.984498,0.015049,0.004709,0.006614,-0.001367,0.000275,0.002417,0.122174,0.199192,-0.972315,0.122480556215636
-0.09129,0.074164,-0.129976,0.984516,0.015756,0.003859,0.00387,-0.001692,-0.001033,0.001769,0.122301,0.199032,-0.972332,0.12260722318134137
-0.091209,0.074207,-0.129868,0.984535,0.016462,0.00301,0.001126,-0.002017,-0.002341,0.001122,0.122428,0.198872,-0.972348,0.1227364397104119
-0.091129,0.07425,-0.129761,0.984553,0.017168,0.002161,-0.001618,-0.002343,-0.003648,0.000475,0.122556,0.198711,-0.972365,0.12286503157263706
-0.090962,0.074265,-0.129774,0.984566,0.025397,0.006467,-0.009068,-0.001776,-0.002332,-0.003364,0.122629,0.198391,-0.972421,0.12293802479458171
-0.090718,0.074365,-0.129912,0.984562,0.029393,0.018204,-0.018204,-0.002593,0.000525,-0.003778,0.122864,0.197957,-0.97248,0.1231744222251757
-0.090414,0.074516,-0.130161,0.984546,0.029134,0.025504,-0.025271,-0.003366,0.004273,-0.003448,0.123193,0.197433,-0.972545,0.12350585356598073
-0.090105,0.074701,-0.130445,0.984523,0.029088,0.023184,-0.028458,-0.002706,0.006515,-0.002436,0.123581,0.196909,-0.972602,0.12389896310426878
-0.089797,0.074904,-0.130805,0.984488,0.027858,0.033525,-0.0315,-0.000263,0.00655,-0.004041,0.123993,0.196403,-0.972652,0.12431231563266777
-0.089518,0.075229,-0.131193,0.984437,0.024941,0.047534,-0.033089,-0.001786,0.005995,-0.00238,0.124627,0.195989,-0.972654,0.12495305265131294
-0.089262,0.075592,-0.131604,0.984377,0.027215,0.042087,-0.036245,-0.003456,0.004912,0.002252,0.125328,0.195632,-0.972636,0.12565800751795728
-0.089012,0.075871,-0.132015,0.984323,0.029094,0.036185,-0.036094,-0.002453,0.003774,0.00199,0.125862,0.195265,-0.972641,0.12619598988156364
-0.08873,0.076166,-0.132409,0.984273,0.031159,0.038842,-0.031838,-0.000871,0.002482,0.00028,0.126439,0.194839,-0.972652,0.12677831316734453
-0.088399,0.076463,-0.132778,0.98423,0.03519,0.039139,-0.030668,-0.00031,0.001918,0.000835,0.127039,0.194315,-0.972678,0.12738369356134155
-0.088033,0.076726,-0.133144,0.984193,0.04235,0.03755,-0.026349,0.001339,0.00193,-0.000128,0.127584,0.193714,-0.972727,0.1279329435560115
-0.087564,0.076978,-0.133475,0.98417,0.052956,0.03515,-0.025215,0.002204,0.002289,-0.00025,0.128144,0.192904,-0.972814,0.12849698738375848
-0.08699,0.077208,-0.133733,0.984168,0.055168,0.034276,-0.017908,0.002185,0.00349,0.001511,0.128705,0.191876,-0.972943,0.12906242138174898
-0.086416,0.077438,-0.133992,0.984166,0.05738,0.033402,-0.010602,0.002167,0.004691,0.003271,0.129265,0.190847,-0.973071,0.12962831810681225
-0.085835,0.077666,-0.134151,0.984177,0.055797,0.027865,-0.00144,0.00252,0.005154,0.004909,0.129845,0.189792,-0.973201,0.13021212986695488
-0.085273,0.077854,-0.13421,0.984203,0.053696,0.022614,0.005821,0.003282,0.002935,0.003757,0.130359,0.18875,-0.973334,0.13073136551930056
-0.084745,0.07803,-0.134199,0.984236,0.052065,0.02102,0.008483,0.003535,0.001146,0.002493,0.130854,0.187761,-0.973459,0.131230823349756
-0.084223,0.078181,-0.134194,0.984269,0.05435,0.014709,0.006184,0.002829,0.001307,0.002424,0.131299,0.186778,-0.973588,0.1316780268946354
-0.083731,0.078253,-0.134198,0.984305,0.052698,0.006546,0.004904,0.001956,0.001185,0.001957,0.131576,0.185837,-0.973731,0.13195921232001614
-0.083276,0.078238,-0.134205,0.984344,0.045465,-0.000532,0.004179,0.001277,0.001215,0.000237,0.131674,0.184943,-0.973888,0.1320575960339864
-0.082894,0.078194,-0.134208,0.984379,0.03454,-0.003732,0.003403,0.000425,0.00178,0.000389,0.131695,0.184187,-0.974028,0.1320786660828629
-0.082646,0.078149,-0.134204,0.984404,0.019435,-0.002744,0.002119,0.001827,0.001829,-0.001067,0.131677,0.18369,-0.974125,0.13206105438644036
-0.082538,0.078131,-0.134191,0.984417,0.005787,-0.001655,0.001948,0.000736,0.001682,-0.001302,0.131675,0.183473,-0.974166,0.13205876133427524
-0.08255,0.078129,-0.13416,0.98442,-0.003009,-0.001143,0.002251,0.001654,-0.001145,-0.002514,0.131675,0.183491,-0.974163,0.13205717615412937
-0.082625,0.078147,-0.134131,0.984416,-0.005975,0.002487,0.001688,0.001947,-0.004351,-0.00266,0.131692,0.183639,-0.974132,0.13207682949291105
-0.082687,0.078212,-0.134126,0.984406,-0.001956,0.002414,-0.002044,0.001899,-0.006588,0.000202,0.131804,0.183777,-0.974091,0.13218840655626016
-0.082651,0.078206,-0.134163,0.984405,0.000518,-0.001474,-0.000696,0.001384,-0.006012,0.001276,0.131795,0.183709,-0.974105,0.13217990399723167
-0.082615,0.078199,-0.1342,0.984403,0.002993,-0.005362,0.000652,0.00087,-0.005435,0.002351,0.131786,0.183641,-0.974119,0.13216926294221712
-0.082578,0.078193,-0.134237,0.984402,0.005467,-0.009249,0.002,0.000355,-0.004858,0.003425,0.131776,0.183573,-0.974133,0.13216104205295462
-0.082509,0.078074,-0.134235,0.984417,0.005809,-0.020007,0.002957,0.00051,-0.003569,0.003579,0.131564,0.183407,-0.974193,0.13194607978927092
-0.082442,0.077867,-0.134182,0.984447,0.002081,-0.02459,0.007945,0.00316,-0.001512,0.001029,0.131188,0.183216,-0.97428,0.13156664079187416
-0.082404,0.077652,-0.134062,0.984483,-0.000334,-0.021175,0.012144,0.00539,-0.001241,-0.004053,0.130799,0.183071,-0.974359,0.13117552415039208
-0.082399,0.077512,-0.133912,0.984515,-0.003834,-0.013391,0.014201,0.00549,-2.7e-05,-0.005182,0.130555,0.183006,-0.974405,0.13092877410389672
-0.082481,0.077426,-0.133732,0.98454,-0.012497,-0.012767,0.017949,0.002445,0.000806,-0.003244,0.130397,0.18312,-0.974404,0.13076968039477865
-0.082611,0.077312,-0.133546,0.984563,-0.013795,-0.020334,0.01387,0.000808,-0.000279,-0.000805,0.130172,0.183322,-0.974396,0.13054278871195305
-0.082764,0.077145,-0.133408,0.984582,-0.012872,-0.023637,0.009945,0.00141,-8.9e-05,0.000149,0.129829,0.183559,-0.974398,0.1301959103375332
-0.082918,0.076975,-0.133284,0.984599,-0.012944,-0.023474,0.007936,8.6e-05,-0.001397,0.000792,0.129475,0.183801,-0.974399,0.12984024160159524
-0.083062,0.076798,-0.133177,0.984615,-0.00976,-0.020599,0.006603,-0.001194,-0.002179,0.001374,0.129109,0.184023,-0.974406,0.12947043661274535
-0.083163,0.076574,-0.133111,0.984633,-0.003091,-0.023297,0.000268,-0.001937,-0.001722,0.000838,0.128654,0.184156,-0.974441,0.12901234097438252
-0.083208,0.076346,-0.133098,0.984648,-0.00355,-0.017931,-0.001338,-0.000367,0.000576,-0.003326,0.128198,0.184184,-0.974496,0.1285520101344823
-0.083294,0.076182,-0.133065,0.984658,-0.00606,-0.019332,0.003732,-0.003641,0.001814,-0.001038,0.127859,0.184307,-0.974517,0.12821036216710271
-0.083415,0.076027,-0.132959,0.984674,-0.011978,-0.01997,0.014348,-0.005894,0.003806,-0.002772,0.127541,0.184491,-0.974524,0.12789041380101093
-0.08357,0.075862,-0.132704,0.984708,-0.020022,-0.013838,0.03015,-0.002423,0.005179,-0.006281,0.127225,0.184719,-0.974522,0.12756941845523923
-0.083778,0.075844,-0.132296,0.984747,-0.027549,-0.001142,0.046182,-0.002319,0.002413,-0.005722,0.127208,0.185069,-0.974458,0.12755290864267962
-0.084062,0.075962,-0.131805,0.984779,-0.032333,0.005187,0.048893,-0.00412,-0.002172,-0.001072,0.127452,0.18559,-0.974327,0.12779958307716052
-0.084359,0.076014,-0.131378,0.984807,-0.028314,-0.003335,0.030603,-0.004849,-0.007073,0.001614,0.127553,0.186128,-0.974211,0.12790083367133295
-0.08463,0.076005,-0.13116,0.984814,-0.023751,-0.001887,0.010227,-0.002438,-0.0079,-0.000563,0.127502,0.186627,-0.974122,0.12784944342358853
-0.084855,0.076024,-0.131137,0.984796,-0.017351,0.00207,-0.004728,-0.002765,-0.005837,-0.001534,0.127481,0.187069,-0.97404,0.12782884271360173
-0.085014,0.076065,-0.131228,0.984767,-0.015413,0.00895,-0.009006,-0.00297,-0.002505,-0.003621,0.1275,0.187401,-0.973974,0.1278481677985331
-0.085111,0.076136,-0.131332,0.984739,-0.014501,0.013681,-0.008022,-0.002819,0.002494,-0.005852,0.127592,0.187623,-0.973919,0.12794134075664787
-0.085201,0.076342,-0.131391,0.984708,-0.021068,0.02765,-0.003165,-0.000531,0.004839,-0.006539,0.12796,0.187858,-0.973825,0.12831166206003927
-0.08534,0.076679,-0.131417,0.984666,-0.026066,0.034719,-0.001275,-0.001487,0.006186,-0.004518,0.128577,0.188216,-0.973675,0.12893308307118206
-0.0856,0.077038,-0.131388,0.984619,-0.036117,0.035787,0.007632,-0.00092,0.007256,-0.00194,0.129212,0.18881,-0.973476,0.1295748127543338
-0.085966,0.077423,-0.131289,0.98457,-0.043822,0.036522,0.010452,0.002256,0.0036,0.000655,0.129883,0.189608,-0.973231,0.130251933208096
-0.086353,0.077803,-0.131234,0.984514,-0.041955,0.030313,0.000688,0.004402,0.000509,0.001636,0.130532,0.190452,-0.97298,0.13090493278066836
-0.086733,0.078096,-0.131314,0.984447,-0.036509,0.025965,-0.013672,0.006117,-0.00035,0.002168,0.130985,0.191278,-0.972757,0.13136169964941707
-0.087095,0.07837,-0.13152,0.984365,-0.029823,0.020997,-0.023995,0.00577,0.002021,0.004394,0.131381,0.192081,-0.972545,0.13176081852045138
-0.087396,0.078567,-0.131797,0.984286,-0.026097,0.014523,-0.027597,0.005028,0.004489,0.004862,0.131628,0.192754,-0.972378,0.13201082344790907
-0.087638,0.078716,-0.132066,0.984216,-0.02192,0.008357,-0.023314,0.004158,0.006586,0.003409,0.1318,0.193302,-0.972247,0.13218368746354833
-0.087835,0.078817,-0.132245,0.984167,-0.018542,0.002665,-0.015626,0.003262,0.007702,0.002666,0.131907,0.193734,-0.972146,0.1322922438696583
-0.088,0.078866,-0.132343,0.984135,-0.011021,-0.002714,-0.005707,0.004619,0.006018,0.001171,0.131937,0.194082,-0.972072,0.1323230249853587
-0.088121,0.078879,-0.132362,0.984121,-0.006018,-0.003272,-0.000313,0.004812,0.004195,0.000872,0.131925,0.194324,-0.972026,0.13231092248991555
-0.088188,0.078889,-0.132359,0.984114,-0.000805,-0.002901,-0.00055,0.005373,0.00201,0.002036,0.131927,0.194457,-0.971999,0.13231230516911152
-0.088242,0.078828,-0.132387,0.98411,0.005098,-0.01196,-0.005833,0.004109,0.001536,0.0023,0.131787,0.194551,-0.971999,0.13217114380467349
-0.088257,0.078748,-0.132441,0.984108,0.001899,-0.00763,-0.004871,0.004426,0.002241,-0.000975,0.131615,0.194568,-0.972019,0.1319983628350498
-0.088272,0.078657,-0.132474,0.98411,0.004656,-0.016774,-0.003245,0.001499,0.000348,0.001076,0.131426,0.194579,-0.972042,0.13180811803919323
-0.088261,0.078466,-0.132487,0.984124,0.006695,-0.025973,-0.003693,0.000677,0.000958,0.001993,0.131053,0.194511,-0.972106,0.13143174934134433
-0.088228,0.0782,-0.132447,0.984154,0.0061,-0.028776,0.007477,0.001497,0.000431,0.00068,0.13055,0.194374,-0.972201,0.13092433025456926
-0.088173,0.077971,-0.132343,0.984191,0.008331,-0.020316,0.010007,0.003792,-0.000848,-0.00306,0.130139,0.194196,-0.972292,0.13050872106293215
-0.088108,0.077827,-0.132212,0.984225,0.004603,-0.012552,0.012546,0.002632,0.000934,-0.004393,0.129901,0.194015,-0.97236,0.13026881874658017
-0.088126,0.077743,-0.132043,0.984253,-0.007339,-0.013813,0.017013,0.000141,0.000753,-0.002114,0.129765,0.194007,-0.97238,0.1301316888310902
-0.088251,0.077644,-0.131861,0.984274,-0.014171,-0.020324,0.009682,-0.000721,-0.001435,0.000202,0.129572,0.194204,-0.972366,0.1299375412898878
-0.088439,0.077452,-0.131746,0.984288,-0.022791,-0.02297,0.005562,0.000766,-0.00059,0.000644,0.129167,0.194508,-0.972359,0.12952907740650785
-0.088708,0.077289,-0.131648,0.98429,-0.027139,-0.022335,0.003566,0.000307,-0.001472,0.001513,0.128793,0.194979,-0.972315,0.1291518653058081
-0.089009,0.077112,-0.131579,0.984286,-0.02793,-0.023243,0.000569,-0.000512,-0.0041,0.001131,0.128377,0.195512,-0.972263,0.12873235834619842
-0.089297,0.076886,-0.131545,0.984282,-0.023346,-0.024469,-0.003875,-0.000448,-0.004176,0.000581,0.127861,0.196015,-0.972229,0.1282128472462722
-0.089554,0.076663,-0.131551,0.984275,-0.023254,-0.02355,-0.005414,-0.000176,-0.001426,-0.00251,0.127354,0.196462,-0.972206,0.12769990195091246
-0.089841,0.076482,-0.131518,0.984267,-0.026682,-0.022,0.002757,-0.0021,-0.00077,0.00017,0.126927,0.196973,-0.972158,0.1272692954764584
-0.090124,0.076277,-0.131414,0.984271,-0.030215,-0.029663,0.008807,-0.004499,-0.00078,-0.000453,0.126468,0.19746,-0.972119,0.12680693690819006
-0.090425,0.076043,-0.131276,0.98428,-0.030631,-0.023541,0.009579,-0.000772,9.1e-05,-0.006346,0.125954,0.197972,-0.972082,0.12628937421088113
-0.090754,0.075915,-0.131125,0.98428,-0.039207,-0.012318,0.013729,0.000319,0.000237,-0.006226,0.125642,0.198564,-0.972001,0.12597593662415368
-0.091196,0.075929,-0.130931,0.984264,-0.046633,-0.001253,0.014665,-0.002025,-0.000822,-0.0022,0.125587,0.199406,-0.971836,0.1259200939559257
-0.091626,0.075934,-0.130809,0.98424,-0.044039,-0.003311,0.002051,-0.002322,-0.002761,-0.00066,0.125502,0.200229,-0.971678,0.12583537755936577
-0.092034,0.075956,-0.130785,0.984203,-0.042012,0.005402,-0.00377,-0.001209,-0.003188,-0.002994,0.125439,0.201028,-0.971521,0.12577022598731638
-0.092396,0.076104,-0.130821,0.984153,-0.037633,0.014631,-0.009206,-0.000414,-0.002237,-0.003617,0.12562,0.201776,-0.971342,0.1259540529293372
-0.092729,0.076286,-0.130926,0.984094,-0.033244,0.015308,-0.011805,-0.001089,0.000166,-0.00096,0.125863,0.202483,-0.971164,0.12619862418437697
-0.09299,0.076461,-0.131043,0.98404,-0.031219,0.016386,-0.012151,0.000765,0.002979,-0.001962,0.12611,0.203052,-0.971013,0.12644667274106997
-0.09326,0.076651,-0.131154,0.983985,-0.030535,0.01418,-0.012057,0.000971,0.0036,-0.001073,0.126383,0.20364,-0.970854,0.1267229196887217
-0.093531,0.07684,-0.131264,0.98393,-0.02985,0.011975,-0.011963,0.001178,0.004222,-0.000183,0.126656,0.204228,-0.970695,0.12699695344931197
-0.093801,0.07703,-0.131375,0.983874,-0.029165,0.009769,-0.011869,0.001384,0.004843,0.000706,0.126929,0.204816,-0.970536,0.12727273890501054
-0.094091,0.077175,-0.131479,0.983821,-0.028826,0.005471,-0.011655,0.002531,0.005589,0.002828,0.127111,0.205432,-0.970382,0.12745559449139843
-0.094378,0.077263,-0.131591,0.983772,-0.024723,0.00231,-0.009284,0.002213,0.006179,0.001993,0.12718,0.206028,-0.970246,0.12752512993775553
-0.094637,0.077306,-0.131641,0.983737,-0.017147,-0.000988,-0.004065,0.001705,0.005718,0.002419,0.127181,0.206549,-0.970135,0.1275267078853463
-0.094807,0.077276,-0.131679,0.983718,-0.007364,-0.00458,-0.002336,0.001051,0.00441,0.002991,0.127066,0.206878,-0.97008,0.12741185205533692
-0.094872,0.077216,-0.131684,0.983716,0.001562,-0.009376,-0.000706,0.00096,0.004212,0.002842,0.126931,0.206991,-0.970074,0.12727431639026068
-0.094863,0.077116,-0.131664,0.983727,0.009814,-0.0129,-0.00087,0.001415,0.004806,0.001205,0.126741,0.206946,-0.970108,0.12708389667431128
-0.094788,0.077012,-0.131648,0.983745,0.013151,-0.010134,0.001251,0.002389,0.005638,0.000604,0.126563,0.206771,-0.970169,0.12690338305499796
-0.094698,0.076911,-0.131621,0.983765,0.015751,-0.008521,0.003117,0.002626,0.003099,-0.000748,0.126397,0.206566,-0.970234,0.12673520271505204
-0.094565,0.076861,-0.131605,0.983784,0.019297,-0.004436,0.003299,0.002539,0.001668,-0.000923,0.126339,0.206294,-0.9703,0.1266773201834595
-0.09438,0.076812,-0.131606,0.983805,0.021962,-0.003951,0.00118,0.00186,0.002123,0.001289,0.126294,0.205921,-0.970385,0.1266322797716254
-0.094203,0.076756,-0.131623,0.983824,0.019429,-0.007608,-7.7e-05,0.002891,0.004842,-0.000554,0.12623,0.205564,-0.970469,0.12656788056884435
-0.09408,0.076695,-0.131566,0.983848,0.011805,-0.0129,0.009167,0.001295,0.004108,0.003344,0.126157,0.205303,-0.970533,0.1264940495464546
-0.093979,0.076381,-0.131426,0.983901,0.013185,-0.02832,0.013864,0.001948,0.002484,0.002033,0.125599,0.205009,-0.970668,0.1259327147849025
-0.093877,0.076066,-0.131287,0.983954,0.014566,-0.043739,0.018561,0.002601,0.000861,0.00072,0.125041,0.204715,-0.970802,0.1253693877449805
-0.093773,0.075684,-0.131047,0.984025,0.017719,-0.040805,0.02372,0.005602,0.000983,-0.003539,0.124373,0.204387,-0.970957,0.12469545174302393
-0.093661,0.075388,-0.130789,0.984093,0.013909,-0.026784,0.02362,0.004394,0.001425,-0.004476,0.123879,0.204063,-0.971088,0.12419699048836301
-0.093619,0.075191,-0.130533,0.984146,0.001398,-0.020741,0.02353,-0.000488,0.002213,-0.003105,0.123557,0.203898,-0.971164,0.12387366332625185
-0.093659,0.075028,-0.130318,0.984183,-0.004872,-0.026419,0.013868,-0.002977,0.00098,0.000757,0.123271,0.203911,-0.971197,0.12358601552821512
-0.093781,0.074782,-0.130207,0.984205,-0.011473,-0.03085,0.007719,-0.001125,0.002085,-0.000581,0.122779,0.204073,-0.971226,0.12309034431087612
-0.093983,0.074599,-0.130115,0.984212,-0.017682,-0.020356,0.006509,-0.000687,0.001362,-0.001535,0.122384,0.20441,-0.971205,0.12269286122021844
-0.094218,0.074441,-0.130031,0.984212,-0.022282,-0.016215,0.003228,-0.002374,0.001686,-0.000593,0.12203,0.20482,-0.971163,0.12233383375374998
-0.09447,0.074315,-0.129985,0.984204,-0.020295,-0.014945,1.7e-05,-0.002323,0.00286,0.001096,0.121723,0.205274,-0.971106,0.12202548023579521
-0.094685,0.074167,-0.129956,0.984198,-0.018264,-0.013971,-0.000305,-0.00193,0.00322,-0.000635,0.121381,0.205654,-0.971068,0.12168030458936542
-0.094875,0.074071,-0.129925,0.984191,-0.015744,-0.008093,0.000379,-0.001419,0.002818,-0.000846,0.121146,0.205997,-0.971025,0.1214450645600504
-0.095019,0.07401,-0.129908,0.984184,-0.012295,-0.006504,-0.000592,-0.002081,0.001648,-0.00143,0.120991,0.206262,-0.970988,0.12128861855976643
-0.095118,0.073882,-0.129919,0.984182,-0.001442,-0.009007,-0.004372,-0.000142,0.001735,-0.002606,0.120711,0.206425,-0.970988,0.12100648971334658
-0.095117,0.073817,-0.12996,0.984182,0.004612,-0.001032,-0.005267,0.00026,0.001031,-0.002271,0.120575,0.206412,-0.971008,0.12087000942872192
-0.095075,0.073813,-0.130015,0.984179,0.005445,0.007941,0.000514,0.000331,0.00208,-0.002634,0.120567,0.206335,-0.971025,0.12086209373647458
-0.094974,0.073844,-0.13002,0.984186,0.011322,0.001018,0.000881,-0.001722,0.000582,0.002012,0.120656,0.206146,-0.971054,0.12095010242528971
-0.094839,0.073797,-0.130051,0.984198,0.019278,-0.004505,-0.000488,-0.000816,0.000274,0.001624,0.120594,0.205876,-0.971119,0.1208881329618405
-0.09463,0.073731,-0.130072,0.984221,0.025854,-0.00349,0.000157,0.000153,-0.000486,0.000335,0.120518,0.205454,-0.971218,0.12081143793832644
-0.094359,0.073665,-0.130081,0.98425,0.029202,-0.004196,0.00142,-0.000488,-1.1e-05,4e-05,0.120461,0.204911,-0.97134,0.12075417672865145
-0.094101,0.073547,-0.130069,0.984286,0.029376,-0.006721,0.004385,-0.000813,-0.000235,-0.000488,0.120304,0.204376,-0.971472,0.12059541475644957
-0.093844,0.073462,-0.130015,0.984324,0.024206,-0.004226,0.006275,-0.000403,-0.001381,-0.00225,0.120218,0.203848,-0.971593,0.12051004024519715
-0.093641,0.073436,-0.129954,0.984353,0.015799,0.000644,0.007547,-0.000171,-0.00142,-0.002539,0.120235,0.203437,-0.971677,0.12052745126976908
-0.093534,0.073424,-0.129896,0.984371,0.00555,0.003124,0.005271,5.9e-05,-0.000602,-0.001828,0.120254,0.20322,-0.97172,0.12054525937228994
-0.093542,0.073483,-0.129848,0.984373,-0.00931,0.009475,0.004139,9.2e-05,0.00018,-0.000307,0.120378,0.203244,-0.9717,0.12066951339172823
-0.093657,0.073556,-0.129823,0.98436,-0.018292,0.005074,0.001011,-0.000218,0.000153,0.001534,0.120494,0.203484,-0.971636,0.12078699231030689
-0.093861,0.073595,-0.129802,0.98434,-0.022058,-0.001889,-0.001695,0.001026,-0.000311,0.000791,0.120519,0.203888,-0.971548,0.12081198510051665
-0.094085,0.073616,-0.129797,0.984318,-0.01925,-0.001629,0.000305,0.001515,-0.000493,0.000499,0.1205,0.20433,-0.971457,0.12079273755951586
-0.094256,0.07357,-0.129776,0.984308,-0.013107,-0.004986,0.002036,0.000985,0.000565,-0.000635,0.120367,0.20465,-0.971406,0.1206593058937732
-0.094358,0.073516,-0.129717,0.98431,-0.006889,-0.008465,0.00597,0.000301,0.002468,0.000909,0.120245,0.204827,-0.971384,0.12053706679252789
-0.094401,0.073429,-0.129633,0.984323,-0.002739,-0.010402,0.01122,0.000919,0.003362,0.000356,0.12008,0.20488,-0.971393,0.12037120792681122
-0.09441,0.073332,-0.129493,0.984348,0.003825,-0.013703,0.01672,0.000763,0.002949,0.000975,0.119918,0.204858,-0.971418,0.12020682947113792
-0.094343,0.073246,-0.129312,0.984385,0.012398,-0.009844,0.01609,0.000926,0.001375,0.000891,0.119806,0.204683,-0.971469,0.12009362995102184
-0.094181,0.07317,-0.129155,0.984426,0.02241,-0.007006,0.016807,0.000567,0.0018,0.001602,0.119734,0.204328,-0.971552,0.12002095012734815
-0.093949,0.073105,-0.128997,0.984474,0.030001,-0.002672,0.016633,0.001084,0.002645,-0.00064,0.119701,0.203842,-0.971658,0.11998938159098337
-0.093653,0.073097,-0.128855,0.984521,0.033183,-0.001087,0.014885,0.000262,0.00286,0.000501,0.119795,0.203245,-0.971772,0.12008414670862387
-0.09331,0.073055,-0.12872,0.984575,0.034994,-0.002474,0.014403,-0.002043,0.004505,0.000556,0.119834,0.202548,-0.971913,0.1201232064927507
-0.092978,0.072972,-0.12856,0.984633,0.035811,-0.008453,0.017971,9.1e-05,0.003681,-0.00105,0.119794,0.201861,-0.972061,0.12008316639702524
-0.092633,0.072885,-0.128369,0.984697,0.039113,-0.000914,0.021036,0.002924,0.002246,-0.004331,0.119756,0.201142,-0.972214,0.12004498688530775
-0.092243,0.072925,-0.128183,0.984755,0.038375,0.016174,0.023793,0.004831,0.001425,-0.007177,0.119978,0.200368,-0.972347,0.1202682740908567
-0.091871,0.073149,-0.127988,0.984798,0.030302,0.02798,0.027726,0.001461,0.001115,-0.003236,0.120557,0.199673,-0.972418,0.12085116391532791
-0.091571,0.073391,-0.127808,0.984832,0.027652,0.018741,0.015159,-0.002256,-0.001821,0.00325,0.121149,0.199124,-0.972457,0.12144692175523088
-0.091304,0.073485,-0.127762,0.984856,0.023142,0.004627,0.002549,-0.000909,-0.000213,0.002499,0.121413,0.19862,-0.972527,0.12171422003925632
-0.09116,0.073506,-0.127784,0.984865,0.004926,0.004814,-0.001522,0.000239,0.002911,-0.000432,0.121489,0.198346,-0.972574,0.12179025437099904
-0.091183,0.07358,-0.127801,0.984855,-0.00588,0.0062,-0.000225,-0.000685,0.000892,0.000167,0.121625,0.198412,-0.972543,0.12192657540098124
-0.091238,0.073644,-0.127805,0.984844,-0.006375,0.004624,-0.001717,-0.000661,-0.000445,0.000915,0.121735,0.198535,-0.972504,0.12203704954387297
-0.091309,0.073649,-0.127839,0.984833,-0.004287,0.001452,-0.00531,-0.001634,0.000756,-0.001235,0.121719,0.198678,-0.972477,0.12202079954408909
-0.091375,0.073695,-0.127874,0.984819,-0.008518,0.008339,9.4e-05,-0.001075,0.002269,-0.001509,0.121784,0.198823,-0.972439,0.1220865589264051
-0.091493,0.073784,-0.127882,0.9848,-0.015781,0.015554,-0.001645,-0.001515,0.00259,-0.002139,0.121925,0.199075,-0.97237,0.12222846826659081
-0.091628,0.073928,-0.127882,0.984777,-0.013615,0.010178,-0.00026,-0.000631,0.000522,-0.00122,0.12217,0.199375,-0.972278,0.12247601240552924
-0.091739,0.074074,-0.127965,0.984745,-0.006976,0.018219,-0.014377,0.002153,-0.00382,-0.002976,0.122409,0.199636,-0.972194,0.12271701694653604
-0.091807,0.074279,-0.128169,0.984696,-0.00475,0.029548,-0.017379,0.002129,-0.003226,-0.00478,0.12275,0.199844,-0.972108,0.12306121830998899
-0.091785,0.074545,-0.128386,0.98465,0.008365,0.025003,-0.022368,-0.001307,-0.00418,0.00074,0.123234,0.199893,-0.972037,0.12354771686934073
-0.091601,0.074722,-0.128664,0.984617,0.025128,0.017494,-0.020294,-0.000598,-0.000564,0.002868,0.123573,0.199612,-0.972052,0.12389028561420933
-0.091264,0.074857,-0.128872,0.984611,0.03363,0.017651,-0.012199,0.000605,0.001375,-0.000688,0.123887,0.199013,-0.972135,0.12420641682860774
-0.090855,0.074997,-0.128969,0.984626,0.037025,0.014817,-0.001036,0.000498,0.001333,-0.000248,0.124253,0.19826,-0.972242,0.12457499710187818
-0.090459,0.075085,-0.12901,0.98465,0.034955,0.012101,0.003491,0.000386,0.000879,-0.000524,0.124524,0.197514,-0.972359,0.12484874723591904
-0.090097,0.075163,-0.129003,0.984678,0.029528,0.012677,0.004336,0.002539,-0.000947,-0.001099,0.124777,0.196826,-0.972466,0.1251032110116623
-0.089798,0.075296,-0.129015,0.984694,0.024806,0.017543,-0.001389,0.002964,-0.002887,-0.001745,0.125117,0.196276,-0.972534,0.12544521359822308
-0.089567,0.075438,-0.129092,0.984694,0.019148,0.01782,-0.006677,0.003263,-0.002703,-0.001102,0.125443,0.195869,-0.972574,0.12577326283490553
-0.08941,0.075603,-0.129227,0.984678,0.010655,0.016339,-0.013085,0.001754,-0.001162,-0.000294,0.125782,0.19562,-0.97258,0.126114892619596
-0.089362,0.075728,-0.129388,0.984652,-0.000351,0.013777,-0.012,0.001287,-0.000167,0.000435,0.126007,0.195578,-0.972559,0.12634256693112694
-0.089389,0.07584,-0.129506,0.984625,-0.008254,0.006676,-0.008307,0.001857,0.000879,0.001675,0.126195,0.195673,-0.972516,0.1265324667539191
-0.089479,0.075909,-0.129556,0.984605,-0.011556,0.000545,-0.003275,0.001839,-8.3e-05,0.000795,0.126296,0.195872,-0.972462,0.12663386091424278
-0.089599,0.075916,-0.129555,0.984593,-0.012529,-0.004523,-0.000409,0.001167,-0.000672,-6e-05,0.126277,0.196107,-0.972418,0.12661475620302412
-0.089738,0.075875,-0.129547,0.984585,-0.014476,-0.006726,0.001286,0.002398,-0.000428,-0.00016,0.12616,0.196368,-0.97238,0.12649728562040866
-0.089906,0.075813,-0.129497,0.984581,-0.012938,-0.00919,0.001402,0.002622,-0.000745,0.000247,0.126002,0.196674,-0.972339,0.12633878855808425
-0.090014,0.075749,-0.129475,0.984579,-0.007273,-0.007033,0.001169,0.003295,-0.001054,0.000491,0.125853,0.196867,-0.972319,0.12618724205835885
-0.090058,0.075718,-0.129442,0.984582,-0.003255,-0.005057,-0.000483,0.003457,-0.001612,0.000132,0.125787,0.196941,-0.972313,0.12612067348503225
-0.090031,0.0757,-0.129468,0.984582,0.000261,-0.005524,-0.003697,0.003197,-0.00048,-0.000604,0.125753,0.196887,-0.972328,0.1260872715585334
-0.090004,0.075681,-0.129493,0.984583,0.003776,-0.005991,-0.00691,0.002937,0.000652,-0.001341,0.125719,0.196832,-0.972344,0.1260522217114524
-0.089973,0.075678,-0.129542,0.984579,0.001305,-0.00207,-0.002388,0.001661,0.002391,-1.4e-05,0.125711,0.196778,-0.972356,0.1260448616093105
-0.089978,0.075642,-0.129544,0.984581,-0.00179,-0.01142,-0.000632,-0.000627,0.001224,-0.000209,0.125639,0.196779,-0.972364,0.12597204180065613
-0.089964,0.075483,-0.129517,0.984599,0.000576,-0.02344,0.002777,-0.000741,0.001073,0.000274,0.125337,0.196709,-0.972418,0.12566774226432587
-0.089988,0.075296,-0.129439,0.984621,-0.002426,-0.015778,0.009215,0.001186,0.000849,-0.003389,0.12498,0.196701,-0.972465,0.1253078063009198
-0.090031,0.075211,-0.12932,0.984639,-0.004873,0.002669,0.010416,0.003189,0.000325,-0.005339,0.124826,0.196748,-0.972476,0.12515220543494662
-0.090126,0.075319,-0.129188,0.984639,-0.015161,0.009247,0.010284,0.001298,0.00052,-0.002265,0.125038,0.196944,-0.972409,0.12536578323193878
-0.090317,0.075452,-0.129083,0.984626,-0.020574,0.003469,0.005723,-0.000478,-0.000965,0.002385,0.125267,0.197335,-0.9723,0.12559717149306276
-0.090543,0.075406,-0.129086,0.984608,-0.022126,-0.013992,-0.011682,0.00023,-0.000939,0.00136,0.125115,0.197767,-0.972232,0.12544377569136955
-0.090803,0.075309,-0.129188,0.984578,-0.029174,-0.012901,-0.014283,0.00101,0.001788,-0.000896,0.124833,0.198264,-0.972167,0.1251603727765054
-0.091161,0.075234,-0.129267,0.98454,-0.034968,-0.012366,-0.011046,0.000642,0.002431,0.001514,0.124573,0.198954,-0.972059,0.1248980183138703
-0.091475,0.075086,-0.129303,0.984518,-0.025549,-0.021798,-0.005871,-0.00199,0.000574,0.004835,0.124191,0.199536,-0.971989,0.12451253126126673
-0.091708,0.074848,-0.129303,0.984514,-0.016091,-0.029975,-0.001986,-0.001883,0.000598,0.001404,0.123662,0.199931,-0.971975,0.12397893342503033
-0.091875,0.074606,-0.129241,0.984525,-0.014341,-0.019606,0.008719,0.000275,0.003306,-0.002821,0.123154,0.20019,-0.971986,0.12346837253960169
-0.092056,0.074444,-0.129106,0.984538,-0.015568,-0.017502,0.012069,-0.000165,0.001668,-0.002405,0.122816,0.200488,-0.971968,0.1231267987951461
-0.092264,0.074319,-0.129011,0.984541,-0.013931,-0.019425,0.004248,-0.001649,-0.000381,-0.00146,0.122535,0.200851,-0.971928,0.12284278710285376
-0.092412,0.074195,-0.129012,0.984536,-0.011536,-0.005031,-0.004436,0.001312,-0.001226,-0.005306,0.122251,0.20111,-0.97191,0.122557361009279
-0.092567,0.074195,-0.129084,0.984512,-0.013904,0.006636,-0.008125,-0.000699,0.000958,-0.004801,0.122194,0.201421,-0.971853,0.1225000465803991
-0.092728,0.07435,-0.129156,0.984476,-0.013449,0.010052,-0.009126,-0.003564,-0.000538,-0.000151,0.122439,0.201782,-0.971747,0.12274682725706224
-0.092781,0.074373,-0.129283,0.984452,-0.002959,0.002808,-0.012169,-0.002393,0.000237,-0.000259,0.122444,0.201907,-0.971721,0.12275132014450403
-0.092778,0.074449,-0.129406,0.984431,9e-05,0.010409,-0.008038,-0.001575,0.001329,-0.001215,0.122567,0.201936,-0.971699,0.12287672688516897
-0.092764,0.074532,-0.1295,0.984413,0.001517,0.013716,-0.00762,-0.001127,0.000636,-0.000498,0.122715,0.20194,-0.97168,0.1230247605101553
-0.092755,0.074674,-0.129599,0.98439,0.00123,0.012072,-0.008413,-0.000362,0.000204,-0.00016,0.122974,0.201969,-0.971641,0.12328684939517963
-0.092767,0.07478,-0.129724,0.984365,-0.003395,0.014047,-0.010441,-0.000298,0.001117,-0.001083,0.123153,0.202034,-0.971605,0.12346686731515781
-0.092835,0.074913,-0.129854,0.984331,-0.008485,0.014897,-0.014513,0.00045,-0.000321,-0.000704,0.123368,0.202217,-0.971539,0.12368348663161662
-0.092951,0.075056,-0.130023,0.984287,-0.012918,0.014122,-0.018102,0.001391,-0.000518,-1.2e-05,0.123582,0.202499,-0.971453,0.12389850217293776
-0.093091,0.075217,-0.130219,0.984236,-0.018365,0.015219,-0.01802,0.001286,5.2e-05,-0.000363,0.123817,0.202837,-0.971353,0.12413670179351421
-0.093297,0.075371,-0.130392,0.984181,-0.022829,0.012491,-0.016345,0.001409,0.001176,0.000461,0.124027,0.203298,-0.97123,0.12434724759233771
-0.093514,0.075509,-0.130544,0.98413,-0.023871,0.009507,-0.013735,0.000599,0.001315,0.001081,0.124206,0.203774,-0.971107,0.12452755544967709
-0.093725,0.075627,-0.130677,0.984083,-0.01983,0.009109,-0.012269,0.001744,0.000892,0.000553,0.124352,0.204231,-0.970992,0.1246738146670212
-0.093899,0.075706,-0.130793,0.984045,-0.013972,0.006449,-0.010015,0.001696,0.001397,-0.000188,0.124433,0.204606,-0.970903,0.12475693152026662
-0.094036,0.075794,-0.130905,0.98401,-0.009909,0.00487,-0.007002,0.001274,0.002193,-0.000996,0.124545,0.204909,-0.970825,0.12486878663733841
-0.094143,0.075857,-0.13099,0.983984,-0.006591,0.00068,-0.008463,0.000551,0.00163,0.000635,0.12462,0.205143,-0.970766,0.12494540627815529
-0.094234,0.075878,-0.131093,0.98396,-0.00509,0.002242,-0.006082,0.001407,0.002104,0.000306,0.124615,0.205338,-0.970725,0.1249397953398918
-0.094271,0.075941,-0.131139,0.983945,-0.001775,0.003788,-0.003023,0.001302,0.001867,0.001621,0.124719,0.205432,-0.970692,0.12504393468010777
-0.094281,0.076003,-0.131154,0.983938,6.5e-05,0.002977,-0.000921,0.001972,0.001056,0.000713,0.124833,0.20547,-0.970669,0.12516033831090384
-0.094268,0.076016,-0.131173,0.983935,0.004128,-0.000463,-0.001528,0.001872,-0.000103,0.000433,0.124859,0.205451,-0.97067,0.12518548920109462
-0.094216,0.076004,-0.131222,0.983935,0.004486,0.003857,-0.003091,0.001919,0.002566,-0.002716,0.12484,0.205352,-0.970693,0.1251661321301984
-0.0942,0.076043,-0.131238,0.983931,0.004575,-0.001944,-0.000283,-0.000911,0.001777,0.001344,0.124917,0.205331,-0.970688,0.12524406547655192
-0.094177,0.075941,-0.131214,0.983944,0.005598,-0.017272,0.002375,-3.5e-05,0.00198,0.001836,0.124728,0.205259,-0.970727,0.12505439203598848
-0.094159,0.075787,-0.131151,0.983966,0.001443,-0.014285,0.009953,0.003006,0.000607,3.1e-05,0.124445,0.205177,-0.970781,0.12476903634880782
-0.094154,0.075726,-0.131023,0.983989,0.00289,-0.00202,0.010107,0.004345,-0.000963,-0.005297,0.124355,0.205136,-0.970801,0.12467717727937469
-0.094117,0.075812,-0.130907,0.984001,-0.000274,0.008984,0.011202,0.002681,0.000277,-0.004337,0.124556,0.205072,-0.970789,0.12488136121865305
-0.094184,0.075926,-0.130761,0.984005,-0.009128,0.006685,0.012562,0.000228,0.000783,-0.00091,0.124791,0.205211,-0.970729,0.12511812837380207
-0.094296,0.075958,-0.130657,0.984006,-0.012816,-0.004935,0.006433,-0.000954,5.5e-05,0.001066,0.124846,0.205424,-0.970677,0.1251720010210273
-0.094451,0.075925,-0.130603,0.984001,-0.017809,-0.009109,0.000108,0.000596,0.000239,-5.9e-05,0.124749,0.205711,-0.970629,0.12507523794318864
-0.094645,0.075892,-0.130563,0.98399,-0.022651,-0.004056,0.004359,0.000593,-0.000587,0.000575,0.124639,0.206077,-0.970565,0.1249646588391266
-0.094841,0.075845,-0.130514,0.983981,-0.013272,-0.009273,-0.001346,-0.000866,-0.003962,0.003176,0.124503,0.206441,-0.970506,0.12482784660533533
-0.094949,0.075732,-0.130562,0.983973,-0.005615,-0.013459,-0.011068,-0.000331,-0.001634,0.000432,0.124243,0.206631,-0.970499,0.12456490746118523
-0.095032,0.0756,-0.13064,0.983965,-0.012631,-0.008486,-0.00863,0.001747,0.00307,-0.003756,0.123946,0.206769,-0.970507,0.1242651134253467
-0.095225,0.075569,-0.130665,0.983945,-0.021095,-0.006986,-0.004926,-0.000383,0.000653,-0.0007,0.123826,0.207141,-0.970443,0.1241449710240642
-0.095438,0.075498,-0.130729,0.983922,-0.020633,-0.009595,-0.009272,-0.001811,-0.000807,-0.000911,0.123615,0.207547,-0.970383,0.12393226436100212
-0.095603,0.075419,-0.130809,0.983901,-0.018217,0.000374,-0.011698,0.002786,0.001808,-0.006869,0.123397,0.207859,-0.970344,0.12371352531246654
-0.095789,0.075503,-0.130908,0.983863,-0.020789,0.010554,-0.005221,0.000552,0.002683,-0.005095,0.12349,0.208254,-0.970248,0.12380616382629703
-0.095999,0.075693,-0.130929,0.983825,-0.023597,0.013076,-0.000674,-0.001379,0.001786,0.000797,0.123798,0.208714,-0.970109,0.12411765599922996
-0.096186,0.07577,-0.130955,0.983798,-0.016938,0.001862,-0.004714,-0.000756,0.001142,0.003663,0.123893,0.2091,-0.970014,0.12421182934888433
-0.096355,0.075801,-0.130969,0.983777,-0.016206,0.002251,-0.001141,0.001,0.001492,0.000639,0.123903,0.20944,-0.96994,0.12422276471042921
-0.096489,0.075862,-0.13094,0.983763,-0.011399,0.00293,0.000532,0.000856,-0.000307,-0.000205,0.123991,0.209712,-0.96987,0.12431184495856924
-0.096607,0.075896,-0.130927,0.98375,-0.008135,0.002478,-0.002733,0.000235,-8.4e-05,-5.6e-05,0.124028,0.209948,-0.969814,0.12434866167885342
-0.09667,0.075906,-0.130964,0.983739,-0.00411,0.002368,-0.00417,0.000382,0.000928,-1.4e-05,0.124023,0.210078,-0.969786,0.12434297243831254
-0.096745,0.075931,-0.131013,0.983723,-0.006608,0.001419,-0.003035,0.001363,0.003014,-0.001984,0.12404,0.210236,-0.96975,0.12436074119190334
-0.096829,0.075994,-0.131038,0.983706,-0.011125,0.003501,-0.002411,0.001438,0.002051,7.5e-05,0.124135,0.210418,-0.969698,0.12445599102154817
-0.096963,0.07603,-0.13108,0.983685,-0.015355,0.002944,-0.004691,0.001764,0.001691,-0.001358,0.124159,0.210694,-0.969635,0.1244805515219987
-0.097112,0.076058,-0.131127,0.983662,-0.01382,0.0019,-0.004851,0.001895,0.000511,0.000363,0.124163,0.210997,-0.969569,0.12448397533921243
-0.097274,0.0761,-0.131189,0.983634,-0.013575,0.000609,-0.005895,0.000435,0.000691,0.001597,0.124186,0.211331,-0.969493,0.12450798001024385
-0.09742,0.076114,-0.131227,0.983613,-0.010989,-0.001646,-0.006719,0.001025,0.000415,3.8e-05,0.124166,0.211624,-0.969432,0.12448644720722687
-0.097535,0.076105,-0.131268,0.983597,-0.008813,-0.003823,-0.005293,0.000961,0.001351,2.3e-05,0.124108,0.211851,-0.96939,0.12442767212037768
-0.097651,0.076097,-0.131308,0.983581,-0.006636,-0.006001,-0.003867,0.000897,0.002287,9e-06,0.124049,0.212079,-0.969347,0.12437079367384107
-0.097737,0.076046,-0.131314,0.983576,-0.00564,-0.006723,0.002783,0.00012,0.00225,-0.000615,0.123926,0.212235,-0.969329,0.12424497931275036
-0.097794,0.075999,-0.131284,0.983578,-0.002421,-0.003584,0.002739,0.001187,0.001278,-0.001052,0.123825,0.212332,-0.969321,0.12414293907827205
-0.097806,0.075962,-0.131233,0.983586,0.00065,-0.004595,0.004199,0.000985,0.000103,-0.000156,0.12376,0.212339,-0.969327,0.12407769323600593
-0.097799,0.075937,-0.131205,0.983592,0.005943,-0.000946,0.004033,0.000692,-0.000662,0.000582,0.123719,0.212316,-0.969338,0.12403642200783198
-0.097743,0.075889,-0.131201,0.983602,0.00813,-0.005696,-0.002892,0.001454,-0.001137,-0.000128,0.12364,0.212193,-0.969375,0.12395839276427219
-0.097676,0.075904,-0.131247,0.983602,0.00385,0.003392,-0.001745,0.000695,0.000689,-3.1e-05,0.12368,0.212072,-0.969396,0.12399679028192379
-0.097659,0.075863,-0.131258,0.983605,0.0038,-0.010968,-0.0036,-0.002018,0.001991,0.002702,0.123601,0.212032,-0.969415,0.12391830176099893
-0.097661,0.075696,-0.1313,0.983612,-0.00083,-0.021789,-0.000227,-0.00088,0.004984,0.002493,0.123265,0.212,-0.969465,0.12357951815511486
-0.09773,0.07556,-0.131203,0.983629,-0.008604,-0.014671,0.012765,0.000494,0.001556,-0.002959,0.123002,0.212087,-0.969479,0.12331335952564777
-0.097803,0.075508,-0.131057,0.983645,-0.005889,0.001988,0.00862,0.003014,0.001072,-0.007163,0.122911,0.212198,-0.969466,0.1232221894179018
-0.0979,0.075579,-0.130974,0.983641,-0.011763,0.010504,0.008475,-3.5e-05,0.002724,-0.006224,0.123041,0.212395,-0.969407,0.12335308223360056
-0.098112,0.075695,-0.130856,0.983626,-0.026263,0.002668,0.0101,-0.003375,0.00234,-0.001597,0.123234,0.212822,-0.969288,0.12354812187241229
-0.098376,0.075716,-0.130754,0.983612,-0.025177,-0.008504,0.002149,-0.002247,-0.000609,0.001039,0.123223,0.213327,-0.969179,0.12353821534729832
-0.098617,0.075725,-0.130744,0.983589,-0.018551,-0.0053,-0.001219,-0.001629,-0.002116,0.001833,0.123178,0.213798,-0.969081,0.1234910264288748
-0.098858,0.075735,-0.130733,0.983565,-0.011925,-0.002096,-0.004586,-0.001011,-0.003622,0.002626,0.123132,0.214269,-0.968983,0.12344587548299063
-0.098953,0.075672,-0.130815,0.983549,0.002254,-0.004407,-0.010764,-0.001225,-0.002756,0.0027,0.122964,0.214449,-0.968964,0.12327717520789579
-0.098932,0.075552,-0.130968,0.983541,0.006265,-0.012936,-0.012817,-0.001716,0.002042,0.000288,0.122703,0.214396,-0.969009,0.12301313614139675
-0.098913,0.075451,-0.131063,0.983537,-0.007721,-0.001098,-0.001327,6.9e-05,0.007558,-0.002885,0.122489,0.214348,-0.969047,0.12279842087925362
-0.099009,0.075425,-0.131019,0.983536,-0.013614,-0.008589,0.00579,-0.001286,0.006666,-0.002191,0.122422,0.214522,-0.969017,0.12273016107273017
-0.09915,0.07533,-0.130925,0.983541,-0.009498,-0.017767,0.007603,-0.000767,0.001153,-0.003245,0.122217,0.214762,-0.968989,0.12252418866683347
-0.099248,0.075294,-0.130868,0.983542,-0.005042,0.00355,0.005241,0.003761,-0.001038,-0.007608,0.122133,0.214936,-0.968961,0.1224385356075159
-0.099298,0.075401,-0.130856,0.98353,-0.003574,0.013954,0.00341,0.000776,-0.000769,-0.002274,0.122331,0.215058,-0.968909,0.12263799596204344
-0.099307,0.075566,-0.130857,0.983516,0.007087,0.009544,-0.004804,-0.002261,-0.002179,0.005145,0.122651,0.215116,-0.968856,0.12296031819148287
-0.099209,0.075559,-0.130922,0.983518,0.011593,0.002212,-0.002804,-0.00016,0.001638,0.003278,0.12265,0.214932,-0.968897,0.12295959655710305
-0.099052,0.075605,-0.130962,0.983525,0.011842,0.009825,0.001405,0.002133,0.001339,-0.000604,0.122775,0.214644,-0.968945,0.12308527386517695
-0.098878,0.075731,-0.130953,0.983534,0.016307,0.008944,-9.8e-05,-2.5e-05,-0.000665,0.000922,0.123072,0.214334,-0.968976,0.12338410618564584
-0.098679,0.075765,-0.131022,0.983542,0.019444,0.003507,-0.004199,-6e-06,-0.000148,0.000205,0.123178,0.213964,-0.969044,0.12349151759931541
