timestamp,quat_x,quat_y,quat_z,quat_w,rot_x,rot_y,rot_z,acc_x,acc_y,acc_z,grav_x,grav_y,grav_z,pitch_rad
1763249269.727327,-0.065277,0.386711,-0.0,0.919888,0.000158,0.004826,-0.004909,-0.537058,0.097779,-0.242506,0.711462,0.120095,-0.692387,-0.7915761213202502
1763249269.755336,-0.096858,0.16637,-0.095239,0.976662,-0.003684,-0.000883,-0.011196,-0.145339,0.008391,-0.0288,0.306526,0.220885,-0.925879,-0.3115411420081525
1763249269.810647,-0.102174,0.12339,-0.112706,0.980629,-0.003621,-0.003081,-0.004814,-0.060159,0.004026,-0.008928,0.218969,0.228203,-0.948671,-0.22075762382252243
1763249269.841154,-0.104625,0.102984,-0.120899,0.981749,0.001713,-0.003924,0.000968,-0.018187,0.001241,-0.00374,0.176911,0.230333,-0.956896,-0.17784698904132362
1763249269.898371,-0.105633,0.098036,-0.122908,0.981898,-0.001122,-0.001208,0.000128,-0.008959,0.001451,-0.001083,0.166557,0.231541,-0.958461,-0.16733686155862096
1763249269.927743,-0.106213,0.095363,-0.123985,0.981963,-0.003306,-0.005763,-0.000986,-0.003519,0.00102,0.000847,0.160948,0.232242,-0.959249,-0.16165116153651402
1763249269.978231,-0.106476,0.094358,-0.124376,0.981983,-0.004315,-0.005642,-0.00296,-0.002566,0.001167,0.000598,0.15883,0.232588,-0.959519,-0.1595054276800917
1763249270.008205,-0.106752,0.093666,-0.1246,0.981991,-0.005462,-0.009812,-0.001358,-0.000762,0.003035,0.000143,0.157356,0.233001,-0.959661,-0.15801275471269038
1763249270.047125,-0.106989,0.093253,-0.124593,0.982005,-0.006225,-0.012285,0.007087,0.000112,0.001922,-0.00079,0.15649,0.233364,-0.959715,-0.15713580010458306
1763249270.079422,-0.107324,0.092959,-0.124422,0.982018,-0.005407,-0.007584,0.006672,-0.000623,-0.000232,-0.002263,0.155867,0.233921,-0.95968,-0.15650517873924524
1763249270.140261,-0.107518,0.09285,-0.124357,0.982015,8.4e-05,-0.005332,0.003015,-0.000752,-0.001461,-0.001099,0.155618,0.234261,-0.959638,-0.15625302311788897
1763249270.199992,-0.107512,0.092625,-0.124426,0.982029,0.000519,-0.005091,0.000228,-0.00124,-0.000895,-0.001056,0.155166,0.23421,-0.959724,-0.155795410292692
1763249270.200265,-0.107506,0.0924,-0.124496,0.982041,0.000954,-0.004851,-0.002559,-0.001728,-0.000328,-0.001013,0.154713,0.234157,-0.95981,-0.15533688249611943
1763249270.253603,-0.107414,0.092271,-0.124505,0.982062,0.003442,-0.005592,0.001879,-0.002299,0.000372,-0.000706,0.154485,0.233951,-0.959897,-0.15510610125253804
1763249270.285082,-0.107322,0.092068,-0.124311,0.982116,0.001749,-0.005931,0.013538,-0.00092,0.001571,-0.000789,0.154161,0.233696,-0.960011,-0.15477820275704485
1763249270.316935,-0.107344,0.091916,-0.123928,0.982176,-0.00409,-0.007561,0.018607,-0.000886,-0.001508,-0.000212,0.15395,0.233643,-0.960057,-0.15456476703342165
1763249270.371374,-0.107493,0.09182,-0.123645,0.982205,-0.009482,-0.009046,0.013395,-0.000691,-0.001793,-0.000487,0.153791,0.233866,-0.960029,-0.15440372910881844
1763249270.405837,-0.107812,0.091599,-0.123257,0.982239,-0.013317,-0.01133,0.008619,-0.000296,0.001326,-0.001449,0.153366,0.234375,-0.959972,-0.15397375452513168
1763249270.437059,-0.107992,0.091474,-0.123002,0.982263,-0.010331,-0.011208,0.012708,-0.000768,0.001016,0.000398,0.153137,0.234656,-0.959941,-0.1537418549102914
1763249270.498321,-0.108109,0.091391,-0.122688,0.982297,8.2e-05,0.000376,0.010041,0.00038,-0.002798,-0.002383,0.153019,0.234815,-0.95992,-0.15362258682842178
1763249270.527664,-0.108189,0.091448,-0.122574,0.982297,-0.007917,0.006753,0.003017,0.000629,0.000985,-0.001427,0.153137,0.234966,-0.959865,-0.1537418798933734
1763249270.56203,-0.108331,0.09161,-0.122563,0.982268,-0.010781,0.003858,-0.001561,0.00227,0.001363,0.000843,0.153417,0.235277,-0.959744,-0.1540252429371266
1763249270.618786,-0.108539,0.091695,-0.122732,0.982216,-0.009787,0.003294,-0.009498,0.00036,0.001377,0.001331,0.153485,0.235726,-0.959623,-0.1540940496901577
1763249270.646515,-0.108745,0.091675,-0.122947,0.982168,-0.003619,-0.006955,-0.008566,-0.000568,0.003693,-0.00084,0.153341,0.236155,-0.95954,-0.15394840509346308
1763249270.676991,-0.10889,0.091621,-0.122988,0.982152,-0.002651,-0.005095,0.004555,0.000872,0.001979,-0.001966,0.153187,0.23643,-0.959497,-0.15379254547820284
1763249270.731501,-0.109004,0.091618,-0.122839,0.982158,-0.001771,-0.002521,0.005394,0.000358,0.000707,-0.000762,0.153188,0.236627,-0.959448,-0.15379359847861618
1763249270.81082,-0.109053,0.091584,-0.122868,0.982152,0.000157,-0.003062,-0.00103,0.000674,-0.00015,-0.001308,0.153101,0.236719,-0.959439,-0.15370558853744737
1763249270.811066,-0.109103,0.09155,-0.122897,0.982146,0.002085,-0.003604,-0.007454,0.000989,-0.001007,-0.001855,0.153015,0.236812,-0.95943,-0.15361852882570173
1763249270.840717,-0.109037,0.091461,-0.123045,0.982143,0.002238,-0.00092,-0.00272,-0.001248,0.001743,-0.000403,0.152822,0.236688,-0.959491,-0.15342328491255527
1763249270.893273,-0.108938,0.091422,-0.123023,0.982161,0.004291,-0.002817,0.004559,0.000533,0.001272,-0.001304,0.152779,0.236483,-0.959549,-0.15337968400906318
1763249270.924983,-0.10884,0.091398,-0.1229,0.982189,0.002017,0.001964,0.005693,-0.000521,0.000948,-0.000866,0.152787,0.236269,-0.9596,-0.1533878445830757
1763249270.952953,-0.108791,0.091384,-0.122931,0.982192,0.00202,-0.001872,-0.003194,0.000826,-0.000228,9.2e-05,0.152765,0.236175,-0.959627,-0.15336553012590615
1763249271.007726,-0.108766,0.091396,-0.123098,0.982173,0.002516,0.001833,-0.01043,0.001212,0.000282,-0.000487,0.152756,0.236155,-0.959633,-0.15335647584962983
1763249271.038246,-0.10866,0.091416,-0.123405,0.982144,0.003581,0.005815,-0.00959,-0.00016,0.002828,0.001107,0.152749,0.236001,-0.959673,-0.153349244211914
1763249271.099606,-0.108548,0.091416,-0.123576,0.982135,0.005475,0.002706,-0.003835,0.001008,0.002569,-0.00121,0.152738,0.235812,-0.959721,-0.1533381446822254
1763249271.127822,-0.108454,0.091446,-0.123665,0.982132,0.005486,-0.001558,0.000646,-0.000495,0.001026,-0.000859,0.1528,0.235649,-0.959751,-0.15340090585473581
1763249271.158318,-0.108345,0.091571,-0.123734,0.982123,0.008235,0.008226,-0.007052,0.001261,-0.003103,-0.002325,0.153055,0.235478,-0.959752,-0.15365899133165373
1763249271.213576,-0.108358,0.091736,-0.124014,0.982071,-0.005572,0.012111,-0.01114,0.000182,0.000463,0.000503,0.153307,0.235585,-0.959686,-0.15391392928725683
1763249271.29576,-0.108426,0.091823,-0.124414,0.982005,-0.002116,0.00741,-0.01382,-2.7e-05,0.00169,0.000846,0.153362,0.235797,-0.959625,-0.15396960905382853
1763249271.296005,-0.108493,0.091909,-0.124815,0.981939,0.001341,0.002709,-0.016501,-0.000237,0.002917,0.00119,0.153416,0.23601,-0.959564,-0.15402425648887008
1763249271.336937,-0.108432,0.091858,-0.125041,0.981921,0.00969,-0.001674,-0.00335,0.000557,0.004094,-0.001356,0.153279,0.235916,-0.959609,-0.15388561792094582
1763249271.397662,-0.108256,0.091879,-0.125068,0.981935,0.010106,0.000966,-0.004424,0.000121,0.001105,-0.001691,0.153359,0.235584,-0.959678,-0.1539665421989065
1763249271.397881,-0.10808,0.091899,-0.125096,0.981949,0.010522,0.003606,-0.005497,-0.000315,-0.001884,-0.002027,0.15344,0.235251,-0.959746,-0.15404862232563585
1763249271.434515,-0.107936,0.092049,-0.125365,0.981917,0.004434,0.01268,-0.021447,0.000345,-0.006401,-0.003043,0.153706,0.235048,-0.959753,-0.15431784171691507
1763249271.489232,-0.107882,0.092287,-0.125998,0.981819,0.00105,0.018274,-0.039908,-0.000502,-0.003664,-0.003385,0.154032,0.235097,-0.959689,-0.15464773076783123
1763249271.519546,-0.107806,0.092534,-0.126915,0.981686,0.004885,0.022721,-0.046027,-0.000459,-0.002824,-0.002779,0.154314,0.235152,-0.959631,-0.15493302639884876
1763249271.574471,-0.107643,0.092809,-0.12793,0.981546,0.006155,0.024075,-0.050264,0.000302,-0.002343,-0.000698,0.154651,0.235059,-0.959599,-0.15527420102865136
1763249271.61713,-0.107527,0.093172,-0.128935,0.981393,0.001423,0.029818,-0.045139,0.000919,0.001545,-0.001941,0.155149,0.235078,-0.959514,-0.15577827833583188
1763249271.646477,-0.107491,0.09356,-0.129756,0.981252,0.00076,0.018231,-0.032566,-0.000266,0.002247,0.000341,0.155717,0.235232,-0.959384,-0.15635330253046803
1763249271.698178,-0.107577,0.093949,-0.130284,0.981135,-0.003478,0.017401,-0.018155,8.2e-05,0.000819,0.000654,0.156322,0.235575,-0.959202,-0.15696571730732053
1763249271.728317,-0.107649,0.094176,-0.130613,0.981062,0.001093,0.011683,-0.012075,0.000407,0.001269,5.7e-05,0.156665,0.235823,-0.959085,-0.15731301016830762
1763249271.757914,-0.107632,0.094316,-0.130805,0.981025,0.008245,0.003615,-0.010146,0.001288,0.00235,0.002645,0.156894,0.235854,-0.95904,-0.1575448686267171
1763249271.813639,-0.107523,0.094404,-0.130919,0.981013,0.009168,0.001484,-0.003468,0.000859,0.000615,0.00224,0.157069,0.235682,-0.959053,-0.15772216299551128
1763249271.844744,-0.107389,0.094493,-0.130957,0.981014,0.010146,0.007654,-0.006906,0.002563,-0.002103,-0.001871,0.15727,0.23545,-0.959077,-0.15792569940073103
1763249271.878837,-0.107288,0.094764,-0.131186,0.980968,-0.000414,0.01041,-0.007669,0.001016,0.002224,-0.000154,0.157772,0.235356,-0.959018,-0.15843398784855997
1763249271.931988,-0.107277,0.094968,-0.131353,0.980928,0.000658,0.005987,-0.00592,0.001132,0.00117,0.001379,0.158131,0.23541,-0.958946,-0.15879749269494683
1763249271.998285,-0.107159,0.094999,-0.131525,0.980914,0.006325,0.000452,-0.002717,0.001009,0.00186,0.000725,0.158184,0.235217,-0.958984,-0.1588512631586665
1763249271.99851,-0.107041,0.09503,-0.131697,0.980901,0.011993,-0.005083,0.000485,0.000887,0.002549,7.1e-05,0.158237,0.235024,-0.959023,-0.15890487380909338
1763249272.059428,-0.106752,0.094991,-0.131624,0.980946,0.019944,-0.012045,0.011113,0.000187,0.000865,0.000625,0.15826,0.234443,-0.959161,-0.1589282291474774
1763249272.089521,-0.106452,0.094957,-0.13144,0.981007,0.014102,-0.001276,0.006736,0.002001,-0.002554,-0.000137,0.158323,0.233822,-0.959302,-0.15899206120426213
1763249272.11948,-0.106216,0.09499,-0.131385,0.981037,0.008071,0.001588,-0.002196,0.001487,-0.004625,0.000404,0.158468,0.233365,-0.95939,-0.15913881285685536
1763249272.174668,-0.106173,0.095005,-0.131538,0.981019,-0.003061,-0.00117,-0.013361,0.00264,-0.005223,-0.001864,0.158472,0.233309,-0.959403,-0.15914285776192724
1763249272.206801,-0.106215,0.095031,-0.131847,0.980971,-0.005009,0.001472,-0.014729,0.002098,-0.001128,-0.001132,0.158437,0.233446,-0.959375,-0.15910747990979274
1763249272.236991,-0.10621,0.095063,-0.132054,0.98094,0.000252,-9.8e-05,-0.006382,0.001033,-0.000388,2.7e-05,0.158451,0.233478,-0.959365,-0.1591216437293442
1763249272.297673,-0.10618,0.095071,-0.132129,0.980933,-0.000384,-0.002487,-0.0031,0.00257,-0.000862,0.000422,0.158458,0.233435,-0.959374,-0.1591287806602671
1763249272.328567,-0.106237,0.095026,-0.132166,0.980926,-0.001642,-0.007555,-0.005222,0.002145,-0.002025,0.001685,0.158345,0.233539,-0.959368,-0.15901423516889135
1763249272.365214,-0.10645,0.094825,-0.132203,0.980917,-0.011911,-0.009912,-0.004396,0.002682,-0.001031,0.000593,0.157885,0.23391,-0.959353,-0.15854844090337747
1763249272.420813,-0.106754,0.094646,-0.132202,0.980902,-0.016623,-0.00894,-0.002426,0.001099,-0.000381,0.000201,0.15745,0.234455,-0.959292,-0.1581078472846181
1763249272.450692,-0.107064,0.094439,-0.132144,0.980896,-0.011079,-0.017366,0.000383,0.000609,0.001747,0.000633,0.156973,0.234996,-0.959237,-0.15762496253637923
1763249272.480719,-0.107308,0.09418,-0.132083,0.980902,-0.008932,-0.013575,0.000686,0.000744,0.001911,-0.000539,0.156416,0.235397,-0.95923,-0.15706094497549994
1763249272.530386,-0.107511,0.09386,-0.13197,0.980926,-0.007738,-0.018727,0.00617,0.001237,0.002426,-0.002501,0.155763,0.235694,-0.959263,-0.15639989129365384
1763249272.560561,-0.10763,0.093658,-0.131895,0.980942,-0.001987,-0.006746,-0.00182,0.000997,0.001921,-0.00209,0.155354,0.235864,-0.959288,-0.15598578155738022
1763249272.6094,-0.107776,0.093628,-0.131879,0.980931,-0.005908,-0.001405,-0.001029,-0.000325,0.001647,-0.000354,0.155259,0.236137,-0.959236,-0.155889647336711
1763249272.639463,-0.107922,0.093551,-0.131954,0.980912,-0.001636,-0.006319,-0.006221,0.00017,0.001406,0.001186,0.15505,0.236413,-0.959202,-0.155678058475201
1763249272.702195,-0.107997,0.09341,-0.132125,0.980895,-0.001397,-0.008046,-0.007966,8.5e-05,0.003362,0.000605,0.154712,0.236551,-0.959222,-0.1553360132272106
1763249272.731964,-0.108051,0.093161,-0.132238,0.980897,0.001527,-0.006645,-0.000377,-0.000263,0.004344,-0.001406,0.154185,0.236612,-0.959292,-0.15480258371237546
1763249272.762007,-0.108046,0.093044,-0.132095,0.980928,0.000685,-0.000956,0.007454,0.000388,0.002303,-0.004513,0.153995,0.236552,-0.959338,-0.15461018470479576
1763249272.814405,-0.108029,0.093019,-0.131874,0.980962,0.00495,0.000822,0.006517,0.000451,-0.002426,-0.002804,0.154004,0.236478,-0.959354,-0.15461941284090924
1763249272.844506,-0.107905,0.092961,-0.13182,0.980988,0.006631,-0.004477,-0.000526,-0.000431,-0.00205,-0.000938,0.153939,0.236215,-0.95943,-0.1545535120483049
1763249272.902084,-0.107772,0.092893,-0.131973,0.980989,0.003667,-0.002759,-0.01063,0.000135,-0.000299,-0.001314,0.153807,0.235965,-0.959512,-0.15442002339566185
1763249272.93026,-0.107683,0.092865,-0.132166,0.980975,0.002142,0.002964,-0.004854,0.0001,-0.000703,-0.00196,0.153733,0.235817,-0.959561,-0.15434501964943223
1763249272.96069,-0.107532,0.092934,-0.132234,0.980976,0.005019,0.003894,-2.1e-05,0.000718,-0.00096,-0.000697,0.153894,0.235551,-0.9596,-0.15450803712232858
1763249273.016493,-0.107403,0.09301,-0.132234,0.980983,0.001739,0.002653,-0.0024,0.00059,-0.002203,-0.001749,0.154078,0.235318,-0.959628,-0.15469420418084132
1763249273.049508,-0.107362,0.093105,-0.132339,0.980964,0.002477,0.004672,-0.005057,0.000873,-0.000548,-8.8e-05,0.154248,0.235278,-0.95961,-0.15486633552643808
1763249273.102198,-0.107388,0.093157,-0.132487,0.980937,-0.006079,0.000214,-0.006489,0.000394,0.00047,-0.000604,0.154308,0.235366,-0.959579,-0.15492702861452043
1763249273.132738,-0.107496,0.093241,-0.132602,0.980901,-0.005003,0.002699,-0.002845,0.002167,0.003152,-0.001124,0.154412,0.235613,-0.959502,-0.15503223789760182
1763249273.225123,-0.107487,0.093277,-0.132639,0.980894,0.000165,0.001173,-0.001723,0.002292,0.00334,-0.001161,0.154476,0.235612,-0.959492,-0.15509700668609366
1763249273.225362,-0.107479,0.093313,-0.132676,0.980886,0.005333,-0.000353,-0.000602,0.002416,0.003528,-0.001197,0.15454,0.235611,-0.959482,-0.15516177546702783
1763249273.256827,-0.107359,0.093264,-0.132654,0.980907,0.008069,-0.00376,0.002441,0.000985,0.002148,-0.000749,0.154484,0.235361,-0.959552,-0.15510515078316456
1763249273.286827,-0.107132,0.093327,-0.132599,0.980933,0.013396,0.004177,0.00078,0.000728,-0.001158,-0.001146,0.154683,0.234929,-0.959626,-0.15530654230431823
1763249273.341786,-0.106983,0.093463,-0.132619,0.980934,0.007431,0.004994,-0.002871,-0.000178,-0.000695,0.000427,0.154987,0.234676,-0.959639,-0.15561423114207185
1763249273.373374,-0.106826,0.093467,-0.132797,0.980927,0.004414,-0.00041,-0.011858,0.002119,0.001689,0.001503,0.154997,0.234402,-0.959704,-0.15562440603653344
1763249273.404776,-0.106786,0.093376,-0.13297,0.980916,0.001054,-0.005197,-0.003759,-0.000163,0.007889,0.002162,0.15479,0.234329,-0.959755,-0.15541491260456647
1763249273.462485,-0.106656,0.093202,-0.132865,0.980961,0.015274,-0.013291,0.012,0.000738,0.007739,-0.001702,0.154514,0.234017,-0.959876,-0.15513549030208426
1763249273.500448,-0.106344,0.093081,-0.132501,0.981056,0.024206,-0.001812,0.019467,0.000839,0.002123,-0.002577,0.154453,0.233324,-0.960054,-0.15507382470303377
1763249273.531803,-0.105866,0.093025,-0.132226,0.98115,0.029396,-0.000196,0.008006,-0.000737,-0.00375,-0.003292,0.154546,0.232341,-0.960278,-0.15516786559717086
1763249273.56181,-0.105319,0.093072,-0.132218,0.981205,0.029953,0.005083,-0.003488,0.000511,-0.004482,-0.001387,0.154795,0.231291,-0.960491,-0.1554199504617881
1763249273.61631,-0.104749,0.0931,-0.132497,0.981226,0.027786,0.005381,-0.013886,0.000385,-0.00262,-0.000653,0.154946,0.230235,-0.96072,-0.15557284500472807
1763249273.646958,-0.104153,0.09314,-0.132786,0.981247,0.026758,0.005657,-0.010732,0.000235,-0.000441,-0.00126,0.155127,0.229135,-0.960954,-0.15575602206141823
1763249273.701836,-0.103553,0.093216,-0.132946,0.981281,0.024986,0.004986,-0.002136,0.002587,-0.003398,-0.00082,0.155409,0.228015,-0.961175,-0.15604145624211688
1763249273.733364,-0.102942,0.09323,-0.133069,0.981328,0.030823,0.002865,-0.009363,0.001541,-0.007708,-0.00018,0.155581,0.226852,-0.961422,-0.15621562436569855
1763249273.813089,-0.102287,0.093111,-0.13355,0.981342,0.029297,-0.000636,-0.021645,0.001718,-0.004797,-0.000893,0.155427,0.225626,-0.961736,-0.156059630468939
1763249273.813325,-0.101631,0.092993,-0.134032,0.981356,0.027771,-0.004137,-0.033928,0.001893,-0.001885,-0.001608,0.155274,0.224401,-0.962047,-0.15590479135915072
1763249273.862986,-0.101149,0.092837,-0.134816,0.981313,0.023369,0.002903,-0.037982,0.001839,-0.000804,2e-05,0.154931,0.223549,-0.9623,-0.15555768331872327
1763249273.893076,-0.100637,0.092717,-0.135617,0.981266,0.029896,0.000335,-0.036127,0.001199,0.002037,-0.001148,0.154665,0.222651,-0.962551,-0.15528843011277896
1763249273.923182,-0.100006,0.092611,-0.136314,0.981244,0.036788,0.002883,-0.023258,0.001294,0.003638,-0.000173,0.154484,0.221509,-0.962844,-0.15510515356701648
1763249273.979757,-0.099341,0.092469,-0.136748,0.981265,0.040121,-0.001163,-0.012493,0.001389,0.003248,-0.001741,0.154303,0.22025,-0.963162,-0.1549219253307086
1763249274.015588,-0.098619,0.092451,-0.137085,0.981292,0.038606,0.006196,-0.013825,0.002665,0.002153,-0.001161,0.154405,0.218895,-0.963454,-0.1550252392240509
1763249274.045508,-0.098043,0.092469,-0.137398,0.981305,0.029348,0.003082,-0.01053,0.001662,0.001769,0.000513,0.15454,0.21783,-0.963674,-0.15516183525577465
1763249274.100477,-0.097528,0.092406,-0.137671,0.981324,0.029622,-0.001691,-0.008328,0.002855,0.001251,0.002191,0.154507,0.216856,-0.963899,-0.15512842460199466
1763249274.129771,-0.0969,0.092159,-0.13789,0.981378,0.03838,-0.011466,-0.005015,0.00056,0.00078,0.000928,0.154163,0.215607,-0.964234,-0.15478028458234455
1763249274.183504,-0.096178,0.091742,-0.138037,0.981468,0.044927,-0.013547,-0.004834,0.001111,-0.000816,-0.002566,0.153531,0.214119,-0.964666,-0.1541407170887958
1763249274.214954,-0.09534,0.091286,-0.138212,0.981567,0.049851,-0.017603,-0.004028,0.001235,-0.003519,-0.003013,0.152853,0.2124,-0.965154,-0.15345455361445645
1763249274.256803,-0.094349,0.090778,-0.138512,0.981668,0.054055,-0.013327,-0.01411,0.000365,-0.001849,-0.003911,0.152092,0.210386,-0.965715,-0.15268457641586913
1763249274.286904,-0.093307,0.090341,-0.138934,0.981748,0.056974,-0.013348,-0.020068,0.000868,0.001239,-0.002356,0.151458,0.208312,-0.966264,-0.152043158696474
1763249274.34172,-0.092124,0.08982,-0.139497,0.981828,0.07085,-0.016604,-0.024661,0.001139,0.005932,-0.00518,0.150673,0.205959,-0.966891,-0.1512490347038807
1763249274.425863,-0.090462,0.089353,-0.140031,0.981949,0.092666,-0.013871,-0.017648,0.001029,0.005085,-0.001589,0.150145,0.202683,-0.967665,-0.15071497382533955
1763249274.426108,-0.0888,0.088886,-0.140565,0.982067,0.114481,-0.011139,-0.010634,0.000916,0.004241,0.001991,0.149619,0.199404,-0.968428,-0.1501828793095269
1763249274.456773,-0.086676,0.088354,-0.1409,0.982257,0.13121,-0.019828,-0.002352,0.000535,0.003013,0.002604,0.149147,0.195174,-0.969362,-0.14970553730534206
1763249274.486812,-0.0844,0.087741,-0.141191,0.982468,0.120629,-0.010822,-0.002359,0.000187,0.001093,0.00102,0.148573,0.190618,-0.970356,-0.1491251060654541
1763249274.541713,-0.08235,0.087239,-0.141429,0.982652,0.106069,-0.012213,-0.004166,0.000299,0.000703,-0.000381,0.148158,0.186518,-0.971216,-0.14870543538351383
1763249274.576381,-0.080468,0.086786,-0.141618,0.982821,0.096117,-0.009997,0.003473,0.000319,0.000635,-0.000626,0.1478,0.182752,-0.971986,-0.1483434769249734
1763249274.606733,-0.078672,0.086345,-0.14162,0.983005,0.093956,-0.010682,0.015164,0.000528,-0.001838,-0.001665,0.147471,0.179127,-0.972711,-0.1480107609224313
1763249274.664636,-0.076823,0.085869,-0.141357,0.983231,0.098959,-0.014989,0.027399,0.000114,-0.003906,-0.002407,0.14714,0.175346,-0.973449,-0.14767622288345206
1763249274.728894,-0.074731,0.085395,-0.141007,0.983483,0.100383,-0.011807,0.02483,0.000131,-0.005769,-0.003322,0.146893,0.171076,-0.974246,-0.1474264749107291
1763249274.729129,-0.072638,0.08492,-0.140657,0.983732,0.101808,-0.008625,0.02226,0.000152,-0.007628,-0.004254,0.146642,0.166803,-0.975025,-0.14717264938617183
1763249274.781821,-0.070572,0.084515,-0.140473,0.983943,0.100617,-0.008713,0.009094,0.001689,-0.009672,-0.001835,0.146489,0.162622,-0.975754,-0.14701798339126337
1763249274.813445,-0.068619,0.084179,-0.14055,0.984099,0.096374,-0.003839,9.3e-05,0.001901,-0.009441,0.000277,0.146391,0.158719,-0.976411,-0.1469189393907584
1763249274.8467,-0.0667,0.083808,-0.14077,0.984231,0.092839,-0.007883,-0.005166,0.002202,-0.008896,0.000125,0.146195,0.154892,-0.977055,-0.14672077115521387
1763249274.90204,-0.064963,0.083473,-0.141004,0.984342,0.083656,-0.011697,-0.001689,0.001706,-0.007434,0.001071,0.146012,0.151432,-0.977624,-0.1465358705489642
1763249274.933477,-0.063562,0.083246,-0.141144,0.984433,0.060349,-0.001735,-0.001479,0.003126,-0.005897,-0.000265,0.145957,0.148645,-0.97806,-0.1464802524181757
1763249275.023523,-0.062875,0.083227,-0.141261,0.984462,0.03639,-0.002573,-0.004654,0.003262,-0.00443,-0.000477,0.146104,0.147309,-0.97824,-0.14662886949980763
1763249275.023758,-0.062187,0.083208,-0.141379,0.98449,0.01243,-0.003411,-0.007828,0.003397,-0.002962,-0.00069,0.146251,0.145973,-0.978418,-0.14677750732751732
1763249275.05456,-0.061955,0.083157,-0.141564,0.984483,0.009151,-0.004067,-0.008207,0.002139,-0.001075,0.000114,0.146192,0.145531,-0.978493,-0.1467178168121974
1763249275.098052,-0.061584,0.082997,-0.141747,0.984493,0.026455,-0.007859,-0.003101,0.000425,-0.000214,2.3e-05,0.14596,0.144786,-0.978638,-0.14648332200244482
1763249275.127969,-0.060927,0.082673,-0.141791,0.984555,0.036199,-0.010727,0.005701,-6e-06,-0.000594,-0.000541,0.145514,0.143416,-0.978906,-0.14603252436616168
1763249275.167437,-0.060159,0.082362,-0.141611,0.984654,0.03969,-0.014141,0.012291,-0.00106,-0.004403,-0.002287,0.145159,0.141798,-0.979195,-0.14567362458271882
1763249275.221774,-0.059524,0.082141,-0.141392,0.984743,0.028189,-0.007287,0.01249,-7.7e-05,-0.006156,-0.001853,0.144943,0.14046,-0.97942,-0.1454552891162752
1763249275.258026,-0.059032,0.081876,-0.141232,0.984817,0.022542,-0.009398,0.00554,-0.000526,-0.006873,-0.003512,0.144592,0.139399,-0.979623,-0.1451006160659943
1763249275.300734,-0.058616,0.081647,-0.141189,0.984867,0.016788,-0.004839,0.002046,0.001176,-0.006467,-0.003605,0.144272,0.138514,-0.979796,-0.14477718223804972
1763249275.330546,-0.058219,0.0815,-0.141217,0.984899,0.014659,-0.002428,-2e-06,0.000943,-0.006766,-0.000931,0.144095,0.137698,-0.979937,-0.14459832113129573
1763249275.383456,-0.057815,0.081352,-0.141246,0.984931,0.017611,-0.001908,-0.001013,0.0007,-0.009058,-0.003603,0.143921,0.136869,-0.980078,-0.14442258792826573
1763249275.414739,-0.057425,0.081368,-0.141384,0.984932,0.009674,0.004504,-0.006161,0.001983,-0.00712,-0.002428,0.144047,0.136128,-0.980163,-0.14454987005394115
1763249275.446968,-0.057198,0.081484,-0.141596,0.984906,-0.001237,0.010093,-0.01218,0.001206,-0.006362,-0.000157,0.14431,0.135745,-0.980177,-0.14481570858402926
1763249275.480781,-0.057184,0.081646,-0.141856,0.984856,-0.009243,0.008609,-0.014202,0.001219,-0.005119,0.001399,0.144595,0.1358,-0.980128,-0.14510364057569594
1763249275.536929,-0.057355,0.081755,-0.142143,0.984795,-0.013523,0.001158,-0.013577,0.001697,-0.001586,0.000547,0.144719,0.136208,-0.980053,-0.14522897032813692
1763249275.625319,-0.057732,0.08182,-0.142261,0.984751,-0.017329,-0.001208,-0.0078,0.001914,-0.002169,0.000212,0.144718,0.136983,-0.979945,-0.14522797769307869
1763249275.625409,-0.058109,0.081885,-0.14238,0.984706,-0.021136,-0.003574,-0.002022,0.002131,-0.002751,-0.000123,0.144718,0.137759,-0.979836,-0.14522800813933373
1763249275.659387,-0.058482,0.081897,-0.142383,0.984683,-0.019862,-0.002526,-0.000512,0.001807,-0.00162,-0.000316,0.144632,0.138494,-0.979745,-0.14514110540205094
1763249275.689285,-0.058872,0.081858,-0.142342,0.984668,-0.02005,-0.010063,-0.003129,0.002907,-0.002329,0.000413,0.144445,0.139243,-0.979667,-0.14495203810827617
1763249275.744943,-0.059277,0.081717,-0.142381,0.98465,-0.019943,-0.012921,-0.006901,0.002141,-0.00158,-0.001261,0.144046,0.140005,-0.979617,-0.14454884207135874
1763249275.776869,-0.059673,0.081538,-0.142422,0.984635,-0.018999,-0.014992,-0.00643,0.000669,-0.00268,-0.001222,0.143573,0.140739,-0.979581,-0.14407091070969885
1763249275.814341,-0.060051,0.08125,-0.142477,0.984628,-0.015383,-0.01998,-0.006663,0.000922,-0.005381,8.5e-05,0.142891,0.141408,-0.979585,-0.14338171689320944
1763249275.844285,-0.060342,0.080894,-0.142587,0.984624,-0.011832,-0.019743,-0.010701,-0.000486,-0.004361,-0.0021,0.142093,0.141898,-0.97963,-0.1425755214881974
1763249275.900876,-0.060805,0.080404,-0.142794,0.984605,-0.032555,-0.031576,-0.021859,0.002363,0.005484,-0.011747,0.140968,0.142701,-0.979676,-0.14143906665512163
1763249275.928902,-0.061826,0.080238,-0.142963,0.984531,-0.051709,0.002984,-0.008037,0.005775,0.00121,-0.009975,0.140316,0.144681,-0.979479,-0.14078054493844808
1763249275.961746,-0.061853,0.080024,-0.142999,0.984541,0.046834,-0.032368,0.010966,-0.011331,-0.024012,0.010376,0.139884,0.14468,-0.979541,-0.1403442331748636
1763249276.016152,-0.060231,0.078755,-0.142481,0.984819,0.134198,-0.057651,0.034706,-0.009169,-0.087117,0.007638,0.137956,0.141076,-0.98034,-0.13839732737102806
1763249276.046674,-0.05697,0.077169,-0.14244,0.985145,0.175923,-0.068352,-0.028993,-0.004502,-0.116585,0.00517,0.135815,0.134232,-0.981599,-0.1362360013504077
1763249276.104441,-0.055033,0.075917,-0.144139,0.985105,-0.047821,-0.03067,-0.128872,0.002734,-0.062667,-0.01515,0.133708,0.130312,-0.982416,-0.13410962470571552
1763249276.133087,-0.05849,0.076429,-0.146901,0.984458,-0.393639,0.050491,-0.17645,0.007292,-0.014835,-0.023909,0.133297,0.137617,-0.981475,-0.13369494870349177
1763249276.226809,-0.065816,0.078468,-0.149214,0.983487,-0.337331,0.037108,-0.135656,0.003607,-0.008303,-0.005063,0.134703,0.152875,-0.979022,-0.13511374225660894
1763249276.227027,-0.073137,0.080503,-0.151518,0.982452,-0.281023,0.023725,-0.094862,1.5e-05,-0.001741,0.013556,0.136017,0.168102,-0.976341,-0.13643988550421962
1763249276.268002,-0.077998,0.081295,-0.152841,0.981808,-0.222387,0.008735,-0.057405,0.006848,0.008898,-0.009379,0.13579,0.178008,-0.974615,-0.13621079297753091
1763249276.297971,-0.081637,0.081858,-0.153376,0.981382,-0.146323,-0.019951,-0.043961,0.001999,-0.023833,-0.008864,0.135626,0.185345,-0.973269,-0.13604529197095358
1763249276.327941,-0.084661,0.081702,-0.154128,0.981021,-0.168473,-0.013337,-0.062405,0.006807,-0.015607,-0.026066,0.134206,0.191293,-0.972315,-0.13461212151421695
1763249276.370413,-0.088222,0.081831,-0.155045,0.980552,-0.190412,-0.025971,-0.062407,-0.000688,-0.017868,-0.010814,0.133122,0.198387,-0.971041,-0.13351838928541315
1763249276.426885,-0.091458,0.081691,-0.156089,0.980101,-0.165281,-0.015145,-0.066839,0.000551,-0.017244,-0.018236,0.131581,0.204778,-0.969924,-0.1319636680326516
1763249276.456785,-0.094272,0.081799,-0.157079,0.979667,-0.138251,0.000249,-0.054863,7.4e-05,-0.019574,-0.011135,0.130654,0.210409,-0.968843,-0.13102866007209646
1763249276.49891,-0.096391,0.081898,-0.157774,0.979341,-0.107075,-0.011753,-0.033707,-0.005132,-0.031557,-0.006439,0.129995,0.214642,-0.968003,-0.13036395682700255
1763249276.5295,-0.098091,0.081746,-0.158289,0.979102,-0.103718,-0.002359,-0.042285,-0.002302,-0.05063,-0.010636,0.129021,0.21796,-0.967392,-0.12938164751799122
1763249276.593234,-0.100026,0.081794,-0.159227,0.97875,-0.13375,-0.004886,-0.074017,-0.00546,-0.055772,-0.003383,0.128258,0.221848,-0.966609,-0.12861229727842302
1763249276.623314,-0.102809,0.081843,-0.160584,0.978235,-0.203276,-0.010909,-0.085013,-0.006908,-0.043832,0.00082,0.127104,0.227429,-0.965464,-0.12744874160784606
1763249276.653351,-0.106585,0.081731,-0.161881,0.977627,-0.246715,-0.027677,-0.084757,-0.010717,-0.026114,0.005316,0.125297,0.234862,-0.963919,-0.12562722662101936
1763249276.682705,-0.11111,0.081561,-0.16302,0.976948,-0.268112,-0.024185,-0.090819,-0.006247,-0.013688,0.017301,0.123136,0.24369,-0.962005,-0.12344926045548622
1763249276.737813,-0.11598,0.081693,-0.1645,0.976122,-0.268826,0.005368,-0.109669,0.000953,0.016612,0.033442,0.121327,0.253298,-0.95975,-0.12162663861673427
1763249276.823748,-0.121237,0.082456,-0.166268,0.975119,-0.262353,0.005069,-0.102879,0.00481,0.052419,0.031197,0.120493,0.26386,-0.957006,-0.12078641613065022
1763249276.823989,-0.126489,0.083216,-0.168031,0.974085,-0.255881,0.00477,-0.09609,0.008714,0.08826,0.028841,0.119611,0.274388,-0.954151,-0.11989807851925326
1763249276.855703,-0.131806,0.084364,-0.169309,0.973059,-0.243113,0.041956,-0.059237,0.012908,0.116395,0.014818,0.11955,0.285077,-0.95102,-0.11983661102012058
1763249276.887069,-0.136721,0.086048,-0.169734,0.972159,-0.186514,0.04342,-0.006959,0.009428,0.123564,0.015158,0.120892,0.295039,-0.947806,-0.12118847866918507
1763249276.926949,-0.140335,0.087372,-0.169152,0.971627,-0.109385,0.005701,0.044972,0.004669,0.110577,0.013319,0.12231,0.302266,-0.945344,-0.12261704105878037
1763249276.983892,-0.142623,0.088065,-0.167845,0.971458,-0.043165,-0.014158,0.06503,0.002187,0.087263,0.012609,0.123227,0.306668,-0.943806,-0.12354102019140663
1763249277.013833,-0.144003,0.088335,-0.166483,0.971464,-0.014095,-0.018984,0.065914,-0.004206,0.065388,0.010782,0.12368,0.309201,-0.94292,-0.12399749938819152
1763249277.098254,-0.144222,0.088077,-0.165455,0.971631,0.003311,-0.010494,0.054572,-0.001124,0.065949,-0.008285,0.123431,0.309407,-0.942885,-0.12374658300420827
1763249277.098519,-0.144441,0.087818,-0.164427,0.971797,0.020717,-0.002005,0.04323,0.001958,0.06651,-0.027352,0.123183,0.309613,-0.94285,-0.12349665369409157
1763249277.13003,-0.144621,0.087546,-0.163811,0.971898,-0.014872,-0.009692,0.024291,0.011675,0.099371,-0.060832,0.122791,0.309796,-0.942841,-0.12310165759695049
1763249277.186363,-0.144878,0.087972,-0.162616,0.972022,0.056152,0.004973,0.080931,0.010458,0.082814,-0.034351,0.123902,0.310261,-0.942543,-0.12422117188125124
1763249277.214588,-0.142276,0.088108,-0.160944,0.972672,0.210979,0.006135,0.117061,0.003908,0.061246,0.01151,0.125604,0.305138,-0.943989,-0.12593657894313473
1763249277.246987,-0.138091,0.087466,-0.15896,0.973659,0.224928,-0.056637,0.111361,-0.00596,0.019324,0.045323,0.126422,0.296714,-0.946561,-0.1267612376290465
1763249277.30399,-0.135712,0.086244,-0.157143,0.974397,0.098313,-0.056461,0.079801,-0.0099,-0.026461,0.047781,0.125421,0.29158,-0.948288,-0.12575220511428994
1763249277.337037,-0.13571,0.085124,-0.155926,0.974692,-0.035194,-0.049751,0.034331,-0.010534,-0.046958,0.03011,0.123617,0.291097,-0.948673,-0.12393407698516175
1763249277.423641,-0.138335,0.085086,-0.155929,0.974325,-0.119049,-0.013033,-0.007775,-0.007271,-0.036642,0.021298,0.122663,0.296102,-0.947247,-0.1229727356266561
1763249277.423887,-0.14096,0.085048,-0.155931,0.973952,-0.202905,0.023685,-0.049881,-0.004006,-0.026318,0.01246,0.121706,0.3011,-0.945794,-0.12200848835877641
1763249277.454751,-0.144651,0.08588,-0.15685,0.97319,-0.214624,0.035291,-0.081044,-0.002603,-0.017874,0.022473,0.121778,0.308486,-0.943401,-0.12208108379036753
1763249277.486967,-0.148276,0.086536,-0.158272,0.972356,-0.191328,-0.000827,-0.092713,-0.003518,-0.003544,0.025453,0.121352,0.315747,-0.941051,-0.12165186870770762
1763249277.541937,-0.151948,0.086693,-0.159638,0.971551,-0.195038,-0.016908,-0.092174,-0.000397,0.000895,0.01619,0.11994,0.322929,-0.938793,-0.12022938310174978
1763249277.573559,-0.155793,0.086483,-0.160937,0.970746,-0.187861,-0.042997,-0.085658,-0.000864,0.009405,0.000457,0.117761,0.330308,-0.936498,-0.11803491853276475
1763249277.604296,-0.159471,0.086089,-0.161849,0.970032,-0.16867,-0.039335,-0.057624,-0.001739,0.020933,-0.008037,0.115398,0.33725,-0.934316,-0.11565562945610904
1763249277.658291,-0.16247,0.085657,-0.162361,0.969487,-0.131255,-0.036469,-0.040903,-0.002774,0.021308,-0.011411,0.11333,0.342839,-0.932533,-0.11357400511077145
1763249277.705782,-0.164809,0.085385,-0.162731,0.969054,-0.087182,-0.016615,-0.028983,-0.003605,0.014809,-0.004606,0.111846,0.347206,-0.931095,-0.1120805445574023
1763249277.735691,-0.16634,0.085311,-0.163121,0.968733,-0.059612,0.002719,-0.025973,-0.001317,0.00796,-0.001042,0.11102,0.350111,-0.930106,-0.1112493179288999
1763249277.765219,-0.167649,0.085571,-0.16365,0.968396,-0.061888,0.018883,-0.032195,-0.001513,-0.004113,0.011331,0.110861,0.352708,-0.929143,-0.11108935907901069
1763249277.820257,-0.169133,0.085738,-0.164386,0.967998,-0.085675,-0.004036,-0.048114,0.00181,-0.006615,0.014341,0.110382,0.355629,-0.928086,-0.11060740184414228
1763249277.851924,-0.171396,0.085701,-0.165121,0.967478,-0.140432,-0.018513,-0.048685,0.003196,-0.004365,0.01413,0.109226,0.359947,-0.926557,-0.10944435584869795
1763249277.90705,-0.174568,0.085415,-0.165558,0.966861,-0.169441,-0.05761,-0.039192,-0.000852,-0.003792,0.013892,0.107366,0.365848,-0.924461,-0.10757333429567723
1763249277.937039,-0.178035,0.084823,-0.165655,0.966264,-0.178344,-0.051108,-0.024507,0.001374,0.003016,0.002583,0.104937,0.372161,-0.922217,-0.10513056272746185
1763249278.024894,-0.181352,0.084772,-0.165614,0.965659,-0.158397,-0.030609,-0.018542,0.002904,0.010112,-0.002033,0.103652,0.378327,-0.919851,-0.1038384568992468
1763249278.025229,-0.184666,0.08472,-0.165571,0.965043,-0.138451,-0.010111,-0.012577,0.004437,0.017225,-0.006691,0.102366,0.384476,-0.917442,-0.10254560569274938
1763249278.056524,-0.186985,0.08499,-0.165435,0.964595,-0.09124,-0.006668,0.000582,0.002613,0.015931,-0.001314,0.102095,0.388851,-0.915626,-0.10227322742676825
1763249278.087071,-0.1885,0.085188,-0.165106,0.964339,-0.057063,-0.004246,0.017356,0.003218,0.017741,-0.002141,0.102055,0.391686,-0.914422,-0.1022329518006591
1763249278.150816,-0.18939,0.085283,-0.164554,0.964251,-0.025674,-0.016803,0.026231,0.000666,0.013029,0.003366,0.102138,0.393306,-0.913717,-0.10231639818255318
1763249278.180685,-0.190045,0.085072,-0.163778,0.964273,-0.021554,-0.031085,0.038422,-0.001518,0.008025,0.002005,0.101815,0.394377,-0.913291,-0.1019917349437691
1763249278.210218,-0.190667,0.084771,-0.16262,0.964372,-0.023268,-0.034368,0.06117,-0.002434,0.007142,5.8e-05,0.101489,0.39532,-0.91292,-0.10166399243549301
1763249278.297802,-0.191436,0.085032,-0.161119,0.964449,-0.028756,-0.015791,0.067453,-0.003207,0.009595,-0.001663,0.10233,0.396662,-0.912243,-0.10250946470766396
1763249278.298017,-0.192205,0.085292,-0.159617,0.964523,-0.034243,0.002786,0.073736,-0.003985,0.012052,-0.003385,0.103174,0.398,-0.911565,-0.10335794765711218
1763249278.32783,-0.192781,0.085941,-0.158215,0.964582,-0.02455,0.025991,0.069583,-0.003693,0.010561,-0.002723,0.104792,0.399101,-0.910899,-0.10498474930439639
1763249278.385224,-0.19297,0.086771,-0.157088,0.964653,-0.002545,0.038769,0.053354,-0.001111,0.009793,-0.000657,0.106782,0.39956,-0.910466,-0.1069860344537995
1763249278.414406,-0.192717,0.08761,-0.156395,0.964741,0.019174,0.037561,0.035417,-0.000871,0.008212,0.000436,0.108761,0.399247,-0.91037,-0.10897653491949852
1763249278.44695,-0.192136,0.088278,-0.156175,0.964832,0.038222,0.036101,0.005629,0.000733,0.005702,0.000613,0.110332,0.398332,-0.910581,-0.11055712259001638
1763249278.50948,-0.191405,0.088756,-0.15649,0.964882,0.047333,0.03049,-0.016225,0.000286,0.005255,0.002459,0.111371,0.397146,-0.910973,-0.11160251221395309
1763249278.539503,-0.190533,0.089152,-0.15705,0.964927,0.048443,0.026295,-0.018081,5.7e-05,0.007685,0.004336,0.112205,0.395703,-0.911498,-0.11244181892949319
1763249278.623606,-0.18976,0.089414,-0.157321,0.965011,0.044787,0.023835,-0.00917,0.000751,0.006682,0.002563,0.112865,0.394374,-0.911993,-0.11310597242189553
1763249278.623842,-0.188986,0.089676,-0.157592,0.965094,0.041131,0.021376,-0.000259,0.001444,0.00568,0.000788,0.113526,0.393044,-0.912485,-0.11377124690094399
1763249278.654435,-0.188314,0.089973,-0.157777,0.965168,0.03888,0.019999,-0.000597,0.003217,0.002326,0.002094,0.114256,0.391902,-0.912885,-0.11450602654483542
1763249278.687332,-0.18763,0.090208,-0.158017,0.96524,0.040518,0.013769,-0.008777,0.004235,0.000134,0.001656,0.114848,0.390724,-0.913315,-0.11510200916638127
1763249278.746505,-0.186892,0.090277,-0.15838,0.965317,0.039785,0.006231,-0.015066,0.003203,-0.000592,0.000834,0.115092,0.389416,-0.913843,-0.11534761356301519
1763249278.785758,-0.186219,0.090282,-0.158818,0.965375,0.03824,0.008376,-0.017427,0.004781,-0.001449,0.000903,0.115163,0.388218,-0.914343,-0.11541915631977742
1763249278.818213,-0.185502,0.090201,-0.159225,0.965453,0.039821,0.000309,-0.013543,0.003532,-0.00013,0.001545,0.115097,0.386912,-0.914906,-0.11535257831386823
1763249278.84825,-0.184676,0.090049,-0.159491,0.965582,0.051309,-0.001849,-0.00874,0.004421,-0.003156,0.000182,0.114992,0.385364,-0.915571,-0.11524701404135652
1763249278.898071,-0.183669,0.089891,-0.159692,0.965755,0.05755,-0.002411,-0.005881,0.003739,-0.002773,-0.000453,0.114964,0.383469,-0.91637,-0.11521880720982633
1763249278.939347,-0.182623,0.089692,-0.159858,0.965945,0.051274,-0.00485,-0.003256,0.00282,-0.002918,-0.001227,0.114888,0.381483,-0.917208,-0.1151423074788958
1763249278.970693,-0.181786,0.089596,-0.160035,0.966082,0.036993,0.002502,-0.006653,0.003267,-0.004708,-0.00079,0.114931,0.379917,-0.917853,-0.11518552804417664
1763249279.073647,-0.18144,0.089573,-0.160274,0.96611,0.015536,-0.000505,-0.009953,0.001957,-0.005466,0.001657,0.114914,0.379294,-0.918113,-0.1151683883233858
1763249279.073894,-0.181094,0.089549,-0.160513,0.966138,-0.005921,-0.003513,-0.013253,0.000647,-0.006224,0.004104,0.114898,0.37867,-0.918372,-0.11515233929739582
1763249279.107044,-0.181359,0.089428,-0.160771,0.966056,-0.030563,-0.00544,-0.019854,0.002214,-0.010096,-0.001327,0.114471,0.37916,-0.918223,-0.11472251792360495
1763249279.137091,-0.182226,0.089427,-0.161212,0.965819,-0.065255,0.00095,-0.034053,0.003538,-0.008128,-0.001649,0.113986,0.380828,-0.917593,-0.11423430540574318
1763249279.19196,-0.183703,0.089449,-0.161962,0.965412,-0.092071,-0.00263,-0.056899,0.004008,-0.005042,-0.001389,0.113205,0.383673,-0.916504,-0.11344820344271592
1763249279.22362,-0.18553,0.089377,-0.163162,0.964867,-0.104115,-0.009501,-0.088207,0.003586,-0.001395,-0.00105,0.111932,0.38719,-0.91518,-0.11216709545069692
1763249279.263216,-0.187575,0.089229,-0.164968,0.964178,-0.100577,-0.008207,-0.118149,0.001809,-0.001662,0.001727,0.110177,0.391151,-0.913708,-0.11040111104975733
1763249279.295741,-0.189395,0.088819,-0.167334,0.963452,-0.075357,-0.014821,-0.141741,0.00263,0.001246,0.00031,0.107762,0.394671,-0.912481,-0.10797169585374673
1763249279.351805,-0.190815,0.08828,-0.169997,0.962755,-0.051797,-0.020134,-0.146787,0.002853,0.007122,0.001496,0.105108,0.397431,-0.911593,-0.1053024549970863
1763249279.380355,-0.191972,0.087615,-0.172426,0.962153,-0.043138,-0.029145,-0.110978,0.000754,0.01811,0.003456,0.102397,0.399628,-0.91094,-0.10257682340043858
1763249279.408906,-0.193163,0.087092,-0.17368,0.961737,-0.059403,-0.021861,-0.025352,-0.00503,0.039099,0.006215,0.100423,0.401796,-0.910206,-0.10059257301263659
1763249279.464909,-0.194757,0.086507,-0.170916,0.961963,-0.097839,-0.101313,0.326526,-0.003981,0.095592,0.004608,0.09986,0.404269,-0.909173,-0.10002666728872879
1763249279.49687,-0.196788,0.087305,-0.159618,0.963418,-0.167395,-0.071126,0.778261,0.008432,0.086774,-0.008288,0.1054,0.407048,-0.907305,-0.10559615433382188
1763249279.5517,-0.199318,0.090683,-0.141508,0.965414,-0.237363,-0.001458,0.998661,0.007668,0.028515,-0.014225,0.118683,0.410514,-0.904098,-0.11896336689516218
1763249279.583441,-0.202113,0.095723,-0.121588,0.967059,-0.239882,0.024374,0.990522,-0.009288,-0.015825,-0.004737,0.135991,0.414188,-0.899975,-0.13641366931658036
1763249279.673903,-0.204273,0.099515,-0.106398,0.968013,-0.190476,0.010148,0.756444,-0.009432,-0.031587,-0.000364,0.149194,0.416655,-0.896739,-0.14975301872198593
1763249279.674023,-0.206383,0.103281,-0.091181,0.968724,-0.14107,-0.004078,0.522366,-0.009643,-0.046918,0.003985,0.162466,0.41869,-0.893478,-0.16318939058906104
1763249279.708452,-0.207722,0.104941,-0.082424,0.969044,-0.09302,-0.021086,0.267162,-0.003545,-0.042699,0.003551,0.169143,0.419882,-0.891678,-0.16996008378020463
1763249279.738058,-0.208823,0.105027,-0.078503,0.969123,-0.05503,-0.0603,0.093657,-0.002053,-0.022585,0.006146,0.170781,0.42124,-0.890725,-0.17162223236207858
1763249279.793592,-0.209391,0.103956,-0.077118,0.969227,-0.035046,-0.069832,0.007483,0.001361,-0.008636,6.6e-05,0.169219,0.421928,-0.890697,-0.1700372340734428
1763249279.826909,-0.209918,0.102673,-0.07713,0.969249,-0.028098,-0.063323,-0.053212,0.001067,-0.009395,-2.3e-05,0.166648,0.422765,-0.890785,-0.16742917167987267
1763249279.856945,-0.21049,0.10133,-0.078594,0.969149,-0.013253,-0.048752,-0.130847,-0.001726,-0.010696,0.001454,0.163322,0.42392,-0.890852,-0.16405697258827678
1763249279.912668,-0.210863,0.099664,-0.081692,0.968984,0.007701,-0.053073,-0.211541,1e-06,-0.011533,0.001905,0.158693,0.424929,-0.891208,-0.15936675105804032
1763249279.948146,-0.210963,0.09772,-0.086406,0.968751,0.028666,-0.049408,-0.29427,-0.001606,-0.011576,0.003106,0.152875,0.425629,-0.891891,-0.1534767902031915
1763249279.9795,-0.210718,0.095405,-0.092677,0.968456,0.056537,-0.054124,-0.374905,-0.000396,-0.012665,0.003364,0.145734,0.425826,-0.892992,-0.1462547871434884
1763249280.066959,-0.21007,0.09252,-0.10143,0.967999,0.07576,-0.052004,-0.445518,-0.000877,-0.008989,0.003393,0.136503,0.425464,-0.894621,-0.1369305461162416
1763249280.067255,-0.209405,0.089626,-0.110174,0.96746,0.094984,-0.049884,-0.51613,-0.001364,-0.00514,0.003405,0.127277,0.42493,-0.896234,-0.12762314466725636
1763249280.096964,-0.208305,0.086503,-0.120391,0.966764,0.115592,-0.044235,-0.556556,-0.003203,0.002961,0.00235,0.1171,0.423592,-0.898252,-0.1173693298526589
1763249280.153851,-0.206938,0.083328,-0.131075,0.965946,0.124964,-0.039307,-0.546038,-0.0034,0.012767,0.001243,0.106732,0.421626,-0.900467,-0.10693563456980905
1763249280.186796,-0.205496,0.080447,-0.141195,0.965072,0.12247,-0.02619,-0.486614,-0.002728,0.022119,0.000217,0.097245,0.419354,-0.902599,-0.09739895671941
1763249280.21259,-0.204146,0.078195,-0.149831,0.964241,0.110643,-0.007613,-0.3904,-0.003421,0.026575,-0.000337,0.089622,0.417125,-0.90442,-0.08974237053683122
1763249280.251863,-0.202921,0.076695,-0.156417,0.963574,0.09629,0.005878,-0.274829,-0.003095,0.02888,-0.002322,0.084322,0.415052,-0.905882,-0.0844222217452835
1763249280.310651,-0.201895,0.076028,-0.160839,0.963114,0.073869,0.031561,-0.163696,-0.002796,0.025781,-0.003697,0.081503,0.413353,-0.906916,-0.0815935016894661
1763249280.340658,-0.200994,0.076194,-0.163431,0.962853,0.06113,0.050585,-0.08382,-0.002853,0.018076,-0.000179,0.08103,0.411961,-0.907592,-0.08111889575219262
1763249280.377318,-0.200122,0.076673,-0.164895,0.962747,0.057894,0.042381,-0.043743,-0.001972,0.010852,0.002765,0.081635,0.41062,-0.908145,-0.08172592966929784
1763249280.430771,-0.199245,0.076949,-0.165843,0.962744,0.058111,0.02578,-0.032712,-0.00088,0.004292,0.003187,0.082078,0.409167,-0.908761,-0.08217039701105598
1763249280.460064,-0.198262,0.076879,-0.166765,0.962794,0.063071,0.007971,-0.041261,-0.000465,0.00106,0.005216,0.081912,0.407411,-0.909564,-0.08200387808749195
1763249280.49254,-0.197337,0.076443,-0.167694,0.962857,0.051326,-0.008903,-0.042102,-0.000434,0.000456,0.003593,0.081023,0.405652,-0.910429,-0.08111194294730542
1763249280.548187,-0.196541,0.075746,-0.16853,0.962929,0.048474,-0.025608,-0.038929,-0.001084,0.003315,0.000952,0.07963,0.40404,-0.911269,-0.07971437791195694
1763249280.578233,-0.195875,0.074901,-0.169177,0.963017,0.044141,-0.036004,-0.027187,-0.003122,0.00681,-0.00037,0.077986,0.402604,-0.912046,-0.07806527816120575
1763249280.6106,-0.19535,0.074041,-0.16945,0.963142,0.036067,-0.032727,-0.010807,-0.004043,0.007626,-0.000388,0.076419,0.401391,-0.912713,-0.07649359017672923
1763249280.667014,-0.194948,0.073395,-0.169367,0.963288,0.025599,-0.0196,0.007674,-0.003302,0.00709,-0.004276,0.075365,0.400444,-0.913217,-0.07543650551763831
1763249280.748236,-0.194809,0.073387,-0.169138,0.963357,0.016344,-0.004161,0.005495,-0.002633,0.0028,-0.004266,0.075496,0.400166,-0.913328,-0.07556788203982671
1763249280.748573,-0.19467,0.073379,-0.168908,0.963426,0.007089,0.011279,0.003316,-0.001963,-0.00149,-0.004256,0.075627,0.399889,-0.913438,-0.07569929072893063
1763249280.778236,-0.194588,0.073581,-0.169062,0.9634,0.003628,0.016805,-0.011951,-0.001959,-0.00387,-0.000629,0.075981,0.399811,-0.913443,-0.07605429601558447
1763249280.873582,-0.19436,0.073827,-0.169676,0.963319,0.00605,0.01922,-0.016995,-0.000171,0.000161,-0.001448,0.076282,0.399514,-0.913548,-0.07635616195297178
1763249280.873788,-0.194131,0.074073,-0.17029,0.963238,0.008471,0.021635,-0.022039,0.001618,0.004191,-0.002266,0.076583,0.399217,-0.913652,-0.07665809037707322
1763249280.907029,-0.1939,0.074385,-0.170784,0.963173,0.007326,0.016592,-0.01574,0.001922,0.006197,0.000515,0.077061,0.398926,-0.913739,-0.07713750096311783
1763249280.937213,-0.193669,0.074634,-0.171132,0.963139,0.014731,0.011251,-0.011222,0.00148,0.006156,0.003256,0.077479,0.398605,-0.913844,-0.07755673569083317
1763249280.99205,-0.193358,0.074627,-0.171375,0.963158,0.021975,0.003138,-0.009492,0.001282,0.009432,-0.000875,0.077481,0.398048,-0.914087,-0.07755871213415923
1763249281.025015,-0.193005,0.074525,-0.171593,0.963198,0.023591,-0.002239,-0.008003,-0.000954,0.017389,0.000115,0.077329,0.397379,-0.91439,-0.07740631849018813
1763249281.056235,-0.192568,0.074317,-0.171741,0.963275,0.034933,-0.002175,-0.004127,-0.001776,0.031417,-0.000986,0.077031,0.396519,-0.914789,-0.07710738464467241
1763249281.112754,-0.192049,0.074252,-0.171831,0.963368,0.038722,0.003516,0.002299,-0.002423,0.051915,0.003598,0.077064,0.395545,-0.915208,-0.07714046820934015
1763249281.176923,-0.190952,0.0743,-0.17181,0.963586,0.090098,0.001485,0.014903,-0.003877,0.067898,0.01336,0.077574,0.393529,-0.916033,-0.07765204354859964
1763249281.177143,-0.189856,0.074348,-0.171788,0.963803,0.141474,-0.000547,0.027507,-0.005331,0.083882,0.023117,0.078084,0.391511,-0.916854,-0.07816359639920688
1763249281.21062,-0.187347,0.074111,-0.171437,0.964374,0.206801,-0.000223,0.048088,-0.006371,0.092632,0.023771,0.078705,0.386756,-0.918817,-0.07878650865551537
1763249281.267051,-0.183478,0.073536,-0.170633,0.965304,0.295614,-0.006083,0.066755,-0.005174,0.071241,0.021043,0.079355,0.37932,-0.921856,-0.0794385481774704
1763249281.305739,-0.178145,0.072846,-0.169834,0.966496,0.365525,0.009743,0.066885,-0.004846,0.042697,0.018866,0.080301,0.369095,-0.925916,-0.08038755925200614
1763249281.335643,-0.171831,0.072072,-0.169361,0.967779,0.394462,0.019938,0.047734,-0.00163,0.024786,0.016273,0.081297,0.357001,-0.93056,-0.08138678493376922
1763249281.390741,-0.165205,0.071528,-0.169258,0.968991,0.374138,0.032142,0.03733,-0.003084,0.026476,0.019826,0.082696,0.344377,-0.935182,-0.08279056570842877
1763249281.473643,-0.159002,0.07114,-0.16883,0.970131,0.362416,0.029922,0.053092,-0.001881,0.034479,0.02192,0.084341,0.332527,-0.939315,-0.08444130156007143
1763249281.47389,-0.152793,0.070749,-0.168396,0.971232,0.350694,0.027702,0.068854,-0.000659,0.042535,0.023865,0.085967,0.320623,-0.943298,-0.08607321731722135
1763249281.499916,-0.146358,0.070392,-0.167684,0.972371,0.389461,0.036383,0.071976,0.000958,0.040058,0.026358,0.087811,0.308236,-0.947248,-0.08792428689577386
1763249281.580584,-0.138816,0.070148,-0.167271,0.973565,0.409904,0.045713,0.061142,-0.000919,0.038791,0.027032,0.090147,0.29376,-0.951619,-0.09026953863799116
1763249281.58079,-0.131265,0.069899,-0.166848,0.974703,0.430347,0.055042,0.050308,-0.002771,0.037593,0.027482,0.092459,0.279214,-0.955767,-0.09259125761692287
1763249281.63309,-0.123383,0.069967,-0.166719,0.975749,0.436633,0.080895,0.03619,-0.004639,0.036171,0.028841,0.0954,0.264112,-0.959762,-0.09554533283381358
1763249281.663058,-0.115437,0.070523,-0.166939,0.976643,0.422739,0.11875,0.027924,-0.004549,0.033554,0.032205,0.099209,0.249027,-0.963402,-0.09937245366475653
1763249281.692597,-0.107515,0.072037,-0.167598,0.977324,0.403581,0.18954,0.003212,-0.000443,0.019359,0.037374,0.104769,0.2343,-0.966502,-0.10496166467886223
1763249281.751279,-0.099677,0.075147,-0.168792,0.977715,0.383957,0.261113,-0.012798,-0.00094,-0.005325,0.05923,0.113296,0.22028,-0.968835,-0.11353975880623608
1763249281.782049,-0.092184,0.079282,-0.170312,0.97786,0.31854,0.289935,-0.018181,-0.00543,-0.021297,0.067948,0.123653,0.207292,-0.970433,-0.12397028318077923
1763249281.822323,-0.086308,0.083492,-0.171425,0.977851,0.20861,0.218296,-0.001249,-0.006006,-0.050353,0.05766,0.133695,0.197419,-0.97116,-0.13409649907158452
1763249281.877239,-0.083067,0.086481,-0.172261,0.977725,0.064305,0.144122,-0.017086,0.00022,-0.072824,-0.029734,0.140491,0.192228,-0.971242,-0.14095729116061317
1763249281.906937,-0.081959,0.088039,-0.172517,0.977635,0.032253,0.051652,0.017575,0.002826,-0.112599,-0.098904,0.143861,0.190629,-0.971064,-0.144361852895945
1763249281.936817,-0.079103,0.087103,-0.171955,0.978053,0.205304,-0.043167,0.060308,0.00666,-0.149329,-0.153887,0.143178,0.18469,-0.972311,-0.14367182981250035
1763249281.991857,-0.072221,0.084387,-0.170377,0.979099,0.482561,-0.115378,0.145564,-0.004024,-0.173258,-0.115532,0.140637,0.170177,-0.975326,-0.14110479529371286
1763249282.074585,-0.056013,0.078606,-0.166596,0.98129,0.776073,-0.144576,0.222078,-0.001783,-0.184273,-0.07065,0.135607,0.136121,-0.981367,-0.1360261389890723
1763249282.074787,-0.039788,0.0728,-0.162762,0.983171,1.069585,-0.173775,0.298591,0.000837,-0.195159,-0.026943,0.130198,0.101935,-0.986234,-0.13056869228027737
1763249282.10901,-0.017637,0.066571,-0.158223,0.984999,1.235445,-0.101971,0.307605,0.010284,-0.183201,-0.009546,0.125563,0.055811,-0.990515,-0.1258952451975405
1763249282.138047,0.007257,0.061763,-0.154043,0.986105,1.278475,-0.00489,0.269855,0.014866,-0.15599,-0.005932,0.124045,0.004717,-0.992265,-0.12436538720973231
1763249282.191876,0.032135,0.058974,-0.150819,0.986277,1.182267,0.123709,0.195579,0.021093,-0.114667,-0.019265,0.126022,-0.0456,-0.990979,-0.12635795940610342
1763249282.223332,0.05387,0.058806,-0.148906,0.98563,0.926824,0.187426,0.104426,0.020831,-0.058461,-0.008839,0.131966,-0.088678,-0.98728,-0.13235202440011326
1763249282.254792,0.069004,0.060961,-0.148352,0.984639,0.523312,0.250176,0.007764,0.021125,-0.017353,-0.002624,0.140523,-0.117801,-0.983044,-0.14098968648156887
1763249282.298948,0.075876,0.065345,-0.149045,0.983747,0.116453,0.270773,-0.08157,0.017105,-0.007446,0.0164,0.151184,-0.129807,-0.979946,-0.1517658833806326
1763249282.348053,0.075634,0.070821,-0.150813,0.983117,-0.181213,0.244485,-0.14363,0.009893,-0.015161,0.026814,0.162064,-0.127353,-0.978528,-0.16278189934773094
1763249282.379263,0.070548,0.076327,-0.153291,0.9827,-0.389991,0.202361,-0.181252,0.007825,-0.013001,0.017852,0.171641,-0.115254,-0.978395,-0.17249507044427595
1763249282.434653,0.061996,0.081548,-0.155964,0.982437,-0.551337,0.171995,-0.192054,0.010807,-0.009407,0.00504,0.179569,-0.096377,-0.979013,-0.18054831166107954
1763249282.466754,0.051149,0.086564,-0.158342,0.982252,-0.629881,0.138864,-0.173687,0.008288,-0.010813,0.008692,0.186253,-0.073069,-0.979781,-0.187347017935215
1763249282.498983,0.039747,0.090746,-0.160088,0.982119,-0.603266,0.080172,-0.134955,0.006631,-0.013369,0.013962,0.190972,-0.049018,-0.980371,-0.19215224025547423
1763249282.55129,0.029444,0.093308,-0.161143,0.982069,-0.517124,-0.001729,-0.089953,0.004545,-0.00588,0.018734,0.19276,-0.02776,-0.980853,-0.19397415916774022
1763249282.583373,0.020744,0.093829,-0.161397,0.9822,-0.418415,-0.097126,-0.03452,0.001502,0.002667,0.018636,0.191015,-0.010462,-0.981531,-0.19219615166359644
1763249282.67362,0.014897,0.091279,-0.160119,0.982755,-0.301512,-0.163425,0.024991,2.7e-05,-0.001324,0.011192,0.184181,-4.8e-05,-0.982892,-0.18523860521187546
1763249282.673842,0.009049,0.088725,-0.158835,0.983269,-0.18461,-0.229724,0.084503,-0.001457,-0.005341,0.003587,0.177356,0.010391,-0.984092,-0.17829918921166218
1763249282.711779,0.00575,0.08467,-0.156713,0.983991,-0.079249,-0.258698,0.116203,-0.00165,-0.012789,-0.002026,0.168432,0.015222,-0.985596,-0.16923868124742245
1763249282.741872,0.004384,0.079964,-0.154316,0.984771,-0.00896,-0.255815,0.119591,-0.002806,-0.019765,-0.005887,0.158845,0.016045,-0.987173,-0.1595207130634264
1763249282.783039,0.004206,0.075388,-0.152191,0.985463,0.022509,-0.225895,0.094588,-0.002426,-0.024544,-0.008872,0.149865,0.014657,-0.988598,-0.15043170268351255
1763249282.823401,0.004427,0.071528,-0.150669,0.985983,0.020869,-0.175002,0.057758,-0.001942,-0.025209,-0.009635,0.142384,0.012824,-0.989728,-0.14286959887957726
1763249282.85796,0.004621,0.068687,-0.149936,0.986296,0.004672,-0.120662,0.016291,-0.001475,-0.021592,-0.011367,0.136878,0.011482,-0.990521,-0.1373091093057664
1763249282.949511,0.004434,0.067541,-0.150216,0.986333,-0.008184,-0.070346,-0.007619,-0.001649,-0.017869,-0.011452,0.134567,0.011545,-0.990837,-0.13497650723095517
1763249282.949749,0.004247,0.066393,-0.150496,0.986369,-0.021039,-0.02003,-0.031529,-0.001823,-0.014144,-0.011542,0.132255,0.011606,-0.991148,-0.13264359107530962
1763249282.979313,0.003992,0.066267,-0.151137,0.986281,-0.023404,0.017393,-0.037191,-0.000441,-0.010961,-0.009327,0.131922,0.012156,-0.991185,-0.13230775109562273
1763249283.034693,0.00389,0.066808,-0.151825,0.986139,-0.013113,0.03722,-0.036266,0.000415,-0.008932,-0.005063,0.132946,0.012615,-0.991043,-0.1333407764460451
1763249283.055958,0.004047,0.06759,-0.152494,0.985982,0.006086,0.041771,-0.035101,0.001503,-0.01014,-0.000628,0.134519,0.012634,-0.99083,-0.1349280977974774
1763249283.109218,0.004491,0.068292,-0.153158,0.985829,0.015352,0.035117,-0.031433,0.001866,-0.011033,0.000718,0.136025,0.012065,-0.990632,-0.13644799698425034
1763249283.139175,0.005089,0.068859,-0.153764,0.985692,0.020316,0.029415,-0.028784,0.002492,-0.011987,0.000934,0.137313,0.011143,-0.990465,-0.13774820966487178
1763249283.194356,0.005595,0.069417,-0.154296,0.985567,0.00691,0.027906,-0.024251,0.002497,-0.009224,0.001246,0.138557,0.010393,-0.9903,-0.13900420131822686
1763249283.274756,0.005552,0.069731,-0.154693,0.985483,-0.003542,0.014625,-0.020424,0.001878,-0.008603,0.002542,0.139155,0.01063,-0.990214,-0.1396079997351218
1763249283.274984,0.00551,0.070045,-0.15509,0.985398,-0.013994,0.001344,-0.016597,0.001259,-0.007982,0.003838,0.139753,0.010867,-0.990127,-0.14021192924763776
1763249283.306779,0.005259,0.06999,-0.155327,0.985366,-0.016477,-0.020237,-0.00562,0.000826,-0.005057,0.003357,0.139565,0.011379,-0.990148,-0.1400220358979773
1763249283.339297,0.004926,0.069546,-0.155238,0.985414,-0.019291,-0.030914,0.012821,0.000264,-0.002446,0.000943,0.138593,0.011885,-0.990278,-0.13904057697703429
1763249283.381096,0.00461,0.068993,-0.154767,0.985528,-0.011872,-0.034595,0.029905,-0.000598,-0.005539,-0.000758,0.137417,0.012269,-0.990437,-0.13785324183426137
1763249283.437053,0.004525,0.068408,-0.154073,0.985678,0.002236,-0.024981,0.037076,-0.000737,-0.009022,-0.003388,0.136251,0.012159,-0.9906,-0.1366760924976215
1763249283.467169,0.004739,0.067996,-0.153466,0.9858,0.010443,-0.014117,0.024111,-0.000894,-0.012129,-0.003539,0.135515,0.011526,-0.990708,-0.1359332728098371
1763249283.496543,0.005074,0.067755,-0.153176,0.98586,0.012098,-0.003964,0.00332,-0.001025,-0.01379,-0.004007,0.135148,0.010752,-0.990767,-0.13556284256130968
1763249283.547328,0.00541,0.067718,-0.153267,0.985847,0.009438,0.00906,-0.011849,-0.001194,-0.011378,-0.004784,0.135177,0.010092,-0.99077,-0.1355921093070244
1763249283.580572,0.005784,0.067955,-0.15353,0.985788,0.009294,0.018316,-0.01551,-0.000706,-0.009729,-0.003381,0.135754,0.009463,-0.990697,-0.13617452006648348
1763249283.633051,0.006181,0.068334,-0.153795,0.985718,0.010598,0.019001,-0.009147,5.6e-05,-0.007525,0.000523,0.136618,0.008834,-0.990584,-0.1370466501984966
1763249283.664609,0.00662,0.068627,-0.15398,0.985665,0.012395,0.01626,-0.005393,0.001156,-0.006894,0.000578,0.137326,0.008084,-0.990493,-0.13776131862374347
1763249283.698336,0.007037,0.068812,-0.154057,0.985638,0.012476,0.008447,0.001346,0.000586,-0.005866,0.000821,0.137817,0.00733,-0.990431,-0.13825698628647035
1763249283.751947,0.007367,0.068882,-0.153943,0.985648,0.00933,0.000281,0.012966,0.000306,-0.001981,0.000739,0.138055,0.006686,-0.990402,-0.13849733980734408
1763249283.78361,0.007629,0.068846,-0.153574,0.985706,0.013287,-0.00652,0.023642,-0.000652,-0.003135,0.000299,0.138066,0.006105,-0.990404,-0.138508476318432
1763249283.874631,0.008144,0.068643,-0.153028,0.985801,0.021556,-0.006359,0.028432,-0.00077,-0.004823,-0.001023,0.13783,0.004953,-0.990444,-0.1382701019293592
1763249283.87484,0.008658,0.068441,-0.152483,0.985895,0.029826,-0.006197,0.033223,-0.000886,-0.006512,-0.002346,0.137592,0.003801,-0.990482,-0.13802983767223728
1763249283.906732,0.009457,0.06824,-0.151984,0.985979,0.037832,-0.000786,0.025714,0.000178,-0.006282,-0.004,0.137441,0.002094,-0.990508,-0.13787739541600372
1763249283.936678,0.010237,0.06817,-0.151655,0.986027,0.027559,0.004243,0.01382,0.001164,-0.005516,-0.002976,0.13754,0.000488,-0.990496,-0.13797739289593838
1763249283.996669,0.010724,0.068269,-0.151585,0.986026,0.009743,0.010859,-0.003262,0.002646,-0.005561,-0.002373,0.13788,-0.000451,-0.990449,-0.13832062835188585
1763249284.072909,0.010727,0.068539,-0.15187,0.985963,-0.001091,0.011415,-0.009608,0.002852,-0.004974,-0.002275,0.138412,-0.000336,-0.990375,-0.1388577564629449
1763249284.073104,0.010731,0.068809,-0.152155,0.9859,-0.011924,0.011972,-0.015954,0.003058,-0.004388,-0.002176,0.138943,-0.00022,-0.9903,-0.13939403106907197
1763249284.102873,0.010528,0.069139,-0.152393,0.985842,-0.023477,0.014553,-0.008268,0.003076,-0.004552,-0.002537,0.139529,0.000314,-0.990218,-0.1399857368925252
1763249284.161746,0.010201,0.069539,-0.152483,0.985804,-0.026385,0.018414,-0.003313,0.003297,-0.005971,-0.002995,0.140214,0.001096,-0.990121,-0.14067749262520116
1763249284.191136,0.009868,0.06998,-0.152483,0.985776,-0.022381,0.015715,-0.004355,0.001995,-0.009509,-0.000791,0.140979,0.001886,-0.990011,-0.1414501919840154
1763249284.221645,0.009593,0.070266,-0.152574,0.985744,-0.019383,0.009043,-0.009216,0.001745,-0.008935,-0.001166,0.141457,0.002528,-0.989941,-0.14193308483251427
1763249284.276722,0.00936,0.070417,-0.152737,0.98571,-0.019654,0.003373,-0.008044,0.003156,-0.007925,-0.001537,0.141681,0.003058,-0.989908,-0.14215928883492357
1763249284.306719,0.009152,0.070489,-0.152828,0.985693,-0.016093,0.00064,-0.001252,0.002829,-0.008053,-0.000986,0.141759,0.003503,-0.989895,-0.14223813490467163
1763249284.340408,0.008949,0.070513,-0.152774,0.985702,-0.018258,-0.002682,0.004383,0.002226,-0.007526,-0.000449,0.141744,0.003903,-0.989896,-0.1422229325186009
1763249284.380374,0.008615,0.07051,-0.15268,0.985719,-0.025067,-0.002087,0.002459,0.002187,-0.008651,-0.000534,0.141637,0.004548,-0.989908,-0.1421149216715579
1763249284.476142,0.007999,0.07049,-0.152744,0.985716,-0.034499,-0.004197,-0.002711,0.001635,-0.006087,-0.000782,0.14141,0.005765,-0.989934,-0.141885629671968
1763249284.476368,0.007383,0.07047,-0.152809,0.985712,-0.043931,-0.006308,-0.007882,0.001083,-0.003523,-0.00103,0.141183,0.006983,-0.989959,-0.14165626664910205
1763249284.509372,0.006581,0.070476,-0.152906,0.985702,-0.04567,-0.00962,-0.006325,0.002049,-0.002006,-0.000158,0.14095,0.008578,-0.98998,-0.14142086607806864
1763249284.539332,0.005768,0.070496,-0.152932,0.985702,-0.044916,-0.007275,5.7e-05,0.001389,-0.001018,2.5e-05,0.140741,0.010191,-0.989994,-0.14120982430249182
1763249284.603045,0.004998,0.07048,-0.152865,0.985718,-0.039338,-0.00467,0.003455,0.001966,-0.002998,-0.00249,0.140475,0.011695,-0.990015,-0.1409411769268625
1763249284.634976,0.004393,0.07053,-0.152844,0.98572,-0.030849,-0.000559,-0.004056,0.002683,-0.003566,-0.002268,0.140388,0.012899,-0.990013,-0.14085321993652608
1763249284.665041,0.003871,0.07061,-0.152945,0.985701,-0.028052,-0.001944,-0.008793,0.001659,-0.001679,-0.000865,0.140384,0.013968,-0.989999,-0.1408491886093558
1763249284.748125,0.003404,0.070547,-0.153087,0.985685,-0.02372,-0.005646,-0.006266,0.001093,-0.000812,-0.000298,0.140117,0.014888,-0.990023,-0.1405795817841856
1763249284.748345,0.002938,0.070485,-0.153229,0.985669,-0.019388,-0.009348,-0.003738,0.000528,5.5e-05,0.000269,0.13985,0.015809,-0.990047,-0.14030985309567062
1763249284.783057,0.00257,0.070345,-0.153236,0.985679,-0.014615,-0.010221,0.002589,0.000488,-0.001743,-0.001371,0.139464,0.016492,-0.99009,-0.13992007582837293
1763249284.836921,0.002276,0.070158,-0.153143,0.985708,-0.010908,-0.008637,0.006231,0.000471,-0.002503,-0.002065,0.139007,0.017002,-0.990145,-0.1394586695109396
1763249284.866853,0.002112,0.069938,-0.15303,0.985741,-0.004777,-0.010323,0.004564,0.001265,-0.00393,-0.00218,0.138527,0.017242,-0.990209,-0.13897385791655445
1763249284.921871,0.002056,0.069714,-0.152958,0.985768,-0.002178,-0.011038,0.003858,0.000156,-0.003216,-0.001712,0.138073,0.017274,-0.990271,-0.13851557027159034
1763249284.953398,0.001995,0.069469,-0.15291,0.985793,-0.005956,-0.008874,0.001882,0.00079,-0.003698,-0.00251,0.137574,0.017312,-0.99034,-0.13801173235930514
1763249284.984693,0.001815,0.069271,-0.152905,0.985808,-0.011389,-0.00584,-0.000454,0.000874,-0.00426,-0.002459,0.137131,0.017605,-0.990396,-0.13756453098997543
1763249285.079315,0.001522,0.069217,-0.152936,0.985808,-0.014468,-0.00395,-0.002914,0.000661,-0.004864,-0.001949,0.136936,0.01817,-0.990413,-0.13736764317089353
1763249285.079521,0.00123,0.069164,-0.152968,0.985807,-0.017547,-0.00206,-0.005374,0.000449,-0.005468,-0.001439,0.13674,0.018735,-0.99043,-0.13716972083734097
1763249285.109194,0.000905,0.069158,-0.153062,0.985793,-0.016901,-0.00274,-0.00685,0.000738,-0.004189,-0.00044,0.136628,0.019386,-0.990433,-0.1370566499462706
1763249285.139049,0.000508,0.06913,-0.153198,0.985774,-0.022171,-0.005338,-0.007418,0.000839,-0.00197,-0.0001,0.136449,0.02018,-0.990442,-0.136875932807406
1763249285.194583,-1.4e-05,0.069067,-0.153265,0.985768,-0.029143,-0.007376,-0.002751,0.001773,-0.000486,-0.000642,0.136164,0.021198,-0.99046,-0.13658824209830073
1763249285.226748,-0.00066,0.068978,-0.153218,0.985782,-0.033976,-0.011791,0.003131,0.001099,-0.000737,0.000201,0.135793,0.022439,-0.990483,-0.13621384497849126
1763249285.281231,-0.001335,0.068822,-0.153056,0.985817,-0.033773,-0.015282,0.01007,0.000538,7.5e-05,0.000476,0.135283,0.023699,-0.990524,-0.13569901935533665
1763249285.349436,-0.001926,0.068625,-0.152742,0.985879,-0.032728,-0.011822,0.010382,0.000612,0.000224,-0.000929,0.134724,0.024762,-0.990574,-0.1351348795644408
1763249285.349666,-0.002517,0.068428,-0.152429,0.985939,-0.031683,-0.008362,0.010694,0.000686,0.000372,-0.002335,0.134165,0.025825,-0.990622,-0.1345708554439035
1763249285.406955,-0.003139,0.068351,-0.15218,0.985981,-0.037235,-0.006508,0.005132,0.001852,-0.000358,-0.000746,0.13383,0.026994,-0.990637,-0.13423269281653957
1763249285.436834,-0.003933,0.068322,-0.152076,0.985997,-0.045505,-0.004565,-0.002193,0.001839,-0.000501,-0.000147,0.133533,0.028536,-0.990633,-0.13393311786713996
1763249285.466753,-0.004855,0.068331,-0.152108,0.985987,-0.048503,-0.008859,-0.005021,0.000863,0.000172,0.000324,0.133269,0.030362,-0.990615,-0.1336666394113733
1763249285.521895,-0.005854,0.068277,-0.152073,0.985991,-0.053056,-0.009649,0.001105,0.000923,0.001128,-0.001012,0.13286,0.032311,-0.990608,-0.1332540077219475
1763249285.553395,-0.0069,0.06827,-0.151856,0.986018,-0.053656,-0.008818,0.011818,0.00052,0.000453,-0.001209,0.132535,0.034341,-0.990583,-0.13292614002881362
1763249285.58606,-0.007836,0.068204,-0.151505,0.986069,-0.043539,-0.009455,0.015753,0.00055,-0.001141,-0.001593,0.132133,0.03612,-0.990574,-0.13252049817751801
1763249285.649474,-0.008587,0.068152,-0.151154,0.986121,-0.03538,-0.007697,0.013212,0.000499,-0.002223,-0.002145,0.131816,0.037539,-0.990563,-0.13220076369490683
1763249285.679257,-0.009243,0.068056,-0.150869,0.986165,-0.030941,-0.009678,0.008439,0.00157,-0.002651,-0.001827,0.131441,0.038766,-0.990566,-0.13182241592793478
1763249285.717561,-0.009816,0.067949,-0.150705,0.986192,-0.029668,-0.009502,0.005416,0.00132,-0.001371,-0.001478,0.131063,0.039841,-0.990573,-0.13144117401393243
1763249285.747149,-0.010366,0.067807,-0.15058,0.986215,-0.026823,-0.010186,0.002912,0.000696,-0.00064,-0.001413,0.130623,0.040867,-0.990589,-0.13099740045479089
1763249285.801794,-0.010884,0.067701,-0.150477,0.986233,-0.025448,-0.009713,0.00258,0.000242,-0.000667,-0.001003,0.130263,0.041844,-0.990596,-0.13063424806789573
1763249285.833566,-0.01141,0.067594,-0.15038,0.986249,-0.025508,-0.008469,0.001498,4.3e-05,-0.000679,-0.000823,0.129898,0.042835,-0.990602,-0.13026606483624473
1763249285.865505,-0.011991,0.067486,-0.150324,0.986258,-0.031138,-0.007679,0.000149,0.000615,0.000319,-0.002649,0.129512,0.043941,-0.990604,-0.12987678927097812
1763249285.947595,-0.012553,0.067447,-0.150306,0.986256,-0.026054,-0.007597,-0.000202,0.000626,0.00065,-0.002187,0.129266,0.045037,-0.990587,-0.12962869215089035
1763249285.947804,-0.013116,0.067407,-0.150287,0.986255,-0.02097,-0.007514,-0.000553,0.000637,0.00098,-0.001726,0.129019,0.046132,-0.990568,-0.129379711021362
1763249286.00338,-0.013539,0.067342,-0.150272,0.986256,-0.014394,-0.007303,0.001508,-0.00043,0.001889,-0.000555,0.128764,0.046944,-0.990564,-0.12912244141591542
1763249286.034516,-0.013825,0.06723,-0.150189,0.986272,-0.00835,-0.004203,0.00353,0.000212,0.000302,-0.003663,0.12846,0.047466,-0.990578,-0.1288159719962037
1763249286.066736,-0.013987,0.06729,-0.150173,0.986268,-0.00621,0.003024,-0.001397,0.00039,0.000441,-0.002763,0.128532,0.0478,-0.990553,-0.12888852241880583
1763249286.121681,-0.014111,0.067412,-0.150325,0.986235,-0.005979,0.002435,-0.013606,0.000628,0.000447,-4e-06,0.128725,0.048101,-0.990513,-0.12908318618247933
1763249286.160559,-0.014246,0.067488,-0.1507,0.98617,-0.007145,0.000983,-0.020714,0.000649,0.001691,0.000757,0.128816,0.04844,-0.990485,-0.12917490499431317
1763249286.190447,-0.01441,0.067538,-0.151116,0.986101,-0.008653,-0.001765,-0.015389,6.5e-05,0.003653,0.000546,0.128844,0.048831,-0.990462,-0.12920316070065627
1763249286.249327,-0.014596,0.067545,-0.151333,0.986064,-0.009686,0.002767,-0.006389,0.001219,0.003656,-0.002773,0.128789,0.049229,-0.990449,-0.12914775665920644
1763249286.279342,-0.014799,0.067603,-0.151387,0.986049,-0.006331,0.003512,-0.000181,0.000419,0.000871,-0.001994,0.128838,0.049654,-0.990422,-0.12919709262267157
1763249286.309246,-0.01487,0.067611,-0.151413,0.986044,0.00127,0.002618,-0.001822,0.001756,-0.000534,-0.001765,0.128831,0.049799,-0.990415,-0.12919011491871157
1763249286.339206,-0.014757,0.067634,-0.151525,0.986026,0.006727,0.002342,-0.00765,0.001103,-0.001549,-0.001835,0.128905,0.049599,-0.990416,-0.12926466088181107
1763249286.394625,-0.014589,0.06765,-0.151736,0.985995,0.004653,0.00212,-0.01095,0.002239,-0.001275,-0.002069,0.128978,0.049299,-0.990421,-0.1293383364999065
1763249286.426867,-0.014538,0.067721,-0.151981,0.985953,-0.002134,0.003169,-0.009529,0.001005,-0.000572,-0.000929,0.129121,0.049253,-0.990405,-0.12948249799312153
1763249286.481762,-0.014626,0.067762,-0.152177,0.985919,-0.007733,0.000481,-0.006816,0.000452,-0.000257,-0.000417,0.129164,0.049463,-0.990389,-0.12952585173793366
1763249286.547993,-0.014887,0.067801,-0.152246,0.985902,-0.010867,0.000721,-0.003833,0.00065,-0.000543,-0.00094,0.129157,0.049998,-0.990363,-0.12951879887220902
1763249286.54819,-0.015147,0.067839,-0.152316,0.985884,-0.014001,0.000961,-0.000851,0.000848,-0.000828,-0.001462,0.129149,0.050533,-0.990337,-0.12951071701485664
1763249286.642571,-0.015392,0.067879,-0.1523,0.98588,-0.012092,0.000606,-2.6e-05,0.000628,-4.7e-05,-0.000461,0.129152,0.051026,-0.990311,-0.1295137848989791
1763249286.642812,-0.015637,0.067918,-0.152284,0.985876,-0.010184,0.000251,0.000798,0.000409,0.000734,0.00054,0.129156,0.051518,-0.990285,-0.12951781937557535
1763249286.672993,-0.015895,0.067953,-0.152242,0.985876,-0.012031,-0.0006,0.00232,0.000716,0.001352,-0.000873,0.129147,0.052032,-0.990259,-0.12950878205346242
1763249286.7176,-0.016124,0.067978,-0.15217,0.985882,-0.006867,-0.002988,0.004029,0.000824,0.000446,-0.000311,0.129129,0.05248,-0.990238,-0.12949059216048392
1763249286.747395,-0.016231,0.067898,-0.152082,0.985899,-3.3e-05,-0.008747,0.002671,0.001527,0.001806,-0.000426,0.128944,0.052657,-0.990253,-0.12930399520774954
1763249286.80324,-0.016271,0.067798,-0.151999,0.985918,-0.001133,-0.008374,0.005839,-6.4e-05,0.001868,-0.000363,0.128741,0.052694,-0.990277,-0.12909934610759574
1763249286.84934,-0.016245,0.067758,-0.151849,0.985945,0.005913,0.00038,0.006484,0.000221,-0.000816,-0.001567,0.128677,0.052612,-0.99029,-0.12903476793693103
1763249286.879346,-0.016133,0.067827,-0.151739,0.985959,0.003376,0.006281,0.004279,0.000276,-3.5e-05,-0.001085,0.128852,0.052398,-0.990279,-0.12921118442969654
1763249286.911159,-0.016071,0.067937,-0.151734,0.985953,0.001061,0.005408,-0.003573,0.001442,-0.000851,0.000129,0.129088,0.052307,-0.990253,-0.12944918151979612
1763249286.943106,-0.01606,0.068038,-0.151869,0.985925,0.001291,0.002997,-0.005334,0.001082,0.001446,0.001172,0.129283,0.052333,-0.990226,-0.12964585338396775
1763249286.998065,-0.016028,0.068022,-0.151921,0.985919,0.002456,-0.003999,0.00267,0.00071,0.00296,0.000454,0.129258,0.052272,-0.990232,-0.12962070452627916
1763249287.028006,-0.016001,0.067957,-0.151786,0.985945,0.003896,-0.005138,0.011674,-0.000171,0.001521,0.000124,0.129147,0.052183,-0.990252,-0.12950866009318618
1763249287.083412,-0.015966,0.067941,-0.151526,0.985986,0.0035,-0.003725,0.012502,0.000986,-0.001629,-0.0008,0.129139,0.052074,-0.990258,-0.12950069328770547
1763249287.149848,-0.015782,0.06797,-0.151534,0.985986,0.006028,-0.002642,0.002812,0.001088,-0.001973,-0.00065,0.129252,0.051721,-0.990262,-0.12961461703454732
1763249287.149999,-0.015598,0.068,-0.151543,0.985986,0.008555,-0.001559,-0.006879,0.001191,-0.002317,-0.0005,0.129366,0.051368,-0.990266,-0.12972951609035194
1763249287.203485,-0.015388,0.068032,-0.151748,0.985955,0.005434,0.001149,-0.008316,0.001071,-5.9e-05,-0.001333,0.129482,0.05099,-0.99027,-0.12984654844186885
1763249287.234625,-0.015255,0.068113,-0.151911,0.985927,0.000361,0.003601,-0.005065,0.000925,-0.000564,-0.000898,0.129675,0.050774,-0.990256,-0.13004116920432032
1763249287.27304,-0.0152,0.068229,-0.151997,0.985906,-0.002609,0.005728,-0.004472,0.002337,-0.00129,-0.000446,0.129913,0.050712,-0.990228,-0.130281197184137
1763249287.303006,-0.015216,0.068376,-0.15215,0.985872,-0.003791,0.003519,-0.011546,0.002495,-0.001459,-0.000322,0.13019,0.050809,-0.990186,-0.13056065387002908
1763249287.357947,-0.015266,0.068448,-0.152416,0.985825,-0.004213,0.003242,-0.014072,0.001931,-0.000541,-0.001165,0.130303,0.050964,-0.990164,-0.13067451680185416
1763249287.387927,-0.015339,0.068522,-0.152661,0.985781,-0.005265,0.000261,-0.009211,0.001424,0.001529,-0.00017,0.130412,0.051162,-0.990139,-0.13078451197636537
1763249287.449576,-0.015466,0.068616,-0.152787,0.985753,-0.008047,0.000427,-0.003629,0.001302,0.00245,-0.000443,0.130551,0.051459,-0.990105,-0.13092474848786553
1763249287.47738,-0.015658,0.06867,-0.152823,0.98574,-0.007713,-0.000821,1.5e-05,0.001033,0.000599,-0.000488,0.130597,0.051858,-0.990078,-0.13097116078587082
1763249287.508171,-0.015762,0.068653,-0.152858,0.985734,-0.001113,-0.004324,-0.002424,0.001143,0.000447,-0.000508,0.130529,0.052062,-0.990077,-0.13090247735287536
1763249287.563535,-0.015793,0.068613,-0.152907,0.985729,0.001081,-0.004878,-0.002987,0.001367,0.00071,-0.000883,0.130438,0.052118,-0.990086,-0.13081069875355744
1763249287.595865,-0.015715,0.068585,-0.152948,0.985726,0.005523,0.000752,-0.005266,0.000563,-0.000816,-0.002239,0.130405,0.051962,-0.990098,-0.13077748563400557
1763249287.638204,-0.015655,0.06871,-0.153025,0.985707,-0.000107,0.008253,-0.004003,-5.4e-05,0.000116,-0.001489,0.130664,0.051891,-0.990068,-0.13103866563857222
1763249287.668731,-0.015697,0.068899,-0.153129,0.985676,-0.004999,0.007055,-0.005774,-2.5e-05,5.4e-05,-0.000693,0.131016,0.052044,-0.990013,-0.13139377665306684
1763249287.748474,-0.015835,0.069019,-0.153273,0.985643,-0.005697,0.003896,-0.003619,-1.7e-05,3.5e-05,-0.000452,0.131203,0.052372,-0.989971,-0.1315823967493371
1763249287.748549,-0.015973,0.06914,-0.153416,0.98561,-0.006396,0.000736,-0.001463,-8e-06,1.7e-05,-0.000211,0.13139,0.0527,-0.989929,-0.13177100240327067
1763249287.803737,-0.016111,0.069197,-0.153414,0.985605,-0.005055,-0.003625,0.003667,0.000108,-2.9e-05,-0.000825,0.131459,0.05299,-0.989904,-0.1318406531514014
1763249287.83701,-0.016198,0.069242,-0.153276,0.985622,-0.000863,-0.002201,0.004949,0.001329,-0.001601,-0.001227,0.131526,0.053156,-0.989886,-0.1319082662892491
1763249287.888325,-0.016237,0.069318,-0.15313,0.985638,0.001619,0.002164,0.003213,0.001384,-0.003326,-0.000329,0.131673,0.053238,-0.989863,-0.13205643116756827
1763249287.918241,-0.016213,0.069376,-0.153118,0.985636,0.001426,0.000798,-0.002839,0.001499,-0.002616,-0.000714,0.131794,0.053206,-0.989848,-0.1321785761407764
1763249287.948176,-0.016189,0.069439,-0.153207,0.985619,-0.001677,0.001933,-0.003998,0.000875,-0.000898,-0.000696,0.13192,0.05319,-0.989832,-0.13230569592609454
1763249288.00322,-0.0162,0.069503,-0.153279,0.985603,-0.00198,0.001304,-0.000596,0.001381,-0.000746,-0.000162,0.132038,0.05324,-0.989814,-0.13242468166464175
1763249288.053216,-0.016233,0.069602,-0.15327,0.985596,-0.002001,0.001739,0.001724,0.001618,-0.000674,8.9e-05,0.132224,0.053334,-0.989784,-0.13261234135185102
1763249288.08318,-0.016307,0.069668,-0.15326,0.985592,-0.003341,7.7e-05,0.000479,0.002214,-0.000802,0.000289,0.13233,0.0535,-0.989761,-0.13271926451978458
1763249288.1132,-0.016412,0.069682,-0.153291,0.985585,-0.004958,-0.001911,-0.003158,0.001868,0.000118,-0.000502,0.132324,0.053713,-0.98975,-0.13271324641104104
1763249288.143156,-0.016567,0.069688,-0.153305,0.985579,-0.006504,-0.003359,-0.001266,0.001937,0.001243,-0.000873,0.132287,0.054023,-0.989738,-0.13267592801754846
1763249288.198226,-0.016679,0.069661,-0.153308,0.985579,-0.004093,-0.003553,0.001561,0.001546,0.002299,-0.00077,0.132198,0.054237,-0.989738,-0.13258616419837532
1763249288.229196,-0.016739,0.069545,-0.153285,0.98559,0.00151,-0.007438,0.001553,0.001191,0.002468,-0.000362,0.131954,0.054316,-0.989767,-0.13233990595755993
1763249288.283828,-0.016693,0.069367,-0.153228,0.985612,0.006868,-0.01325,0.00364,0.000563,0.001167,-0.000171,0.131623,0.054164,-0.989819,-0.13200604640461266
1763249288.350771,-0.016543,0.069217,-0.1531,0.985645,0.006248,-0.009265,0.003647,0.00048,0.000979,-0.000347,0.131382,0.053804,-0.989871,-0.13176288938544026
1763249288.350983,-0.016392,0.069067,-0.152972,0.985678,0.005627,-0.00528,0.003654,0.000398,0.00079,-0.000522,0.13114,0.053445,-0.989922,-0.13151884770176017
1763249288.386897,-0.01632,0.068996,-0.152911,0.985693,0.002187,-0.005402,-0.001141,0.000729,0.000576,0.000193,0.131026,0.053274,-0.989946,-0.1314038963659946
1763249288.441946,-0.016295,0.068886,-0.152972,0.985692,0.00208,-0.0052,-0.005397,0.000406,0.000636,0.00045,0.130815,0.0532,-0.989978,-0.13119104921045632
1763249288.471983,-0.016257,0.0687,-0.153042,0.985695,0.003734,-0.009505,-0.00032,0.000702,0.00128,-0.000859,0.130459,0.053076,-0.990032,-0.1308319239275256
1763249288.528618,-0.016187,0.068484,-0.152975,0.985721,0.00635,-0.009875,0.007404,0.000135,0.001059,-0.00156,0.130059,0.052864,-0.990096,-0.13042848258657044
1763249288.547394,-0.01606,0.068296,-0.152818,0.985761,0.009328,-0.009863,0.007683,-0.000174,-0.000935,-0.002172,0.129739,0.052536,-0.990155,-0.13010580516850132
1763249288.608305,-0.015885,0.068179,-0.152702,0.98579,0.012155,-0.004999,0.002675,0.000247,-0.002458,-0.000521,0.129568,0.052141,-0.990199,-0.12993325494202754
1763249288.650788,-0.01568,0.06805,-0.152728,0.985798,0.011221,-0.005705,-0.005023,0.000438,-0.00394,-0.001157,0.129379,0.0517,-0.990247,-0.12974262935874442
1763249288.680749,-0.015471,0.067931,-0.152892,0.985784,0.007199,-0.003334,-0.007928,0.000487,-0.001598,-0.001619,0.129201,0.051274,-0.990292,-0.129563172970329
1763249288.722553,-0.015303,0.067868,-0.153017,0.985771,0.005355,-0.002234,-0.003476,0.000878,-0.000602,-0.00105,0.12912,0.050941,-0.99032,-0.12948145650377885
1763249288.750162,-0.015204,0.067852,-0.153079,0.985764,0.002906,-0.000426,-0.002377,0.001254,-0.001323,-0.001052,0.129118,0.050748,-0.99033,-0.12947946149320091
1763249288.805834,-0.015192,0.067838,-0.153156,0.985754,-0.000306,-0.001144,-0.005717,0.000435,-0.000958,-0.000152,0.129089,0.050731,-0.990335,-0.12945017182932117
1763249288.835236,-0.015274,0.067808,-0.153306,0.985731,-0.004535,-0.002859,-0.006939,0.000851,-0.000297,-0.000346,0.128997,0.050903,-0.990338,-0.12935741704787806
1763249288.865568,-0.015422,0.067796,-0.153438,0.985709,-0.008327,-0.000836,-0.004311,0.000972,0.00118,-0.000871,0.128921,0.051209,-0.990332,-0.12928079269497714
1763249288.948227,-0.015601,0.067805,-0.153475,0.9857,-0.005095,-0.002169,-0.004131,0.000952,0.000673,-0.000521,0.128883,0.051568,-0.990318,-0.1292425138713106
1763249288.948436,-0.015779,0.067815,-0.153512,0.985691,-0.001864,-0.003503,-0.003952,0.000933,0.000167,-0.000171,0.128844,0.051928,-0.990304,-0.1292032198437534
1763249289.003459,-0.015819,0.067734,-0.153572,0.985686,0.001703,-0.004064,-0.002837,0.000429,0.001594,-0.000161,0.128671,0.051989,-0.990324,-0.12902867674596766
1763249289.036899,-0.015793,0.067619,-0.153594,0.985691,0.004504,-0.002444,0.001386,0.001092,0.001983,-0.002894,0.128452,0.051906,-0.990356,-0.12880794473082594
1763249289.09181,-0.015655,0.067593,-0.153577,0.985698,0.004359,0.001848,0.000132,0.001442,0.001408,-0.002726,0.128444,0.051625,-0.990372,-0.12879984265775166
1763249289.122575,-0.015582,0.067681,-0.153591,0.985691,0.001775,0.004016,-0.004471,0.001308,-0.000273,-0.000458,0.128639,0.051509,-0.990353,-0.12899643928934243
1763249289.205576,-0.015592,0.067662,-0.153777,0.985663,0.001122,0.000196,-0.003312,0.000617,0.001385,5.7e-05,0.128589,0.051546,-0.990357,-0.1289460935250239
1763249289.205844,-0.015601,0.067644,-0.153963,0.985635,0.000469,-0.003624,-0.002154,-7.5e-05,0.003044,0.000572,0.12854,0.051583,-0.990362,-0.12889661086839915
1763249289.250594,-0.015623,0.067563,-0.15394,0.985644,-0.001063,-0.001342,0.007362,0.001372,0.002883,-0.002093,0.128376,0.051599,-0.990382,-0.1287312969959066
1763249289.279284,-0.015668,0.067506,-0.153705,0.985684,-0.002686,-0.001439,0.014781,0.001118,-0.000239,-0.00374,0.128263,0.051639,-0.990395,-0.12861729811898426
1763249289.307603,-0.015668,0.067468,-0.153482,0.985721,0.00174,-0.000227,0.009079,0.001132,-0.00255,-0.003763,0.1282,0.051598,-0.990405,-0.1285538112948381
1763249289.363346,-0.015574,0.067478,-0.153414,0.985732,0.004751,8.4e-05,0.000715,0.001149,-0.002934,-0.002376,0.128252,0.051408,-0.990408,-0.1286062630965239
1763249289.394584,-0.015496,0.067452,-0.153442,0.985731,0.000214,-0.000745,-0.001367,0.001604,-0.001779,-0.001698,0.128224,0.05125,-0.99042,-0.12857800614729772
1763249289.426837,-0.015527,0.067463,-0.15344,0.98573,-0.006713,-0.000326,0.00186,0.000726,-0.001222,-0.001179,0.128236,0.051313,-0.990415,-0.12859012965006006
1763249289.484531,-0.015667,0.067502,-0.153339,0.985741,-0.009977,0.000582,0.004133,0.001008,-0.001931,-0.000767,0.128275,0.051588,-0.990396,-0.12862941134927425
1763249289.549267,-0.015924,0.06755,-0.15332,0.985736,-0.010544,0.000226,0.000724,0.001085,-0.001172,-0.000685,0.128289,0.052106,-0.990367,-0.12864353682859433
1763249289.549608,-0.016181,0.067597,-0.1533,0.985732,-0.011111,-0.000129,-0.002685,0.001163,-0.000414,-0.000603,0.128304,0.052625,-0.990338,-0.12865861241436127
1763249289.609371,-0.016425,0.067659,-0.15334,0.985718,-0.011487,0.000469,-0.002269,0.001287,0.001418,-0.001337,0.128349,0.053131,-0.990305,-0.1287040069295843
1763249289.639291,-0.016658,0.067695,-0.15335,0.98571,-0.011885,0.000832,-0.000675,0.001183,0.001996,-0.001349,0.128345,0.053603,-0.99028,-0.1286999841160179
1763249289.669258,-0.01686,0.067721,-0.153336,0.985707,-0.007533,-0.00125,0.000203,0.000638,0.00133,-0.000313,0.128335,0.054007,-0.990259,-0.12868994496549319
1763249289.729347,-0.016994,0.067647,-0.153344,0.985708,-0.002624,-0.004677,-0.001672,0.000865,0.001953,-0.000846,0.128149,0.054249,-0.99027,-0.12850237836785483
1763249289.7608,-0.017072,0.067554,-0.153336,0.985714,-0.001303,-0.007483,0.001573,0.000647,0.001625,-0.000414,0.127943,0.054373,-0.99029,-0.12829464753886485
1763249289.788826,-0.017082,0.067527,-0.153295,0.985722,0.004407,-0.00093,0.001412,0.00118,-0.000595,-0.001778,0.127888,0.054379,-0.990297,-0.1282391632289053
1763249289.848075,-0.017049,0.067652,-0.153311,0.985712,0.002126,0.006212,-0.004613,0.000988,-0.000798,-0.001143,0.128144,0.054354,-0.990265,-0.12849732264114458
1763249289.877967,-0.017012,0.067808,-0.153481,0.985676,0.003189,0.003839,-0.01333,0.000623,-0.001178,0.000205,0.12845,0.054351,-0.990225,-0.1288059391331218
1763249289.908164,-0.016992,0.067892,-0.153773,0.985625,0.002962,0.00218,-0.014174,0.000586,0.000431,0.000448,0.128606,0.054375,-0.990204,-0.12896317122143242
1763249289.969343,-0.016952,0.067912,-0.153929,0.9856,0.002277,-0.003622,-0.002394,0.000944,0.00147,-0.001157,0.128649,0.054322,-0.990201,-0.12900657293816148
1763249289.997659,-0.016931,0.067936,-0.153848,0.985611,0.002128,-0.002133,0.004646,0.000777,-0.001952,-0.001452,0.128707,0.054279,-0.990196,-0.1290650361580937
1763249290.028018,-0.016872,0.067964,-0.153745,0.985626,0.007632,0.001167,-0.001042,0.001017,-0.010369,-0.001212,0.128786,0.054157,-0.990192,-0.1291447516759152
1763249290.085349,-0.016489,0.068182,-0.153819,0.985606,0.024596,0.030383,-0.008692,-0.001578,-0.034572,0.003374,0.129328,0.053478,-0.990159,-0.129691227491254
1763249290.149681,-0.015934,0.0687,-0.153881,0.985569,-0.003039,0.025208,-0.001042,-0.007828,-0.086077,0.002479,0.130514,0.052552,-0.990053,-0.13088735964326406
1763249290.150193,-0.01538,0.069219,-0.153942,0.985532,-0.030674,0.020033,0.006607,-0.014077,-0.137581,0.001582,0.1317,0.051627,-0.989944,-0.1320837654774152
1763249290.214485,-0.015645,0.069422,-0.153861,0.985526,-0.117637,-0.004957,-0.003952,-0.012455,-0.16175,-0.011581,0.132021,0.052199,-0.989872,-0.13240749352065292
1763249290.23717,-0.018391,0.069833,-0.153742,0.985469,-0.324147,0.020319,-0.022792,-0.003979,-0.154333,-0.031252,0.131982,0.05772,-0.98957,-0.13236823079548599
1763249290.281198,-0.025138,0.071255,-0.153822,0.985205,-0.541793,0.049355,-0.056259,0.000607,-0.135439,-0.031812,0.132668,0.071453,-0.988582,-0.13306024536604089
1763249290.313117,-0.035336,0.073565,-0.154477,0.98462,-0.661591,0.049434,-0.106949,0.001498,-0.108463,-0.010947,0.133951,0.092313,-0.986679,-0.13435484628786043
1763249290.368329,-0.046889,0.076105,-0.155825,0.983732,-0.678016,0.044544,-0.131613,0.000826,-0.076814,0.007889,0.135121,0.11597,-0.984019,-0.13553557335998623
1763249290.398125,-0.058291,0.078414,-0.157403,0.982689,-0.632497,0.032926,-0.133798,0.002282,-0.053613,0.005962,0.135763,0.139249,-0.980907,-0.13618352358772326
1763249290.569044,-0.107111,0.088093,-0.163148,0.976806,-0.511576,0.013593,-0.104364,0.006808,-0.0336,-0.00775,0.13715,0.237998,-0.961534,-0.1375835931802231
1763249290.569007,-0.098696,0.086823,-0.162251,0.977955,-0.476745,0.013561,-0.076673,0.008479,-0.05379,0.003986,0.137791,0.221214,-0.965442,-0.13823077559523594
1763249290.591677,-0.116216,0.08966,-0.164544,0.975387,-0.50843,0.018398,-0.162685,0.001442,-0.035435,0.020063,0.13666,0.256217,-0.95691,-0.1370890012216786
1763249290.643904,-0.125056,0.091033,-0.167366,0.973685,-0.4655,-0.004515,-0.216381,-0.005057,-0.001486,0.05782,0.135414,0.274003,-0.952148,-0.13583127133879183
1763249290.679361,-0.133744,0.091337,-0.170688,0.971924,-0.433937,-0.071447,-0.215491,-0.005625,0.053774,0.071868,0.131889,0.291158,-0.94754,-0.1322744033619294
1763249290.773626,-0.142315,0.090187,-0.172759,0.970447,-0.400365,-0.0909,-0.157225,-0.006538,0.084999,0.058907,0.125872,0.30738,-0.943225,-0.12620679709881477
1763249290.773848,-0.150876,0.08903,-0.174815,0.968891,-0.366793,-0.110353,-0.09896,-0.007367,0.116336,0.045655,0.11977,0.323492,-0.93862,-0.1200582458339632
1763249290.804592,-0.158471,0.088005,-0.174905,0.967755,-0.30799,-0.141664,-0.018744,-0.01302,0.146589,0.046601,0.114899,0.337508,-0.934284,-0.11515332437948289
1763249290.842031,-0.16593,0.087851,-0.174286,0.96663,-0.278521,-0.045357,-0.020889,4.5e-05,0.141881,0.044055,0.111999,0.351409,-0.929499,-0.1122344545575309
1763249290.871848,-0.172508,0.088641,-0.17434,0.965396,-0.229128,0.009878,-0.034001,0.004504,0.159028,0.046575,0.110997,0.363985,-0.924767,-0.11122622545883869
1763249290.924709,-0.177574,0.08996,-0.174917,0.96425,-0.17023,0.032854,-0.055265,0.010274,0.151632,0.06438,0.111366,0.373923,-0.920749,-0.11159752208777396
1763249290.956843,-0.181869,0.090983,-0.176013,0.963154,-0.135604,-0.006556,-0.078685,0.004429,0.142762,0.07038,0.111239,0.382364,-0.917292,-0.1114696474255955
1763249291.012441,-0.186394,0.091133,-0.177361,0.962026,-0.150457,-0.042037,-0.104436,0.001623,0.130674,0.056953,0.109227,0.390959,-0.913904,-0.10944536393956714
1763249291.078722,-0.192192,0.090147,-0.178442,0.960778,-0.173432,-0.099553,-0.088748,-0.004244,0.114485,0.05057,0.104632,0.401481,-0.909871,-0.10482385823722899
1763249291.078962,-0.197983,0.089158,-0.179517,0.959493,-0.196407,-0.157069,-0.07306,-0.010083,0.09836,0.044057,0.10001,0.411938,-0.905707,-0.10017746723309284
1763249291.131964,-0.203383,0.08618,-0.179894,0.958565,-0.111748,-0.203836,-0.076466,-0.008937,0.074152,0.025503,0.092043,0.420918,-0.902417,-0.09217344665627374
1763249291.168732,-0.206566,0.082168,-0.180343,0.958152,-0.003773,-0.217649,-0.067821,-0.011886,0.060417,0.00483,0.082954,0.42548,-0.901158,-0.08304942125078334
1763249291.198621,-0.207903,0.078089,-0.180563,0.958163,0.050804,-0.214085,-0.042186,-0.017131,0.04127,0.003742,0.074564,0.42661,-0.901357,-0.07463325470429866
1763249291.251946,-0.208312,0.074203,-0.180544,0.958386,0.047969,-0.157482,-0.035453,-0.010571,0.026504,-0.010145,0.067012,0.426081,-0.9022,-0.06706224005468238
1763249291.283421,-0.208619,0.071358,-0.180873,0.958473,0.036244,-0.118048,-0.047037,-0.012371,0.014754,-0.01505,0.061322,0.425726,-0.902772,-0.06136048841882808
1763249291.349447,-0.208921,0.070144,-0.181261,0.958424,0.00486,-0.075587,-0.022523,-0.012269,0.014864,-0.009288,0.058716,0.425899,-0.902864,-0.05874976302463859
1763249291.349654,-0.209223,0.068929,-0.181649,0.958373,-0.026524,-0.033125,0.001992,-0.012167,0.014977,-0.003531,0.05611,0.426069,-0.902949,-0.056139483339778445
1763249291.391858,-0.210395,0.068162,-0.180762,0.958339,-0.066017,-0.072086,0.066289,-0.005445,0.021139,-0.001253,0.054582,0.427902,-0.902176,-0.054609114864963657
1763249291.448283,-0.212133,0.067164,-0.178544,0.958442,-0.079854,-0.098867,0.11511,-0.002897,0.01362,-0.000427,0.052995,0.430618,-0.900977,-0.05301984022615652
1763249291.478199,-0.213888,0.066144,-0.175768,0.958636,-0.054734,-0.075014,0.109037,0.00117,0.002949,-0.014682,0.051626,0.433333,-0.899754,-0.0516489603686001
1763249291.508123,-0.214734,0.065807,-0.173952,0.958801,-0.01666,-0.011112,0.049792,-0.001023,-0.003665,-0.019346,0.051486,0.434669,-0.899117,-0.05150879109815529
1763249291.563142,-0.214693,0.06648,-0.173945,0.958765,0.004556,0.075593,-0.043437,-0.003766,-0.014874,-0.02542,0.052788,0.434808,-0.898975,-0.052812530663652026
1763249291.592547,-0.214089,0.068427,-0.175894,0.958408,0.01522,0.151251,-0.092412,-0.010041,-0.013346,-0.014748,0.055849,0.434441,-0.898967,-0.05587808073198878
1763249291.649452,-0.213141,0.07124,-0.178497,0.957932,0.010276,0.194219,-0.090861,-0.009592,-0.013531,-0.00743,0.060397,0.433782,-0.898991,-0.06043379671089772
1763249291.677717,-0.212412,0.074362,-0.180955,0.957396,-0.022574,0.180621,-0.06969,-0.002188,-0.003527,0.004199,0.065514,0.433638,-0.898703,-0.06556092051535631
1763249291.727718,-0.212564,0.077246,-0.182558,0.956829,-0.064242,0.144811,-0.018518,-0.000235,0.005401,0.011889,0.070212,0.434978,-0.897699,-0.07026984836739586
1763249291.758083,-0.213454,0.0793,-0.182604,0.956454,-0.072769,0.069081,0.051778,0.004107,0.012031,0.00529,0.073738,0.437279,-0.896298,-0.0738049746674622
1763249291.813211,-0.214527,0.080855,-0.181214,0.956348,-0.068294,0.048435,0.09801,0.006437,0.01028,8.1e-05,0.076901,0.439629,-0.894881,-0.07697702029647333
1763249291.843237,-0.215495,0.082297,-0.179344,0.95636,-0.057781,0.046712,0.096685,0.003547,0.004306,-0.005654,0.080117,0.441701,-0.893578,-0.08020295079859431
1763249291.873093,-0.216027,0.083983,-0.17786,0.956371,-0.007089,0.057474,0.066723,-0.010795,-0.002979,-0.005802,0.083793,0.443079,-0.892558,-0.0838913644951342
1763249291.950774,-0.214922,0.085868,-0.178424,0.956347,0.028353,0.107964,5.4e-05,-0.012718,-0.003023,-0.008415,0.087544,0.441721,-0.892871,-0.0876562088650187
1763249291.951004,-0.213815,0.087752,-0.178987,0.956319,0.063795,0.158453,-0.066615,-0.014643,-0.003066,-0.011045,0.091298,0.440364,-0.893165,-0.09142533436342994
1763249292.00683,-0.21224,0.089858,-0.181231,0.956052,0.039674,0.14814,-0.058,-0.00341,0.02601,0.002258,0.094889,0.438395,-0.893759,-0.09503201141497816
1763249292.036882,-0.211139,0.091724,-0.182183,0.955937,0.038266,0.100916,0.023693,0.005146,0.024399,0.007706,0.098432,0.437093,-0.894014,-0.09859163701915181
1763249292.092483,-0.210194,0.093374,-0.181403,0.956134,0.03335,0.076357,0.106389,0.006234,0.024789,0.011379,0.102297,0.435825,-0.894199,-0.10247626509188806
1763249292.12352,-0.209485,0.094875,-0.179251,0.956548,0.041576,0.046008,0.131332,0.009127,-0.002075,0.005507,0.106404,0.434778,-0.89423,-0.1066057566668242
1763249292.154645,-0.2085,0.096355,-0.177304,0.956978,0.056132,0.057229,0.09898,0.006418,-0.008229,0.007547,0.110484,0.433227,-0.894487,-0.11071005480474395
1763249292.212593,-0.2072,0.097453,-0.176068,0.957377,0.059906,0.039322,0.055109,0.009781,-0.014559,0.003932,0.113637,0.431053,-0.895142,-0.1138830474720909
1763249292.250048,-0.20585,0.098029,-0.175543,0.957706,0.054881,0.029071,0.031016,0.012805,-0.010446,-0.003941,0.115495,0.428704,-0.896032,-0.11575334567713624
1763249292.278794,-0.204713,0.098402,-0.175256,0.957964,0.03593,0.006069,0.0264,0.009383,0.001892,0.006148,0.116777,0.426707,-0.896819,-0.11704405119420051
1763249292.334628,-0.203862,0.098324,-0.174357,0.958317,0.038549,-0.032092,0.057228,0.008407,0.009061,0.012254,0.117362,0.425015,-0.897546,-0.11763308032740848
1763249292.366761,-0.203121,0.097853,-0.172598,0.958841,0.032182,-0.055588,0.102351,0.003972,0.013721,0.00657,0.117534,0.423299,-0.898334,-0.11780628794572542
1763249292.396797,-0.202844,0.097225,-0.170234,0.959386,0.019914,-0.065446,0.113136,0.004274,0.00776,-0.009686,0.117491,0.422313,-0.898803,-0.11776304841481909
1763249292.451939,-0.202503,0.096626,-0.167945,0.959922,0.039127,-0.04709,0.101707,-0.001638,0.010678,-0.009288,0.117488,0.421229,-0.899312,-0.11776001944206968
1763249292.48687,-0.201583,0.096053,-0.166282,0.960463,0.060898,-0.024166,0.057494,0.000323,0.00265,-0.005236,0.117471,0.419169,-0.900277,-0.11774281873166623
1763249292.573595,-0.200221,0.095738,-0.166668,0.960712,0.062704,-0.00187,-0.002244,0.000959,-0.003788,-0.005699,0.117214,0.416622,-0.901492,-0.11748402653442258
1763249292.573813,-0.198858,0.095424,-0.167053,0.960959,0.064509,0.020426,-0.061982,0.001595,-0.010221,-0.006169,0.116958,0.414071,-0.9027,-0.11722622900687686
1763249292.613087,-0.198045,0.095942,-0.168791,0.960772,0.032954,0.060956,-0.087417,-0.004707,-0.026107,0.006537,0.117501,0.41294,-0.903147,-0.11777304751008079
1763249292.642551,-0.197477,0.096611,-0.170917,0.960446,0.019366,0.069075,-0.092585,0.001857,-0.01819,0.000997,0.118076,0.412357,-0.903338,-0.11835211700396346
1763249292.673083,-0.196825,0.09719,-0.172638,0.960213,0.024598,0.033942,-0.052774,0.004561,-0.006235,0.004226,0.118688,0.411546,-0.903628,-0.11896840717410863
1763249292.731531,-0.195779,0.097094,-0.173265,0.960324,0.052152,0.002095,0.003383,0.012626,0.000746,-0.001685,0.11864,0.409669,-0.904486,-0.11892015228273661
1763249292.761416,-0.194702,0.096933,-0.17257,0.960685,0.056228,-0.026552,0.069815,0.010429,-0.000396,3.9e-05,0.119045,0.407549,-0.905391,-0.11932794130241937
1763249292.848147,-0.193592,0.096638,-0.170841,0.961247,0.058008,-0.031805,0.067154,0.00709,-0.010486,-0.000547,0.11964,0.405199,-0.906367,-0.11992720384885398
1763249292.848357,-0.192481,0.096344,-0.169111,0.961806,0.059788,-0.037058,0.064494,0.003761,-0.020571,-0.001138,0.120227,0.402844,-0.907338,-0.1205185338195745
1763249292.878002,-0.191163,0.096019,-0.168366,0.962232,0.096993,-0.000693,0.008173,-0.001249,-0.047733,-0.008254,0.120414,0.400218,-0.908475,-0.12070685750699464
1763249292.933478,-0.188558,0.096456,-0.169436,0.962514,0.136885,0.079182,-0.072668,-0.013783,-0.03418,-0.001348,0.121783,0.395666,-0.910284,-0.12208607815785195
1763249292.966992,-0.185933,0.097373,-0.171482,0.96257,0.066135,0.074105,-0.06785,-0.018982,0.005401,0.009435,0.123688,0.391342,-0.911895,-0.12400558334369466
1763249293.018084,-0.184826,0.097807,-0.172638,0.962533,-0.002674,0.024417,-0.019988,-0.002303,0.01651,0.007611,0.12447,0.389573,-0.912546,-0.12479365272131436
1763249293.059391,-0.185228,0.097838,-0.172585,0.962462,-0.039059,-0.00453,0.024133,0.006043,0.017267,0.000269,0.124396,0.390321,-0.912236,-0.12471911934174111
1763249293.089293,-0.1865,0.097928,-0.17158,0.962387,-0.071888,-0.015934,0.062155,0.005216,0.018543,-0.00516,0.12449,0.392575,-0.911256,-0.1248137917491232
1763249293.177009,-0.187776,0.098272,-0.170111,0.962364,-0.057586,-0.010794,0.056969,0.004786,0.011494,-0.005468,0.125262,0.394853,-0.910165,-0.12559192015869686
1763249293.177177,-0.189052,0.098616,-0.168642,0.962338,-0.043285,-0.005653,0.051783,0.004349,0.00445,-0.005783,0.12604,0.397125,-0.909068,-0.12637618711782606
1763249293.206864,-0.189724,0.099028,-0.167854,0.962301,-0.023735,0.009788,0.018106,0.004104,-0.000768,-0.002477,0.126897,0.398387,-0.908397,-0.12724004872560876
1763249293.236919,-0.190107,0.099422,-0.167757,0.962202,-0.017592,0.012603,-0.007314,0.002884,-0.000901,0.000164,0.127544,0.3992,-0.907949,-0.1278923915061694
1763249293.293221,-0.190297,0.099678,-0.168013,0.962093,-0.010646,0.006882,-0.014921,0.005093,0.001563,0.002549,0.127855,0.399662,-0.907702,-0.12820595637262497
1763249293.323563,-0.190563,0.09972,-0.16819,0.962005,-0.018296,-0.005276,-0.000148,0.0051,0.0045,0.003883,0.127761,0.400189,-0.907483,-0.12811118113238656
1763249293.354623,-0.190906,0.099527,-0.167788,0.962027,-0.010498,-0.026378,0.032471,0.007537,0.002696,0.002001,0.127431,0.400712,-0.907299,-0.12777841406506232
1763249293.392515,-0.191034,0.09916,-0.166733,0.962223,0.003705,-0.040899,0.053581,0.005245,0.002708,0.000775,0.127125,0.400701,-0.907347,-0.12746987981761004
1763249293.450842,-0.191162,0.09865,-0.165307,0.962496,-0.003868,-0.047223,0.067156,0.005935,-0.000846,-0.000906,0.1267,0.4006,-0.907451,-0.12704141969687213
1763249293.479579,-0.191291,0.098318,-0.16404,0.962721,-0.003963,-0.028667,0.036644,0.004558,-0.010462,-0.005209,0.126548,0.400576,-0.907483,-0.1268881636264198
1763249293.533553,-0.191436,0.098117,-0.1637,0.962771,-0.007212,-0.007377,-0.007959,0.002847,-0.00776,-0.005486,0.126252,0.400741,-0.907451,-0.12658981432734592
1763249293.564663,-0.191546,0.097952,-0.164247,0.962673,-0.008087,-0.002215,-0.047897,0.001962,-0.005294,-0.002626,0.12567,0.400969,-0.907431,-0.1260031496573865
1763249293.596837,-0.191642,0.097704,-0.165289,0.9625,-0.00291,-0.011134,-0.058529,-4.8e-05,0.000132,0.002725,0.124728,0.401209,-0.907455,-0.12505366601383588
1763249293.652075,-0.19175,0.097109,-0.166202,0.962382,-0.00555,-0.023982,-0.042294,0.002102,0.001244,0.001194,0.123175,0.401353,-0.907604,-0.12348853345287125
1763249293.683481,-0.191879,0.09651,-0.166806,0.962312,0.000552,-0.028888,-0.030623,0.00073,0.001912,0.000743,0.121732,0.401492,-0.907737,-0.12203461468263173
1763249293.773588,-0.192006,0.095885,-0.167023,0.962311,0.002069,-0.028215,-0.023224,0.001567,-6e-05,-2.5e-05,0.120404,0.401569,-0.907879,-0.12069688979692936
1763249293.773817,-0.192133,0.09526,-0.167241,0.96231,0.003586,-0.027541,-0.015826,0.002404,-0.00203,-0.000795,0.119075,0.401646,-0.90802,-0.1193582807511004
1763249293.806807,-0.192153,0.094662,-0.167474,0.962325,0.001589,-0.028017,-0.014032,0.001998,-0.000176,0.000778,0.117829,0.401535,-0.908232,-0.11810340339867721
1763249293.836745,-0.192321,0.094037,-0.167653,0.962321,-0.004365,-0.035112,-0.015569,0.000244,-2.2e-05,9.5e-05,0.116502,0.40168,-0.90834,-0.11676710002636599
1763249293.876776,-0.1925,0.093264,-0.167854,0.962326,0.000779,-0.030279,-0.017592,-0.001022,0.000353,-0.003845,0.114877,0.401805,-0.908491,-0.11513118598493967
1763249293.932035,-0.192665,0.092664,-0.168048,0.962317,-0.007286,-0.024243,-0.009658,-0.002762,0.002199,-0.002217,0.11359,0.401954,-0.908587,-0.11383569621289287
1763249293.961861,-0.193009,0.092233,-0.168086,0.962282,-0.015517,-0.018534,-0.010023,-0.001447,-0.00126,-0.002205,0.112625,0.402465,-0.908481,-0.11286445497590285
1763249294.050091,-0.193494,0.092112,-0.168326,0.962155,-0.019949,-0.008036,-0.013102,-0.000792,0.000689,-0.001248,0.112111,0.403351,-0.908151,-0.11234723816122802
1763249294.050316,-0.193978,0.09199,-0.168567,0.962027,-0.024381,0.002462,-0.016181,-0.000137,0.002639,-0.000293,0.111598,0.404237,-0.907821,-0.11183091468444639
1763249294.089472,-0.194364,0.091982,-0.168724,0.961922,-0.019007,0.00054,-0.004539,0.001834,0.007332,-0.002538,0.111371,0.404966,-0.907524,-0.11160248309378544
1763249294.119305,-0.194737,0.092029,-0.168735,0.96184,-0.016327,0.002158,-0.00039,0.002455,0.004649,-0.000784,0.111316,0.405669,-0.907216,-0.11154721242526569
1763249294.174527,-0.195017,0.091986,-0.168642,0.961804,-0.00469,-0.008991,0.007309,0.000107,0.003212,0.000948,0.111169,0.406161,-0.907014,-0.11139928084292611
1763249294.204305,-0.195208,0.091865,-0.168384,0.961822,-0.007183,-0.015429,0.01159,1.4e-05,0.000428,0.000126,0.110975,0.406448,-0.906909,-0.11120409186833233
1763249294.236176,-0.195342,0.091631,-0.16817,0.961854,-0.003671,-0.003705,0.003652,0.002308,-0.000706,-0.00443,0.11057,0.4066,-0.906891,-0.1107965165829262
1763249294.298027,-0.195512,0.091659,-0.168171,0.961817,-0.01448,-0.00212,-0.005191,0.000118,-0.001286,-0.001783,0.11056,0.406922,-0.906747,-0.11078653393889552
1763249294.375923,-0.195801,0.091754,-0.168411,0.961707,-0.014819,0.004589,-0.01257,-0.000412,-0.000869,-0.001346,0.110532,0.407511,-0.906486,-0.11075834698534763
1763249294.376142,-0.19609,0.09185,-0.16865,0.961597,-0.015157,0.011298,-0.019948,-0.000943,-0.000451,-0.000909,0.110504,0.408099,-0.906225,-0.11073015926832418
1763249294.407186,-0.19649,0.092079,-0.1691,0.961415,-0.0191,0.011027,-0.021511,-0.001244,-0.002199,0.002214,0.110599,0.408959,-0.905826,-0.11082570811318274
1763249294.436557,-0.196717,0.092206,-0.169582,0.961271,-0.011513,0.013274,-0.022996,0.001393,-0.000836,0.000581,0.11055,0.40947,-0.905601,-0.1107764163676687
1763249294.517274,-0.197024,0.092274,-0.169946,0.961138,-0.012721,0.006645,-0.014657,0.001645,0.001268,-0.001571,0.11041,0.410097,-0.905334,-0.11063558659182161
1763249294.517363,-0.19733,0.092343,-0.17031,0.961004,-0.013928,1.5e-05,-0.006319,0.001897,0.003371,-0.003722,0.110269,0.410724,-0.905067,-0.11049371133473443
1763249294.571964,-0.19757,0.092512,-0.170328,0.960935,-0.006101,0.007571,0.006444,0.001817,0.006821,-0.002414,0.110493,0.411219,-0.904815,-0.11071907621579707
1763249294.601605,-0.197546,0.09273,-0.17017,0.960947,0.000464,0.009342,0.009099,0.0021,0.004123,-0.005003,0.110985,0.411223,-0.904753,-0.11121411743589123
1763249294.648033,-0.197344,0.093023,-0.170111,0.96097,0.016381,0.014541,0.004388,0.002626,0.006662,-0.002475,0.111644,0.410932,-0.904804,-0.11187725247391478
1763249294.678133,-0.19681,0.093139,-0.170304,0.961034,0.03228,0.009577,-0.014171,0.003285,0.010554,0.001382,0.111985,0.410007,-0.905182,-0.1122203444560729
1763249294.733476,-0.196157,0.092983,-0.170647,0.961122,0.045375,-0.009586,-0.011999,0.004226,0.031251,0.005242,0.111788,0.408796,-0.905753,-0.11202219030626828
1763249294.764536,-0.195343,0.09259,-0.170893,0.961282,0.059947,-0.015443,-0.008403,0.006187,0.060934,-0.004715,0.111245,0.407206,-0.906536,-0.11147575548011998
1763249294.796741,-0.194527,0.092025,-0.171238,0.961441,0.051355,-0.020116,-0.014065,0.00657,0.119062,-0.026065,0.110332,0.405569,-0.907381,-0.1105571029891777
1763249294.853935,-0.193422,0.091581,-0.171561,0.961648,0.125815,-0.006731,-0.018189,0.009308,0.159675,-0.03464,0.10977,0.403431,-0.908402,-0.10999163663986238
1763249294.88246,-0.189202,0.090638,-0.172371,0.962432,0.331653,0.005466,-0.023734,0.01157,0.199743,-0.037364,0.109239,0.395434,-0.911975,-0.1094574576254258
1763249294.976833,-0.178587,0.089061,-0.172753,0.964537,0.517118,0.006888,0.041858,0.00598,0.171639,-0.003412,0.110103,0.375278,-0.92035,-0.11032665892949106
1763249294.977042,-0.16795,0.087474,-0.173116,0.966526,0.702584,0.00831,0.10745,0.000413,0.143714,0.030098,0.110943,0.354943,-0.928282,-0.11117183763712472
1763249295.00678,-0.153446,0.085454,-0.171828,0.969344,0.771505,0.009951,0.166155,-0.002008,0.0884,0.042445,0.112935,0.326851,-0.938304,-0.11317644018678123
1763249295.036702,-0.139083,0.083519,-0.16949,0.972087,0.761238,-0.02183,0.20672,-0.011479,0.062441,0.053853,0.11523,0.298713,-0.947361,-0.1154865230326228
1763249295.092703,-0.125916,0.081299,-0.166513,0.974581,0.710026,-0.03358,0.214165,-0.014218,0.059306,0.044301,0.116532,0.272506,-0.955071,-0.11679737919375985
1763249295.123501,-0.113163,0.079161,-0.163552,0.976821,0.695732,-0.012725,0.202763,-0.013473,0.068787,0.034811,0.117636,0.246973,-0.961856,-0.11790896517580494
1763249295.154631,-0.100006,0.077371,-0.161148,0.978797,0.724551,0.018108,0.153966,-0.007446,0.064701,0.028612,0.11923,0.220707,-0.968025,-0.11951432767460264
1763249295.212442,-0.086731,0.076101,-0.160012,0.980348,0.696645,0.057206,0.086681,-0.00212,0.055281,0.031048,0.121456,0.194407,-0.973373,-0.12175657165512248
1763249295.252346,-0.074756,0.07514,-0.160019,0.981407,0.604617,0.042981,0.02705,0.001126,0.037138,0.036133,0.123561,0.170779,-0.977531,-0.12387760967156194
1763249295.283032,-0.065007,0.074561,-0.160753,0.982025,0.510835,0.051111,-0.001191,0.005041,0.00629,0.049365,0.125541,0.151649,-0.98043,-0.12587306676872478
1763249295.337709,-0.054909,0.073969,-0.161819,0.982511,0.593057,0.06706,-0.011346,0.015083,-0.012801,0.035089,0.12758,0.131838,-0.983027,-0.12792865595334077
1763249295.368123,-0.042945,0.073979,-0.163074,0.982899,0.638028,0.104061,-0.006511,0.014704,-0.011115,0.044326,0.131421,0.108549,-0.985366,-0.1318022423133856
1763249295.398039,-0.030762,0.074511,-0.164161,0.983134,0.578922,0.116925,0.003436,0.005751,-0.027153,0.040713,0.136408,0.08495,-0.987004,-0.1368345717684114
1763249295.455903,-0.020498,0.075009,-0.164783,0.98326,0.451133,0.082535,0.02706,-0.004824,-0.042543,0.053197,0.140751,0.06503,-0.987907,-0.14121992627099272
1763249295.484446,-0.012686,0.074731,-0.164694,0.983428,0.328548,0.017588,0.040598,-0.002665,-0.068138,0.037473,0.142807,0.049567,-0.988509,-0.1432968510674936
1763249295.558383,-0.008475,0.074387,-0.164487,0.983534,0.206846,0.00736,0.027732,-0.001523,-0.073858,0.037884,0.143536,0.041142,-0.98879,-0.1440334289286685
1763249295.558589,-0.004263,0.074041,-0.164276,0.983622,0.085144,-0.002868,0.014866,-0.000373,-0.079575,0.038224,0.144256,0.032713,-0.988999,-0.14476114313106622
1763249295.601771,-0.002688,0.07413,-0.164067,0.983656,0.005931,0.030063,0.016928,0.003268,-0.099643,0.025979,0.144954,0.029612,-0.988995,-0.14546650749984685
1763249295.658126,-0.001735,0.073882,-0.163528,0.983767,0.015175,-0.066111,0.040885,-0.013107,-0.119616,0.021417,0.144797,0.027576,-0.989077,-0.14530781323106454
1763249295.688027,-0.000364,0.071043,-0.162129,0.984209,0.067429,-0.192085,0.096149,-0.011112,-0.14687,0.00023,0.139725,0.023753,-0.989905,-0.14018374205782705
1763249295.727993,0.003162,0.066177,-0.159896,0.984908,0.207105,-0.22043,0.131027,-0.009693,-0.180679,-0.021423,0.131367,0.014935,-0.991221,-0.13174784326990488
1763249295.761707,0.010685,0.060698,-0.157511,0.985592,0.428127,-0.208967,0.140376,-0.01153,-0.189748,-0.018709,0.123012,-0.001941,-0.992403,-0.1233244020948038
1763249295.847463,0.024226,0.055829,-0.155603,0.985943,0.566396,-0.143321,0.125794,-0.006918,-0.144014,-0.010119,0.117628,-0.030396,-0.992592,-0.11790101077854431
1763249295.847693,0.037762,0.050949,-0.153662,0.986086,0.704665,-0.077675,0.111212,-0.002146,-0.098317,-0.002355,0.112085,-0.058814,-0.991957,-0.11232097852491037
1763249295.877932,0.051098,0.048011,-0.151827,0.985917,0.534331,0.011916,0.122102,0.003086,-0.046337,-0.005808,0.110185,-0.086179,-0.990168,-0.11040916908401313
1763249295.93602,0.060436,0.0472,-0.149703,0.985753,0.331384,0.051569,0.116156,-0.00203,-0.045694,0.0163,0.111149,-0.105018,-0.988239,-0.1113791840260248
1763249295.964273,0.066625,0.046986,-0.147867,0.985641,0.266399,0.030238,0.087389,-0.001261,-0.060306,0.011217,0.112326,-0.117441,-0.986707,-0.11256354397815554
1763249295.996757,0.071921,0.046885,-0.146812,0.985431,0.225048,0.044235,0.030142,0.005919,-0.063619,-0.007334,0.113522,-0.12798,-0.985258,-0.11376728728260545
1763249296.061715,0.076438,0.047459,-0.146836,0.98506,0.159398,0.076835,-0.028436,0.010632,-0.050061,-0.00766,0.115947,-0.136655,-0.98381,-0.11620835322267647
1763249296.091634,0.079826,0.048654,-0.147786,0.984591,0.092459,0.084791,-0.072919,0.010063,-0.033466,-0.001306,0.119403,-0.14281,-0.982521,-0.11968860164175402
1763249296.176464,0.081503,0.049926,-0.14927,0.984166,0.065871,0.063562,-0.072045,0.00875,-0.02122,0.002715,0.122602,-0.14552,-0.98173,-0.122911171088936
1763249296.176701,0.083179,0.051196,-0.150752,0.983735,0.039283,0.042333,-0.071171,0.007431,-0.008987,0.006719,0.125806,-0.148216,-0.98092,-0.1261402965516704
1763249296.207312,0.084158,0.051834,-0.151898,0.983442,0.017621,0.020253,-0.038911,0.005725,0.005005,-0.000611,0.127518,-0.149783,-0.980461,-0.12786617350406715
1763249296.261916,0.084601,0.052012,-0.152265,0.983337,0.008622,0.001103,0.00559,0.00681,0.008445,-0.004111,0.128055,-0.150544,-0.980275,-0.12840754184131006
1763249296.293393,0.084762,0.051937,-0.151783,0.983402,0.007375,-0.009893,0.046195,0.005682,0.007822,-0.004382,0.127881,-0.150945,-0.980236,-0.1282321056339179
1763249296.324498,0.084728,0.051688,-0.150599,0.9836,-0.004324,-0.014111,0.078339,0.005047,0.008412,-0.000618,0.127201,-0.151109,-0.980299,-0.12754653271386862
1763249296.367501,0.084359,0.051247,-0.148939,0.983908,-0.022348,-0.035358,0.087861,0.002516,0.004664,0.006676,0.125974,-0.150738,-0.980514,-0.126309649068709
1763249296.448174,0.083347,0.050587,-0.147223,0.984286,-0.047114,-0.032691,0.080201,0.003786,0.003098,0.001572,0.124125,-0.14918,-0.980989,-0.12444589375486845
1763249296.448415,0.082334,0.049926,-0.145507,0.98466,-0.07188,-0.030024,0.072541,0.005051,0.001525,-0.003537,0.12228,-0.147614,-0.981457,-0.1225867904455549
1763249296.536321,0.080292,0.04989,-0.144728,0.984946,-0.108719,-0.026696,0.033449,0.004138,0.005892,0.000162,0.121519,-0.143726,-0.982128,-0.12182011520943961
1763249296.536538,0.078249,0.049854,-0.143949,0.985226,-0.145559,-0.023368,-0.005643,0.003219,0.010254,0.003844,0.120764,-0.139834,-0.982783,-0.12105948428555702
1763249296.566776,0.075047,0.049806,-0.144231,0.985436,-0.180638,-0.038907,-0.039271,0.002969,0.012895,0.008391,0.11981,-0.13354,-0.983775,-0.1200984643437666
1763249296.621815,0.071367,0.049364,-0.145144,0.985598,-0.175997,-0.076062,-0.055977,0.000754,0.015311,0.011121,0.118022,-0.126349,-0.98494,-0.11829771973814564
1763249296.653497,0.067691,0.048253,-0.146165,0.985761,-0.166969,-0.099121,-0.04966,-0.000762,0.017329,0.001473,0.114921,-0.119349,-0.986179,-0.11517547008833239
1763249296.68447,0.064181,0.046729,-0.14695,0.985953,-0.152192,-0.110539,-0.030545,-0.003168,0.013271,-0.006714,0.111008,-0.112825,-0.987394,-0.1112373078591169
1763249296.748755,0.061024,0.045069,-0.147406,0.986162,-0.128019,-0.107325,-0.013653,-0.003248,0.012861,-0.010038,0.106882,-0.107072,-0.98849,-0.10708651716589747
1763249296.779282,0.058229,0.043426,-0.147432,0.986401,-0.11841,-0.101305,0.012388,-0.004858,0.014451,-0.007755,0.102841,-0.102069,-0.989447,-0.10302316187430001
1763249296.808667,0.055563,0.041902,-0.146857,0.986707,-0.115457,-0.088912,0.043911,-0.002151,0.013772,-0.007857,0.09901,-0.097342,-0.990314,-0.09917247018777806
1763249296.858221,0.053053,0.040805,-0.145764,0.987053,-0.111918,-0.052921,0.060382,0.001661,0.010261,-0.009415,0.096019,-0.092836,-0.991041,-0.0961671381067219
1763249296.888115,0.050788,0.040495,-0.14452,0.987367,-0.101231,-0.010818,0.053817,0.00287,0.001946,-0.007662,0.094648,-0.088589,-0.991561,-0.09478991115269858
1763249296.926438,0.048943,0.040902,-0.14369,0.987565,-0.08116,0.019721,0.018965,0.00382,-0.005205,-0.007462,0.094852,-0.084914,-0.991863,-0.0949948317723533
1763249296.983833,0.047649,0.041728,-0.143706,0.987592,-0.064221,0.036989,-0.032088,0.004412,-0.006881,-0.005161,0.096115,-0.082122,-0.991977,-0.09626358176167862
1763249297.050764,0.046695,0.042711,-0.145188,0.987378,-0.060515,0.034738,-0.067258,0.002587,-0.000386,-0.002128,0.097902,-0.079808,-0.991991,-0.0980590607251628
1763249297.051004,0.04574,0.043693,-0.14667,0.987161,-0.056809,0.032487,-0.102429,0.000769,0.006102,0.000898,0.099682,-0.077489,-0.991997,-0.09984786963299001
1763249297.078621,0.044602,0.044452,-0.148565,0.986896,-0.063564,0.017461,-0.094176,-0.001534,0.012129,0.002673,0.100991,-0.074827,-0.992069,-0.10116350614968567
1763249297.134106,0.043268,0.044939,-0.150015,0.986714,-0.06788,0.001444,-0.052929,-0.002443,0.01699,0.002824,0.101665,-0.071904,-0.992217,-0.10184092343481878
1763249297.175713,0.041831,0.045129,-0.15051,0.986692,-0.063134,-0.002912,-0.002643,-0.000697,0.012314,0.003987,0.101648,-0.068963,-0.992427,-0.10182388451668925
1763249297.205006,0.040531,0.045085,-0.15022,0.986792,-0.048758,-0.010602,0.021755,0.00467,0.002263,0.004916,0.101156,-0.066446,-0.992649,-0.10132933105267451
1763249297.260632,0.039581,0.044886,-0.149625,0.98693,-0.035096,-0.029374,0.027479,0.000216,-0.000353,0.004274,0.100444,-0.064695,-0.992837,-0.10061368065674486
1763249297.290578,0.038701,0.044164,-0.148955,0.987099,-0.037113,-0.053343,0.038732,0.000299,0.000403,0.000431,0.098718,-0.063246,-0.993104,-0.09887900333770766
1763249297.351392,0.037792,0.043236,-0.148203,0.987288,-0.039432,-0.049068,0.042653,0.000776,-0.001827,-0.007826,0.096575,-0.061807,-0.993405,-0.09672573908137969
1763249297.408327,0.037313,0.043039,-0.147668,0.987395,-0.022248,-0.019424,0.024256,0.000541,-0.005502,-0.008444,0.096013,-0.060973,-0.993511,-0.09616111628287118
1763249297.408578,0.036833,0.042842,-0.147132,0.987502,-0.005063,0.010221,0.005858,0.000304,-0.009177,-0.009063,0.095452,-0.060139,-0.993616,-0.0955975168735883
1763249297.464256,0.036922,0.043235,-0.147293,0.987457,0.003036,0.030221,-0.025376,-4.7e-05,-0.004851,-0.006803,0.096262,-0.060182,-0.993535,-0.09641128792434378
1763249297.494669,0.037185,0.043924,-0.147921,0.987323,0.011845,0.034683,-0.035705,0.000253,0.000493,3.3e-05,0.097735,-0.060434,-0.993376,-0.09789125534275071
1763249297.526758,0.037661,0.044487,-0.148626,0.987174,0.02532,0.027363,-0.027241,0.000934,0.008244,0.001356,0.099028,-0.061132,-0.993205,-0.09919058025112153
1763249297.584052,0.038136,0.04492,-0.148966,0.987085,0.018574,0.019981,-0.007153,0.00056,0.011306,0.002588,0.100041,-0.061904,-0.993056,-0.10020860135223421
1763249297.650851,0.038092,0.044911,-0.148626,0.987138,0.005342,0.001627,0.012651,0.001116,0.01087,0.002882,0.099991,-0.061854,-0.993064,-0.1001583644949163
1763249297.651102,0.038048,0.044903,-0.148285,0.987192,-0.00789,-0.016726,0.032455,0.001672,0.010433,0.003177,0.09994,-0.061805,-0.993072,-0.10010712616615618
1763249297.704715,0.037625,0.044483,-0.147528,0.98734,-0.018686,-0.036271,0.043063,0.002662,0.010046,0.00232,0.098942,-0.061172,-0.993211,-0.09910416648417567
1763249297.736768,0.037186,0.044239,-0.147148,0.987425,0.008722,0.028415,-0.050742,0.029372,-0.029482,-0.024498,0.098308,-0.060417,-0.99332,-0.0984670762686735
1763249297.766229,0.038001,0.046993,-0.150741,0.986724,0.077176,0.18229,-0.314927,-0.010573,-0.037254,-0.013896,0.104195,-0.060825,-0.992695,-0.10438447971485425
1763249297.821703,0.040514,0.04994,-0.15881,0.985213,0.151863,0.08691,-0.465129,-0.032006,0.002683,0.010292,0.111271,-0.063968,-0.991729,-0.11150192607731374
1763249297.852523,0.043729,0.050904,-0.167889,0.983519,0.154409,0.052636,-0.416074,-0.007413,0.030546,-0.0054,0.114814,-0.068923,-0.990993,-0.11506777327172422
1763249297.884519,0.046322,0.051606,-0.174748,0.982168,0.11175,0.069807,-0.259054,0.001377,0.048913,-0.003413,0.11756,-0.072956,-0.990382,-0.11783251814348428
1763249297.981741,0.046484,0.052007,-0.175685,0.981972,0.034889,0.030954,-0.080664,0.001965,0.040292,-0.00027,0.118473,-0.073018,-0.990269,-0.11875189987474816
1763249297.981928,0.046646,0.052409,-0.176623,0.981775,-0.041973,-0.007899,0.097726,0.002553,0.03167,0.002873,0.119385,-0.073079,-0.990155,-0.11967041456333548
1763249298.011434,0.044836,0.052422,-0.173999,0.982327,-0.099244,-0.02094,0.184769,0.001685,0.014491,0.003172,0.118593,-0.069845,-0.990483,-0.11887281010903483
1763249298.043701,0.042286,0.052192,-0.170002,0.983151,-0.123831,-0.034932,0.210142,0.002929,0.000991,-0.000315,0.117003,-0.065401,-0.990976,-0.11727158904998661
1763249298.096553,0.039565,0.051936,-0.165812,0.983994,-0.142263,-0.030784,0.202266,0.004012,-0.006376,-0.004542,0.115331,-0.06064,-0.991474,-0.1155882666087846
1763249298.140309,0.036877,0.051882,-0.162008,0.984734,-0.142707,-0.016725,0.165335,0.007351,-0.013043,-0.005374,0.114129,-0.055818,-0.991897,-0.114378184503932
1763249298.175177,0.034465,0.052156,-0.15915,0.985273,-0.127461,0.004778,0.101709,0.01021,-0.020302,-0.005509,0.113745,-0.051313,-0.992184,-0.11399170756693978
1763249298.20515,0.032609,0.052846,-0.157912,0.985499,-0.094304,0.023404,0.0044,0.006351,-0.028257,-0.004874,0.114459,-0.047583,-0.992288,-0.11471037594321065
1763249298.250026,0.031461,0.053678,-0.158771,0.985353,-0.058957,0.028834,-0.094428,0.00297,-0.021122,-0.005019,0.115773,-0.044955,-0.992258,-0.11603318131906998
1763249298.286319,0.030796,0.05455,-0.161074,0.984952,-0.047065,0.03459,-0.13832,0.000468,-0.00673,-0.002774,0.117378,-0.043091,-0.992152,-0.1176492147956157
1763249298.341962,0.030169,0.055476,-0.163676,0.984491,-0.05079,0.040374,-0.129196,-0.000119,0.001711,-0.001941,0.119107,-0.041243,-0.992025,-0.11939036751739333
1763249298.37148,0.029206,0.056418,-0.165861,0.984101,-0.0713,0.032955,-0.093726,0.001182,0.007138,0.000951,0.12073,-0.038767,-0.991928,-0.12102524255949809
1763249298.402172,0.027597,0.057367,-0.167103,0.983882,-0.100837,0.025007,-0.045302,0.000314,0.011061,0.004509,0.122108,-0.035131,-0.991895,-0.12241348517844816
1763249298.456938,0.025339,0.05806,-0.167365,0.983858,-0.130734,0.003192,0.005195,0.001685,0.014238,0.005002,0.122728,-0.030426,-0.991974,-0.12303817886035427
1763249298.486905,0.022522,0.058348,-0.166558,0.984046,-0.151982,-0.021708,0.060676,0.003914,0.01331,0.004453,0.122337,-0.02489,-0.992177,-0.12264416500343088
1763249298.547699,0.019408,0.058174,-0.164442,0.984478,-0.157853,-0.049566,0.136135,0.004756,0.015164,0.002167,0.120926,-0.01908,-0.992478,-0.1212226919862845
1763249298.578075,0.016355,0.057743,-0.160803,0.98516,-0.149609,-0.054487,0.211882,0.007089,0.014385,0.000411,0.119033,-0.013654,-0.992796,-0.11931594995371143
1763249298.607805,0.0135,0.057313,-0.155936,0.986011,-0.141965,-0.04027,0.256179,0.007118,0.008416,-0.00348,0.117234,-0.008748,-0.993066,-0.11750419017076139
1763249298.663644,0.010947,0.057118,-0.150676,0.986871,-0.127575,-0.035358,0.251619,0.00299,0.002853,-0.001783,0.116035,-0.004394,-0.993235,-0.11629702237776857
1763249298.696856,0.008672,0.056989,-0.145955,0.98761,-0.116355,-0.02466,0.206437,0.004868,-0.003876,-0.001675,0.115097,-0.000494,-0.993354,-0.1153526635472119
1763249298.731797,0.006695,0.056882,-0.142467,0.988141,-0.09539,-0.027867,0.131476,0.002382,-0.008937,0.000139,0.114322,0.002977,-0.993439,-0.11457253119628055
1763249298.76173,0.005113,0.056619,-0.140565,0.988438,-0.07549,-0.030214,0.051231,0.000539,-0.009839,-0.000636,0.113366,0.005809,-0.993536,-0.11361027782594227
1763249298.848023,0.004021,0.056327,-0.140762,0.988432,-0.06303,-0.020691,0.002829,-3.2e-05,-0.003685,-0.002297,0.112482,0.007908,-0.993622,-0.11272058457473078
1763249298.848242,0.002929,0.056035,-0.140959,0.988424,-0.05057,-0.011169,-0.045572,-0.000603,0.00247,-0.003963,0.111598,0.010008,-0.993703,-0.11183095443491033
1763249298.90678,0.001981,0.056047,-0.141906,0.98829,-0.052615,-0.00155,-0.058319,-0.001696,0.005999,-0.004122,0.111345,0.011991,-0.99371,-0.11157630436859313
1763249298.936687,0.000919,0.056223,-0.143021,0.988121,-0.057784,0.004648,-0.054299,1.1e-05,0.008404,-0.003931,0.111373,0.014266,-0.993676,-0.11160456927213228
1763249298.966659,-0.000361,0.056526,-0.144006,0.987961,-0.063234,0.006561,-0.046678,-0.000928,0.007888,-0.002492,0.111587,0.016993,-0.993609,-0.11181992237360504
1763249299.021663,-0.001639,0.056818,-0.144805,0.987826,-0.053186,0.003226,-0.038601,-0.000865,0.004971,-0.000383,0.111777,0.019694,-0.993538,-0.11201109363640867
1763249299.06914,-0.00266,0.05698,-0.145522,0.987709,-0.039086,-0.003614,-0.03441,-0.000444,0.005667,0.000676,0.111786,0.021839,-0.993492,-0.11202016744217073
1763249299.100412,-0.003444,0.056912,-0.146144,0.987619,-0.027561,-0.012294,-0.029712,0.001131,0.007496,7.5e-05,0.111407,0.023438,-0.993498,-0.11163880020964542
1763249299.131221,-0.004064,0.05665,-0.14668,0.987552,-0.021793,-0.02085,-0.020566,-0.001094,0.006739,-0.00043,0.110697,0.024646,-0.993549,-0.110924284509686
1763249299.186381,-0.00457,0.056254,-0.146984,0.987527,-0.011138,-0.030442,-0.014308,-0.002831,0.005851,0.000316,0.109761,0.025562,-0.993629,-0.109982622546626
1763249299.215973,-0.004924,0.055683,-0.147179,0.987529,-0.005657,-0.034966,-0.004979,-0.002159,0.006297,-0.000364,0.108528,0.026116,-0.99375,-0.10874221440954411
1763249299.258856,-0.005108,0.055149,-0.147217,0.987552,0.009165,-0.019411,-0.00329,-0.001295,0.003007,-0.002312,0.107422,0.026326,-0.993865,-0.1076296694971651
1763249299.287488,-0.005028,0.054863,-0.14728,0.987559,0.009396,-0.003341,-0.001969,-0.000897,0.005776,-0.005543,0.10688,0.026091,-0.99393,-0.10708449143473246
1763249299.343066,-0.004993,0.054963,-0.1474,0.987536,0.00117,0.009091,-0.008371,0.001261,0.005838,-0.002003,0.107084,0.026064,-0.993908,-0.10728974920694216
1763249299.374807,-0.00509,0.055272,-0.147695,0.987474,-0.002567,0.017213,-0.0187,0.001463,0.005454,0.000445,0.107656,0.02638,-0.993838,-0.1078650611135683
1763249299.40811,-0.005185,0.055541,-0.148097,0.987398,0.001219,0.009388,-0.016237,0.001752,0.005798,0.000622,0.108146,0.026691,-0.993777,-0.10835788420633109
1763249299.463048,-0.005196,0.055734,-0.14838,0.987345,0.004551,0.005405,-0.006007,0.001996,0.00689,0.001658,0.108516,0.0268,-0.993733,-0.10873015387658871
1763249299.492984,-0.005097,0.055862,-0.148441,0.987329,0.01263,0.00086,0.00112,0.001379,0.002688,0.001559,0.108796,0.026649,-0.993707,-0.10901176125885897
1763249299.583075,-0.004803,0.055848,-0.148437,0.987332,0.014299,-0.003647,-0.002175,0.002086,0.001438,0.000817,0.108854,0.026063,-0.993716,-0.10907012850936987
1763249299.583291,-0.004508,0.055833,-0.148432,0.987335,0.015968,-0.008155,-0.00547,0.002793,0.000189,7.4e-05,0.108912,0.025477,-0.993725,-0.10912845815384091
1763249299.612996,-0.004295,0.055677,-0.148553,0.987326,0.010073,-0.010434,-0.006308,0.002908,-0.000655,-0.000624,0.108666,0.025023,-0.993763,-0.1088810400743427
1763249299.653505,-0.004261,0.055511,-0.148653,0.987321,-0.000203,-0.007155,-0.001024,0.002597,0.00027,-0.000931,0.108348,0.024918,-0.993801,-0.1085610818625505
1763249299.686724,-0.004296,0.055407,-0.148662,0.987325,-0.001613,-0.005683,0.001664,0.00262,-0.001076,-0.000417,0.108133,0.024957,-0.993823,-0.10834485862939844
1763249299.741884,-0.00428,0.05531,-0.148665,0.98733,0.005912,-0.006859,-0.003306,0.001002,-0.001957,-0.000497,0.107945,0.024897,-0.993845,-0.10815574546573246
1763249299.773438,-0.004251,0.055182,-0.148779,0.98732,-0.000448,-0.006444,-0.00605,0.000897,0.000286,-0.002093,0.107699,0.024814,-0.993874,-0.10790827748612189
