timestamp,rot_x,rot_y,rot_z,acc_x,acc_y,acc_z,grav_x,grav_y,grav_z,pitch_rad,quat_rel_x,quat_rel_y,quat_rel_z,quat_rel_w
1763249269.727327,0.000158,0.004826,-0.004909,-0.537058,0.097779,-0.242506,0.5569500000000001,-0.11546800000000003,0.26707800000000004,-0.6364426581951541,-0.15453829797601815,-0.28528285708960827,-0.015058349339987682,0.9457826663798722
1763249269.755336,-0.003684,-0.000883,-0.011196,-0.145339,0.008391,-0.0288,0.152014,-0.014678000000000024,0.033586000000000005,-0.15640767888305634,-0.041759314324740573,-0.0699321519886877,-0.0025557906907109594,0.9966740298208357
1763249269.810647,-0.003621,-0.003081,-0.004814,-0.060159,0.004026,-0.008928,0.06445699999999999,-0.007360000000000033,0.01079399999999997,-0.06562416069742624,-0.02000947732192837,-0.028577814228796086,-0.00015718438312104129,0.999391267044233
1763249269.841154,0.001713,-0.003924,0.000968,-0.018187,0.001241,-0.00374,0.022399000000000002,-0.005230000000000012,0.0025690000000000435,-0.02271352591622744,-0.00968926161829576,-0.009013510688223536,0.0009616831176084817,0.9999119711254321
1763249269.898371,-0.001122,-0.001208,0.000128,-0.008959,0.001451,-0.001083,0.012045,-0.0040220000000000256,0.0010040000000000049,-0.012203398433524776,-0.007110453090136153,-0.004229924042226377,0.0008159161855684144,0.9999654411429567
1763249269.927743,-0.003306,-0.005763,-0.000986,-0.003519,0.00102,0.000847,0.006435999999999997,-0.0033210000000000184,0.00021599999999999397,-0.006517698411417833,-0.0057201678068269065,-0.0016417067792435863,0.000699931378493321,0.9999820471264362
1763249269.978231,-0.004315,-0.005642,-0.00296,-0.002566,0.001167,0.000598,0.0043179999999999885,-0.002975000000000033,-5.3999999999998494e-05,-0.004371964554995528,-0.005206349879415728,-0.0006616844614720855,0.0006104547466691414,0.9999860416223864
1763249270.008205,-0.005462,-0.009812,-0.001358,-0.000762,0.003035,0.000143,0.0028439999999999854,-0.0025620000000000087,-0.00019599999999997397,-0.0028792915875942016,-0.004887345741154713,2.9723813518055604e-05,0.00045087131561268387,0.9999879547690352
1763249270.047125,-0.006225,-0.012285,0.007087,0.000112,0.001922,-0.00079,0.0019779999999999798,-0.0021990000000000343,-0.00024999999999997247,-0.002002336979486874,-0.00482947436113913,0.0004677252791295913,0.0002725785304171033,0.9999881914859812
1763249270.079422,-0.005407,-0.007584,0.006672,-0.000623,-0.000232,-0.002263,0.001354999999999995,-0.0016420000000000323,-0.00021499999999996522,-0.0013717156141490605,-0.004936081657597004,0.0008191878995454439,-3.267448888028337e-05,0.9999874814023586
1763249270.140261,8.4e-05,-0.005332,0.003015,-0.000752,-0.001461,-0.001099,0.0011059999999999959,-0.0013020000000000254,-0.00017299999999997873,-0.0011195599927927846,-0.004969660991873947,0.0009579649581985417,-0.0002153331169810098,0.9999871691198909
1763249270.199992,0.000519,-0.005091,0.000228,-0.00124,-0.000895,-0.001056,0.0006539999999999879,-0.0013530000000000209,-0.0002590000000000092,-0.0006619471675958222,-0.004880095661956705,0.0011718621869213355,-0.00017239950747553748,0.9999873907623811
1763249270.200265,0.000954,-0.004851,-0.002559,-0.001728,-0.000328,-0.001013,0.00020099999999997897,-0.0014060000000000183,-0.0003450000000000397,-0.00020341937102325014,-0.004789298988234969,0.0013854674323129004,-0.00012958826595328363,0.9999875630736998
1763249270.253603,0.003442,-0.005592,0.001879,-0.002299,0.000372,-0.000706,-2.6999999999999247e-05,-0.00161200000000003,-0.00043199999999998795,2.7361872558140377e-05,-0.004777874395881631,0.0015011456733891072,-1.951994878662995e-05,0.9999874589698093
1763249270.285082,0.001749,-0.005931,0.013538,-0.00092,0.001571,-0.000789,-0.00035100000000001796,-0.0018670000000000353,-0.0005459999999999354,0.00035526036805133554,-0.00496195877055138,0.001714369939700977,8.474787982084252e-05,0.9999862162643375
1763249270.316935,-0.00409,-0.007561,0.018607,-0.000886,-0.001508,-0.000212,-0.0005620000000000069,-0.0019200000000000328,-0.0005920000000000369,0.0005686960916745365,-0.005327153290409026,0.0019131994861757047,5.3573741844274714e-05,0.9999839789893641
1763249270.371374,-0.009482,-0.009046,0.013395,-0.000691,-0.001793,-0.000487,-0.0007209999999999994,-0.0016970000000000318,-0.0005640000000000089,0.0007297340162777388,-0.005584389290789858,0.00205984716716775,-0.00010348621910662333,0.9999822803012559
1763249270.405837,-0.013317,-0.01133,0.008619,-0.000296,0.001326,-0.001449,-0.0011460000000000081,-0.0011880000000000224,-0.0005070000000000352,0.001159708599964504,-0.005916011720840225,0.002362922028096348,-0.0004204514196761294,0.9999796201050358
1763249270.437059,-0.010331,-0.011208,0.012708,-0.000768,0.001016,0.000398,-0.001375000000000015,-0.0009070000000000189,-0.00047600000000003195,0.0013916082148047737,-0.006139114680305619,0.002538558698777557,-0.000602108649026682,0.9999777519804377
1763249270.498321,8.2e-05,0.000376,0.010041,0.00038,-0.002798,-0.002383,-0.001493000000000022,-0.0007480000000000264,-0.0004549999999999832,0.0015108762966744016,-0.0064318053500912135,0.002672114557697308,-0.0007318000101692798,0.9999754777755674
1763249270.527664,-0.007917,0.006753,0.003017,0.000629,0.000985,-0.001427,-0.001375000000000015,-0.0005970000000000142,-0.00039999999999995595,0.0013915832317227816,-0.006542354122596598,0.0026388001949932856,-0.0008283071305097804,0.9999747738035011
1763249270.56203,-0.010781,0.003858,-0.001561,0.00227,0.001363,0.000843,-0.0010950000000000126,-0.0002860000000000362,-0.0002790000000000292,0.0011082201879695774,-0.006553595283591439,0.0024966750092075916,-0.0009927575055346163,0.9999749154030277
1763249270.618786,-0.009787,0.003294,-0.009498,0.00036,0.001377,0.001331,-0.0010270000000000001,0.00016299999999996873,-0.00015799999999999148,0.001039413434938491,-0.006370784288368043,0.002417129223132215,-0.0011977093811562872,0.9999760677566779
1763249270.646515,-0.003619,-0.006955,-0.008566,-0.000568,0.003693,-0.00084,-0.0011710000000000054,0.0005919999999999814,-7.499999999993623e-05,0.0011850580316331016,-0.006132234657279301,0.002435784776307943,-0.0013823971109207227,0.9999772755562295
1763249270.676991,-0.002651,-0.005095,0.004555,0.000872,0.001979,-0.001966,-0.0013250000000000206,0.0008669999999999789,-3.2000000000032e-05,0.0013409176468933415,-0.006070598790566909,0.002501627425643081,-0.001515602754747887,0.9999772960616842
1763249270.731501,-0.001771,-0.002521,0.005394,0.000358,0.000707,-0.000762,-0.0013240000000000196,0.0010639999999999816,1.7000000000044757e-05,0.0013398646464800046,-0.006206642182588087,0.0025359178237371206,-0.0016403306407885582,0.9999761777307486
1763249270.81082,0.000157,-0.003062,-0.00103,0.000674,-0.00015,-0.001308,-0.0014110000000000233,0.0011559999999999904,2.599999999997049e-05,0.0014278745876488141,-0.006169180193194961,0.0025719403676018157,-0.0016819595126391538,0.9999762483932743
1763249270.811066,0.002085,-0.003604,-0.007454,0.000989,-0.001007,-0.001855,-0.0014969999999999983,0.0012489999999999724,3.500000000000725e-05,0.0015149342993944492,-0.0061316242714687715,0.002608091981495605,-0.0017245695165544663,0.9999763131694632
1763249270.840717,0.002238,-0.00092,-0.00272,-0.001248,0.001743,-0.000403,-0.001689999999999997,0.0011249999999999871,-2.599999999997049e-05,0.0017101782125409082,-0.005982573931821932,0.002670680433751982,-0.00163481478699741,0.9999772015680075
1763249270.893273,0.004291,-0.002817,0.004559,0.000533,0.001272,-0.001304,-0.0017330000000000123,0.0009199999999999764,-8.399999999997299e-05,0.0017537791160329996,-0.006011519080076072,0.002700190064724233,-0.0015327316080547566,0.9999771104109243
1763249270.924983,0.002017,0.001964,0.005693,-0.000521,0.000948,-0.000866,-0.0017250000000000043,0.0007059999999999844,-0.00013499999999999623,0.0017456185420204884,-0.006142399175332361,0.0027269169300765065,-0.0014419114382533994,0.9999763775949069
1763249270.952953,0.00202,-0.001872,-0.003194,0.000826,-0.000228,9.2e-05,-0.0017469999999999986,0.0006119999999999737,-0.00016199999999999548,0.001767932999190036,-0.006115426597191775,0.0027312590343624463,-0.0013888025463889926,0.9999766062309201
1763249271.007726,0.002516,0.001833,-0.01043,0.001212,0.000282,-0.000487,-0.0017560000000000076,0.0005919999999999814,-0.00016799999999994597,0.0017769872754663518,-0.005952709436879006,0.0026965000620101684,-0.0013522976702819865,0.9999777324664718
1763249271.038246,0.003581,0.005815,-0.00959,-0.00016,0.002828,0.001107,-0.0017630000000000146,0.0004379999999999662,-0.00020799999999998597,0.0017842189131821728,-0.005659730249554426,0.002627411151891499,-0.0012253661072011077,0.9999797811166208
1763249271.099606,0.005475,0.002706,-0.003835,0.001008,0.002569,-0.00121,-0.0017739999999999978,0.00024899999999997147,-0.000256000000000034,0.0017953184428707858,-0.005501201411245183,0.002593675893201707,-0.0011004849935106233,0.9999808990981642
1763249271.127822,0.005486,-0.001558,0.000646,-0.000495,0.001026,-0.000859,-0.001712000000000019,8.599999999997499e-05,-0.00028600000000000847,0.0017325572703603687,-0.005425465590266716,0.0025422147626306467,-0.0010041467722790955,0.9999815464079771
1763249271.158318,0.008235,0.008226,-0.007052,0.001261,-0.003103,-0.002325,-0.0014570000000000138,-8.50000000000295e-05,-0.0002870000000000372,0.0014744717934424556,-0.0053802118820770635,0.0023971847659600976,-0.0009078895781852274,0.999982241123219
1763249271.213576,-0.005572,0.012111,-0.01114,0.000182,0.000463,0.000503,-0.0012050000000000116,2.199999999996649e-05,-0.00022100000000002673,0.0012195338378393483,-0.005115264994293413,0.0022019592653975528,-0.0009214844787927123,0.9999840680259797
1763249271.29576,-0.002116,0.00741,-0.01382,-2.7e-05,0.00169,0.000846,-0.0011500000000000121,0.00023399999999998422,-0.00015999999999993797,0.0011638540712676504,-0.004717224459397099,0.0020761683572698697,-0.0009692815039482414,0.9999862488113115
1763249271.296005,0.001341,0.002709,-0.016501,-0.000237,0.002917,0.00119,-0.0010960000000000136,0.0004469999999999752,-9.899999999996023e-05,0.001109206636226101,-0.004318187931352256,0.0019511216215534369,-0.0010158744992595813,0.999988257119257
1763249271.336937,0.00969,-0.001674,-0.00335,0.000557,0.004094,-0.001356,-0.0012330000000000119,0.00035299999999996445,-0.000144000000000033,0.0012478452041503607,-0.004094281469176991,0.001967273011232616,-0.000930285506027603,0.9999892505747389
1763249271.397662,0.010106,0.000966,-0.004424,0.000121,0.001105,-0.001691,-0.0011530000000000151,2.099999999996549e-05,-0.00021300000000001873,0.0011669209261896962,-0.004088265751893366,0.0019222969148442112,-0.0007562656463152486,0.9999895094049664
1763249271.397881,0.010522,0.003606,-0.005497,-0.000315,-0.001884,-0.002027,-0.0010720000000000174,-0.00031200000000003447,-0.0002809999999999757,0.0010848407994603348,-0.004081160800235924,0.0018781943655930412,-0.000582023155693936,0.9999897388281012
1763249271.434515,0.004434,0.01268,-0.021447,0.000345,-0.006401,-0.003043,-0.0008060000000000012,-0.0005150000000000154,-0.00028799999999995496,0.0008156214081811164,-0.0038426165552914743,0.0016804274893676401,-0.00043848304913464767,0.9999911090575144
1763249271.489232,0.00105,0.018274,-0.039908,-0.000502,-0.003664,-0.003385,-0.0004800000000000082,-0.00046600000000002195,-0.00022400000000000198,0.00048573235726495634,-0.003239420957224624,0.0013626118152858784,-0.00036781526357549006,0.9999937570569302
1763249271.519546,0.004885,0.022721,-0.046027,-0.000459,-0.002824,-0.002779,-0.00019800000000000373,-0.00041100000000002246,-0.00016599999999999948,0.0002004367262474216,-0.002356020830746064,0.0009992825272276578,-0.0002540132076631843,0.9999966930333151
1763249271.574471,0.006155,0.024075,-0.050264,0.000302,-0.002343,-0.000698,0.00013900000000000023,-0.0005040000000000322,-0.00013399999999996748,-0.000140737903555177,-0.001386671211285809,0.0005860201552719269,-5.007558563579172e-05,0.9999988656072393
1763249271.61713,0.001423,0.029818,-0.045139,0.000919,0.001545,-0.001941,0.0006369999999999987,-0.0004850000000000132,-4.899999999996574e-05,-0.0006448152107356997,-0.00043054389191528666,9.234586690038717e-05,9.402477831357836e-05,0.9999998986317644
1763249271.646477,0.00076,0.018231,-0.032566,-0.000266,0.002247,0.000341,0.0012049999999999839,-0.0003310000000000257,8.099999999999774e-05,-0.0012198394053718475,0.00034823517244753777,-0.0003945866333043367,0.0001405233361678471,0.9999998516434118
1763249271.698178,-0.003478,0.017401,-0.018155,8.2e-05,0.000819,0.000654,0.0018099999999999783,1.1999999999984245e-05,0.0002630000000000132,-0.001832254182224352,0.000847649686528522,-0.0008329408280389054,4.2439255718973786e-05,0.9999992929489978
1763249271.728317,0.001093,0.011683,-0.012075,0.000407,0.001269,5.7e-05,0.0021529999999999883,0.00025999999999998247,0.00038000000000004697,-0.0021795470432114383,0.0011622229497668165,-0.0010886077867727027,-3.4766259413702635e-05,0.9999987314802999
1763249271.757914,0.008245,0.003615,-0.010146,0.001288,0.00235,0.002645,0.0023819999999999952,0.0002909999999999857,0.0004250000000000087,-0.002411405501620917,0.0013387667163266385,-0.0012523091153377273,-2.227714562306679e-05,0.9999983194632318
1763249271.813639,0.009168,0.001484,-0.003468,0.000859,0.000615,0.00224,0.002556999999999976,0.00011899999999998023,0.00041199999999996795,-0.002588699870415101,0.0014325548816810328,-0.0013661562042001259,8.2639337724736e-05,0.9999980372853122
1763249271.844744,0.010146,0.007654,-0.006906,0.002563,-0.002103,-0.001871,0.0027579999999999827,-0.00011300000000002974,0.00038800000000005497,-0.0027922362756348518,0.0014476424552030132,-0.001474825106967807,0.0002062735062691272,0.9999978433344077
1763249271.878837,-0.000414,0.01041,-0.007669,0.001016,0.002224,-0.000154,0.003259999999999985,-0.00020700000000001273,0.0004469999999999752,-0.003300524723463788,0.0016397269869482638,-0.0017827681670407151,0.0002867281439437666,0.9999970254055971
1763249271.931988,0.000658,0.005987,-0.00592,0.001132,0.00117,0.001379,0.0036189999999999833,-0.00015300000000001424,0.0005190000000000472,-0.003664029569850652,0.0017857945394919323,-0.0020060848428568867,0.00028239648315650165,0.9999963534001974
1763249271.998285,0.006325,0.000452,-0.002717,0.001009,0.00186,0.000725,0.003671999999999981,-0.00034600000000001296,0.0004810000000000647,-0.0037178000335703065,0.001942055949325094,-0.0020715923301647347,0.00040871052569082036,0.9999958849313398
1763249271.99851,0.011993,-0.005083,0.000485,0.000887,0.002549,7.1e-05,0.0037249999999999783,-0.0005390000000000117,0.00044200000000005346,-0.003771410683997195,0.0020981861086473296,-0.002137004506323275,0.0005351318773984538,0.9999953722196255
1763249272.059428,0.019944,-0.012045,0.011113,0.000187,0.000865,0.000625,0.0037480000000000013,-0.0011200000000000099,0.00030399999999997096,-0.003794766022381213,0.0019979840150010936,-0.002124064331087446,0.0008218166392969066,0.9999954105034706
1763249272.089521,0.014102,-0.001276,0.006736,0.002001,-0.002554,-0.000137,0.003810999999999981,-0.0017410000000000203,0.00016300000000002424,-0.0038585980791659424,0.0017852210815297465,-0.0021040121196705397,0.0011100226046374829,0.9999955769744723
1763249272.11948,0.008071,0.001588,-0.002196,0.001487,-0.004625,0.000404,0.003955999999999987,-0.0021980000000000333,7.500000000004725e-05,-0.004005349731759172,0.0017018130849165442,-0.002158206310095865,0.0013354465561880875,0.9999953312692229
1763249272.174668,-0.003061,-0.00117,-0.013361,0.00264,-0.005223,-0.001864,0.003959999999999991,-0.0022540000000000338,6.20000000000065e-05,-0.0040093946368310596,0.0018486610257179951,-0.0021966381950561387,0.0013880301269776074,0.9999949152897822
1763249272.206801,-0.005009,0.001472,-0.014729,0.002098,-0.001128,-0.001132,0.003924999999999984,-0.0021170000000000355,9.00000000000345e-05,-0.003974016784696555,0.0021592135165797942,-0.002254456279247007,0.0013670911819086329,0.9999941931259277
1763249272.236991,0.000252,-9.8e-05,-0.006382,0.001033,-0.000388,2.7e-05,0.003938999999999998,-0.0020850000000000313,9.999999999998899e-05,-0.003988180604248021,0.002362447145169661,-0.002311679738388084,0.0013838203258758949,0.9999935799901813
1763249272.297673,-0.000384,-0.002487,-0.0031,0.00257,-0.000862,0.000422,0.003945999999999977,-0.0021280000000000188,9.100000000006325e-05,-0.003995317535170906,0.0024332920760741904,-0.0023321357879425453,0.0014184627694282404,0.9999933140755046
1763249272.328567,-0.001642,-0.007555,-0.005222,0.002145,-0.002025,0.001685,0.003833000000000003,-0.0020240000000000258,9.700000000001374e-05,-0.0038807720437951665,0.0024806650362474304,-0.002285239012091723,0.0013710449371572928,0.9999933720877433
1763249272.365214,-0.011911,-0.009912,-0.004396,0.002682,-0.001031,0.000593,0.003372999999999987,-0.0016530000000000156,0.00011200000000000099,-0.0034149777782812862,0.002559633816064478,-0.002065263265533093,0.0011905061670303954,0.9999938828100089
1763249272.420813,-0.016623,-0.00894,-0.002426,0.001099,-0.000381,0.000201,0.002937999999999996,-0.0011080000000000256,0.00017299999999997873,-0.00297438415952192,0.0026082016801784835,-0.0018515717053137356,0.000913631824808629,0.9999944671062457
1763249272.450692,-0.011079,-0.017366,0.000383,0.000609,0.001747,0.000633,0.002460999999999991,-0.0005670000000000119,0.00022800000000000598,-0.0024914994112830435,0.002603245141858725,-0.0016026533209174722,0.0006301471252129903,0.999995128753968
1763249272.480719,-0.008932,-0.013575,0.000686,0.000744,0.001911,-0.000539,0.001903999999999989,-0.00016600000000002724,0.00023499999999998522,-0.001927481850403756,0.0025932381439683614,-0.0013098029759294248,0.0004191684012507993,0.9999956919056924
1763249272.530386,-0.007738,-0.018727,0.00617,0.001237,0.002426,-0.002501,0.0012510000000000021,0.00013099999999996448,0.00020200000000003548,-0.001266428168557654,0.0025326161998249254,-0.0009551190478721532,0.0002534040518529842,0.99999630468776
1763249272.560561,-0.001987,-0.006746,-0.00182,0.000997,0.001921,-0.00209,0.0008419999999999817,0.00030099999999996796,0.00017699999999998273,-0.0008523184322840327,0.002489787371896656,-0.0007319339954172943,0.0001574878519619797,0.9999966202088114
1763249272.6094,-0.005908,-0.001405,-0.001029,-0.000325,0.001647,-0.000354,0.0007469999999999977,0.0005739999999999912,0.00022900000000003473,-0.0007561842116148298,0.002492349960167274,-0.0006829111869831145,1.54202424617108e-05,0.9999966607875264
1763249272.639463,-0.001636,-0.006319,-0.006221,0.00017,0.001406,0.001186,0.0005379999999999829,0.0008499999999999897,0.0002630000000000132,-0.0005445953501048151,0.002590307457465958,-0.0005983082654270317,-0.00011294491438637243,0.9999964597827043
1763249272.702195,-0.001397,-0.008046,-0.007966,8.5e-05,0.003362,0.000605,0.00019999999999997797,0.0009879999999999889,0.00024299999999999322,-0.0002025501021144238,0.0027824803208905628,-0.0004702325627497037,-0.00015419208320087592,0.9999960064467269
1763249272.731964,0.001527,-0.006645,-0.000377,-0.000263,0.004344,-0.001406,-0.0003270000000000217,0.0010489999999999666,0.00017299999999997873,0.00033087941272072485,0.0029249505991947016,-0.00023087670516004286,-0.00016422294859690968,0.9999956821860595
1763249272.762007,0.000685,-0.000956,0.007454,0.000388,0.002303,-0.004513,-0.0005170000000000174,0.0009889999999999899,0.00012699999999998823,0.0005232784203004215,0.00279274026743846,-9.84254919599997e-05,-0.00015417596984239332,0.9999960835643265
1763249272.814405,0.00495,0.000822,0.006517,0.000451,-0.002426,-0.002804,-0.0005080000000000084,0.0009149999999999714,0.00011099999999997223,0.0005140502841869399,0.002572576837353086,-4.913175055363227e-05,-0.00015120305373674155,0.999996678280545
1763249272.844506,0.006631,-0.004477,-0.000526,-0.000431,-0.00205,-0.000938,-0.0005730000000000179,0.0006519999999999859,3.500000000000725e-05,0.0005799510767912908,0.002510906508185874,-1.8830199949651516e-08,-2.4252215672308786e-05,0.999996847375199
1763249272.902084,0.003667,-0.002759,-0.01063,0.000135,-0.000299,-0.001314,-0.0007050000000000112,0.0004019999999999857,-4.700000000001925e-05,0.0007134397294343287,0.0026558383160901963,3.312930356828489e-05,0.00012943119093884042,0.999996464330177
1763249272.93026,0.002142,0.002964,-0.004854,0.0001,-0.000703,-0.00196,-0.0007790000000000019,0.00025399999999997647,-9.599999999998499e-05,0.0007884434756639525,0.002841761893484656,2.7012153597702135e-05,0.00023687673837579845,0.9999959337662805
1763249272.96069,0.005019,0.003894,-2.1e-05,0.000718,-0.00096,-0.000697,-0.0006180000000000074,-1.2000000000012001e-05,-0.00013499999999999623,0.000625426002767604,0.0028868566783310425,-6.745884104858088e-05,0.00038257732223088807,0.999995757562209
1763249273.016493,0.001739,0.002653,-0.0024,0.00059,-0.002203,-0.001749,-0.0004340000000000177,-0.000245000000000023,-0.00016300000000002424,0.00043925894425486667,0.002865743281979088,-0.0001580737602541165,0.000500089719264617,0.9999957562101957
1763249273.049508,0.002477,0.004672,-0.005057,0.000873,-0.000548,-8.8e-05,-0.0002640000000000142,-0.0002850000000000352,-0.00014499999999995072,0.0002671275986581012,0.002957191633500807,-0.000269677189922192,0.0005357785737210019,0.9999954476062258
1763249273.102198,-0.006079,0.000214,-0.006489,0.000394,0.00047,-0.000604,-0.00020400000000000973,-0.00019700000000003048,-0.00011399999999994748,0.00020643451057575368,0.0031027435362677887,-0.00033579122306576746,0.0005144285664838346,0.9999949977825153
1763249273.132738,-0.005003,0.002699,-0.002845,0.002167,0.003152,-0.001124,-0.00010000000000001674,4.999999999996674e-05,-3.6999999999953737e-05,0.00010122522749436702,0.0032212804277603414,-0.00041998719855624976,0.00040442624808260946,0.9999946416869286
1763249273.225123,0.000165,0.001173,-0.001723,0.002292,0.00334,-0.001161,-3.600000000000825e-05,4.899999999996574e-05,-2.6999999999999247e-05,3.645643900251905e-05,0.003253778981891873,-0.00046111427935154037,0.00041129695034275427,0.9999945155503489
1763249273.225362,0.005333,-0.000353,-0.000602,0.002416,0.003528,-0.001197,2.8000000000000247e-05,4.799999999996474e-05,-1.6999999999933735e-05,-2.831234193165222e-05,0.003286502956377481,-0.0005022056317246018,0.0004170790439755531,0.9999943863506897
1763249273.256827,0.008069,-0.00376,0.002441,0.000985,0.002148,-0.000749,-2.8000000000000247e-05,-0.00020200000000003548,-8.699999999994823e-05,2.8312341931624463e-05,0.0032562839958961403,-0.0004653178945754118,0.0005413853847979957,0.9999944434823927
1763249273.286827,0.013396,0.004177,0.00078,0.000728,-0.001158,-0.001146,0.00017099999999997673,-0.0006340000000000234,-0.00016099999999996673,-0.00017307917922204652,0.0031710042814800023,-0.0005481610136103907,0.0007536666660285449,0.9999945381040372
1763249273.341786,0.007431,0.004994,-0.002871,-0.000178,-0.000695,0.000427,0.0004750000000000032,-0.0008870000000000267,-0.00017400000000000748,-0.0004807680169756634,0.0031619689841306227,-0.0007029543445858428,0.0008842623244762688,0.9999943629278489
1763249273.373374,0.004414,-0.00041,-0.011858,0.002119,0.001689,0.001503,0.00048499999999998544,-0.0011610000000000231,-0.00023899999999998922,-0.0004909429114372532,0.0033224806526086937,-0.000747002534828364,0.001053652727879953,0.9999936464425437
1763249273.404776,0.001054,-0.005197,-0.003759,-0.000163,0.007889,0.002162,0.00027800000000000047,-0.0012340000000000129,-0.00029000000000001247,-0.000281449479470286,0.003499740502615258,-0.0006825258084255468,0.0011196221506242481,0.9999930161862007
1763249273.462485,0.015274,-0.013291,0.012,0.000738,0.007739,-0.001702,2.000000000002e-06,-0.0015460000000000196,-0.0004109999999999392,-2.0271769880786383e-06,0.003397491544564611,-0.0005130946050147175,0.0012647571053344252,0.9999932970648331
1763249273.500448,0.024206,-0.001812,0.019467,0.000839,0.002123,-0.002577,-5.9000000000003494e-05,-0.0022390000000000188,-0.0005889999999999507,5.963842206241354e-05,0.003011939185978245,-0.0003866743708580509,0.0015628717751137947,0.999994168051537
1763249273.531803,0.029396,-0.000196,0.008006,-0.000737,-0.00375,-0.003292,3.399999999997849e-05,-0.0032220000000000304,-0.0008129999999999526,-3.440247207467384e-05,0.002691382185398989,-0.0003551874876529856,0.0020236674315445694,0.999994267520523
1763249273.56181,0.029953,0.005083,-0.003488,0.000511,-0.004482,-0.001387,0.0002829999999999777,-0.004272000000000026,-0.0010259999999999714,-0.0002864873366919263,0.002620362765560453,-0.0004660801564328968,0.0025595449424073644,0.9999931825757377
1763249273.61631,0.027786,0.005381,-0.013886,0.000385,-0.00262,-0.000653,0.00043399999999998995,-0.005328000000000027,-0.0012550000000000061,-0.0004393818796318838,0.0028352791544381632,-0.0005953672913610649,0.0031435453562892266,0.9999908623845009
1763249273.646958,0.026758,0.005657,-0.010732,0.000235,-0.000441,-0.00126,0.0006149999999999767,-0.006428000000000017,-0.0014889999999999626,-0.000622558936322043,0.0030562924736031736,-0.0007408698769844101,0.0037524391914142965,0.9999880146223032
1763249273.701836,0.024986,0.004986,-0.002136,0.002587,-0.003398,-0.00082,0.0008969999999999811,-0.007548000000000027,-0.0017099999999999893,-0.0009079931170206945,0.0031447888943657108,-0.0009071196705564,0.004349978278492601,0.9999851824530651
1763249273.733364,0.030823,0.002865,-0.009363,0.001541,-0.007708,-0.00018,0.0010689999999999866,-0.008711000000000024,-0.0019569999999999865,-0.0010821612406023695,0.0032009393677741166,-0.0010087545346453234,0.004964276312729133,0.9999820460198992
1763249273.813089,0.029297,-0.000636,-0.021645,0.001718,-0.004797,-0.000893,0.0009149999999999991,-0.00993700000000003,-0.002271000000000023,-0.0009261673438428208,0.0036228895474769273,-0.0010271812368927557,0.005668786016463973,0.9999768419494189
1763249273.813325,0.027771,-0.004137,-0.033928,0.001893,-0.001885,-0.001608,0.0007619999999999849,-0.011162000000000033,-0.002581999999999973,-0.0007713282340545413,0.004045617304077636,-0.0010468254433730305,0.006374236427886919,0.999970952701668
1763249273.862986,0.023369,0.002903,-0.037982,0.001839,-0.000804,2e-05,0.0004190000000000027,-0.012014000000000025,-0.002835000000000032,-0.0004242201936270895,0.004792391195914096,-0.0010444952415153107,0.006935875374710319,0.999963917173566
1763249273.893076,0.029896,0.000335,-0.036127,0.001199,0.002037,-0.001148,0.00015299999999998648,-0.012912000000000035,-0.003086000000000033,-0.00015496698768277528,0.005549695419833156,-0.0010835766662849865,0.0075234546905618895,0.9999557112051887
1763249273.923182,0.036788,0.002883,-0.023258,0.001294,0.003638,-0.000173,-2.8000000000000247e-05,-0.014054000000000011,-0.003379000000000021,2.8309558079697705e-05,0.0061891039797811465,-0.0011382635060574811,0.008218990772165796,0.9999464223341196
1763249273.979757,0.040121,-0.001163,-0.012493,0.001389,0.003248,-0.001741,-0.00020900000000001473,-0.015313000000000021,-0.0036969999999999503,0.00021153779438759512,0.006565566126992094,-0.0011297004891037685,0.008932654880899003,0.9999379104699531
1763249274.015588,0.038606,0.006196,-0.013825,0.002665,0.002153,-0.001161,-0.00010700000000002374,-0.016668000000000016,-0.00398900000000002,0.00010822390104528457,0.006827407953722872,-0.001239194383284299,0.009677824766570968,0.9999290927889344
1763249274.045508,0.029348,0.003082,-0.01053,0.001662,0.001769,0.000513,2.8000000000000247e-05,-0.017733000000000027,-0.004209000000000018,-2.8372130678466778e-05,0.007077236726299025,-0.001363849485473882,0.010271308577662166,0.9999212733285573
1763249274.100477,0.029622,-0.001691,-0.008328,0.002855,0.001251,0.002191,-5.0000000000050004e-06,-0.01870700000000003,-0.004433999999999938,5.03852310151931e-06,0.007301447964554495,-0.0013962625378826975,0.010812333813121699,0.9999139126675155
1763249274.129771,0.03838,-0.011466,-0.005015,0.00056,0.00078,0.000928,-0.00034900000000001596,-0.01995600000000003,-0.004769000000000023,0.00035317854275163096,0.007477417892461684,-0.0012536554063379628,0.011486791239237445,0.9999052806125238
1763249274.183504,0.044927,-0.013547,-0.004834,0.001111,-0.000816,-0.002566,-0.0009810000000000096,-0.02144400000000002,-0.005201000000000011,0.000992746036300396,0.00758760329571489,-0.0009452754009325274,0.012272632275410344,0.9998954531488159
1763249274.214954,0.049851,-0.017603,-0.004028,0.001235,-0.003519,-0.003013,-0.0016590000000000216,-0.023163000000000017,-0.005688999999999944,0.0016789095106397312,0.007717494260177723,-0.0006158057461450352,0.013180945334229553,0.9998831550464902
1763249274.256803,0.054055,-0.013327,-0.01411,0.000365,-0.001849,-0.003911,-0.0024200000000000055,-0.025177000000000033,-0.006249999999999978,0.0024488867092270494,0.007961116999059843,-0.00026836815375781004,0.014257982032494874,0.9998666203764494
1763249274.286904,0.056974,-0.013348,-0.020068,0.000868,0.001239,-0.002356,-0.003054000000000001,-0.027251000000000025,-0.0067989999999999995,0.0030903044286221815,0.008314784976837943,-1.2292549976250858e-05,0.015385004380225654,0.9998470712263464
1763249274.34172,0.07085,-0.016604,-0.024661,0.001139,0.005932,-0.00518,-0.003839000000000009,-0.02960400000000002,-0.007425999999999933,0.0038844284212154745,0.00880271131420088,0.0002927959591698602,0.016674395176822884,0.9998221797347429
1763249274.425863,0.092666,-0.013871,-0.017648,0.001029,0.005085,-0.001589,-0.00436700000000001,-0.03288000000000002,-0.008199999999999985,0.004418489299756634,0.00920640998740698,0.0004898746276306917,0.018428569253136247,0.9997876723951318
1763249274.426108,0.114481,-0.011139,-0.010634,0.000916,0.004241,0.001991,-0.0048930000000000085,-0.036159000000000024,-0.008962999999999943,0.004950583815569287,0.009610493627281644,0.0006866734299652687,0.020182414080338943,0.999749887248671
1763249274.456773,0.13121,-0.019828,-0.002352,0.000535,0.003013,0.002604,-0.005365000000000009,-0.040389000000000036,-0.009896999999999934,0.005427925819754126,0.009773905993345738,0.0009156283999400686,0.022387232826494918,0.9997011774488609
1763249274.486812,0.120629,-0.010822,-0.002359,0.000187,0.001093,0.00102,-0.005939,-0.04494500000000001,-0.010890999999999984,0.006008357059642089,0.009885978294294166,0.0012111025180498467,0.02474986201635806,0.9996440591500692
1763249274.541713,0.106069,-0.012213,-0.004166,0.000299,0.000703,-0.000381,-0.0063539999999999985,-0.04904500000000003,-0.011750999999999956,0.006428027741582354,0.009958655011350945,0.0014300737495783061,0.02686851041655623,0.9995883468845719
1763249274.576381,0.096117,-0.009997,0.003473,0.000319,0.000635,-0.000626,-0.0067120000000000235,-0.052811000000000025,-0.012521000000000004,0.006789986200122777,0.00999556899440815,0.0016265680796297421,0.028809759578937583,0.9995336115557918
1763249274.606733,0.093956,-0.010682,0.015164,0.000528,-0.001838,-0.001665,-0.0070410000000000195,-0.056436000000000014,-0.01324599999999998,0.007122702202664893,0.009853763270492593,0.0018439401304380515,0.030649247691409025,0.9994799281877327
1763249274.664636,0.098959,-0.014989,0.027399,0.000114,-0.003906,-0.002407,-0.007372000000000017,-0.06021700000000002,-0.013983999999999996,0.007457240241644125,0.009445299875313555,0.002121244120354303,0.03252508301484185,0.9994240369375379
1763249274.728894,0.100383,-0.011807,0.02483,0.000131,-0.005769,-0.003322,-0.007619000000000015,-0.06448700000000002,-0.014780999999999933,0.007706988214367078,0.008925237339159784,0.0023769427231852534,0.03463384015945063,0.9993573872231796
1763249274.729129,0.101808,-0.008625,0.02226,0.000152,-0.007628,-0.004254,-0.007870000000000016,-0.06876000000000002,-0.015560000000000018,0.00796081373892435,0.008405562439145073,0.002633209551637688,0.03674332641907877,0.9992859153871829
1763249274.781821,0.100617,-0.008713,0.009094,0.001689,-0.009672,-0.001835,-0.008023000000000002,-0.07294100000000003,-0.016288999999999998,0.008115479733832809,0.008048696613675556,0.002802868338293598,0.038828700604083284,0.9992095347930271
1763249274.813445,0.096374,-0.003839,9.3e-05,0.001901,-0.009441,0.000277,-0.008121000000000017,-0.07684400000000002,-0.016946000000000017,0.008214523734337786,0.007958172030318325,0.0028862085176491405,0.04081265017241855,0.9991309548223558
1763249274.8467,0.092839,-0.007883,-0.005166,0.002202,-0.008896,0.000125,-0.008317000000000019,-0.08067100000000002,-0.017589999999999995,0.008412691969882313,0.008018019799459793,0.0029906626010140582,0.042778519358423216,0.9990479295695495
1763249274.90204,0.083656,-0.011697,-0.001689,0.001706,-0.007434,0.001071,-0.008500000000000008,-0.08413100000000001,-0.018159000000000036,0.00859759257613199,0.008107414869006388,0.003079867653465806,0.04456017670642975,0.9989690560228934
1763249274.933477,0.060349,-0.001735,-0.001479,0.003126,-0.005897,-0.000265,-0.008555000000000007,-0.08691800000000002,-0.018595000000000028,0.008653210706920489,0.00812684772824767,0.003114807464529753,0.04598720011722278,0.9989041143902848
1763249275.023523,0.03639,-0.002573,-0.004654,0.003262,-0.00443,-0.000477,-0.008407999999999999,-0.08825400000000003,-0.018774999999999986,0.008504593625288548,0.00817590751590334,0.0030346917781941436,0.046677850869483825,0.9988719254340414
1763249275.023758,0.01243,-0.003411,-0.007828,0.003397,-0.002962,-0.00069,-0.008261000000000018,-0.08959000000000003,-0.018952999999999998,0.008355955797578862,0.008225988189084646,0.0029542471025266115,0.04736948826395443,0.9988391948276666
1763249275.05456,0.009151,-0.004067,-0.008207,0.002139,-0.001075,0.000114,-0.008320000000000022,-0.09003200000000003,-0.019027999999999934,0.008415646312898789,0.008392293412369009,0.002953713872683887,0.0476202149728928,0.9988258907895684
1763249275.098052,0.026455,-0.007859,-0.003101,0.000425,-0.000214,2.3e-05,-0.008552000000000004,-0.09077700000000002,-0.019172999999999996,0.008650141122651361,0.008553220741789977,0.0030439669179622587,0.04802314001115128,0.9988049632955446
1763249275.127969,0.036199,-0.010727,0.005701,-6e-06,-0.000594,-0.000541,-0.008998000000000006,-0.09214700000000003,-0.01944100000000004,0.009100938758934501,0.008562003550834826,0.003277968627353315,0.04872054553687098,0.9987703717368989
1763249275.167437,0.03969,-0.014141,0.012291,-0.00106,-0.004403,-0.002287,-0.009353,-0.09376500000000002,-0.019730000000000025,0.009459838542377363,0.008334440147579395,0.003512418127651672,0.049508314353093386,0.9987327604701062
1763249275.221774,0.028189,-0.007287,0.01249,-7.7e-05,-0.006156,-0.001853,-0.009569000000000022,-0.09510300000000002,-0.019954999999999945,0.009678174008820983,0.008072604559057355,0.0036790172347206645,0.05014918010672499,0.9987023368463913
1763249275.258026,0.022542,-0.009398,0.00554,-0.000526,-0.006873,-0.003512,-0.009920000000000012,-0.09616400000000003,-0.02015800000000001,0.010032847059101874,0.007888684231802431,0.003899547150074425,0.050659350322101185,0.9986772213373338
1763249275.300734,0.016788,-0.004839,0.002046,0.001176,-0.006467,-0.003605,-0.010239999999999999,-0.09704900000000002,-0.020330999999999988,0.01035628088704646,0.007825887988986466,0.004079746364909187,0.05109857703503542,0.9986546182598749
1763249275.330546,0.014659,-0.002428,-2e-06,0.000943,-0.006766,-0.000931,-0.01041700000000001,-0.09786500000000004,-0.020471999999999935,0.010535141993800456,0.007828035674508498,0.004172612843639912,0.051513216832457145,0.9986329153653548
1763249275.383456,0.017611,-0.001908,-0.001013,0.0007,-0.009058,-0.003603,-0.010591000000000017,-0.09869400000000003,-0.020612999999999992,0.01071087519683045,0.007830621008540333,0.004265448128192213,0.05193495671699804,0.9986106586641712
1763249275.414739,0.009674,0.004504,-0.006161,0.001983,-0.00712,-0.002428,-0.010465000000000002,-0.09943500000000002,-0.020697999999999994,0.010583593071155029,0.007927837604698599,0.004184537869055878,0.05232861025472641,0.9985896832946678
1763249275.446968,-0.001237,0.010093,-0.01218,0.001206,-0.006362,-0.000157,-0.010202000000000017,-0.09981800000000002,-0.020711999999999953,0.010317754541066926,0.008105583991668008,0.004016091833466594,0.052553286474842184,0.9985771490451966
1763249275.480781,-0.009243,0.008609,-0.014202,0.001219,-0.005119,0.001399,-0.00991700000000001,-0.09976300000000002,-0.020662999999999987,0.010029822549400241,0.008348450540916123,0.003822657358358805,0.05256492492745879,0.9985752947733372
1763249275.536929,-0.013523,0.001158,-0.013577,0.001697,-0.001586,0.000547,-0.009793000000000024,-0.09935500000000003,-0.02058799999999994,0.009904492796959263,0.00864219373490872,0.0037012345059375083,0.05240324200947518,0.99858175107373
1763249275.625319,-0.017329,-0.001208,-0.0078,0.001914,-0.002169,0.000212,-0.009793999999999997,-0.09858000000000003,-0.020479999999999943,0.009905485432017497,0.008791827203140503,0.0036694108582829427,0.05203111687551839,0.9986000210670283
1763249275.625409,-0.021136,-0.003574,-0.002022,0.002131,-0.002751,-0.000123,-0.009793999999999997,-0.09780400000000003,-0.020371000000000028,0.009905454985762452,0.008942577292686018,0.0036373888378837165,0.05165901279877792,0.9986181182566548
1763249275.659387,-0.019862,-0.002526,-0.000512,0.001807,-0.00162,-0.000316,-0.00988,-0.09706900000000002,-0.020279999999999965,0.009992357723045242,0.008981974407209978,0.0036713947617360333,0.05128920633866031,0.9986367018637969
1763249275.689285,-0.02005,-0.010063,-0.003129,0.002907,-0.002329,0.000413,-0.01006700000000002,-0.09632000000000002,-0.020201999999999942,0.010181425016820012,0.008984246298205444,0.0037631346312379053,0.05090614666789635,0.9986559399350845
1763249275.744943,-0.019943,-0.012921,-0.006901,0.002141,-0.00158,-0.001261,-0.010466000000000003,-0.09555800000000003,-0.020151999999999948,0.010584621053737447,0.009077780058160356,0.003948013735277997,0.05052863896462409,0.9986735521386078
1763249275.776869,-0.018999,-0.014992,-0.00643,0.000669,-0.00268,-0.001222,-0.010939000000000004,-0.09482400000000002,-0.020116000000000023,0.011062552415397331,0.009176141830655894,0.004169083923429993,0.05016539895401611,0.9986900669918208
1763249275.814341,-0.015383,-0.01998,-0.006663,0.000922,-0.005381,8.5e-05,-0.01162100000000002,-0.09415500000000002,-0.020120000000000027,0.01175174623188674,0.009297261560361664,0.004494027667634903,0.04983608324534493,0.9987040249491157
1763249275.844285,-0.011832,-0.019743,-0.010701,-0.000486,-0.004361,-0.0021,-0.012419000000000013,-0.09366500000000003,-0.02016499999999999,0.012557941636898773,0.009471172349399416,0.004868804580249922,0.04960637603042963,0.9987120701650778
1763249275.900876,-0.032555,-0.031576,-0.021859,0.002363,0.005484,-0.011747,-0.013544,-0.09286200000000003,-0.02021099999999998,0.013694396469974557,0.009772681447728148,0.005385492899763828,0.0492326958961785,0.9987250036012628
1763249275.928902,-0.051709,0.002984,-0.008037,0.005775,0.00121,-0.009975,-0.014196000000000014,-0.09088200000000002,-0.020013999999999976,0.014352918186648106,0.010061147138909063,0.00565537270922993,0.04826000519980697,0.9987681222265173
1763249275.961746,0.046834,-0.032368,0.010966,-0.011331,-0.024012,0.010376,-0.014628000000000002,-0.09088300000000002,-0.020075999999999983,0.014789229950232574,0.010120739671977717,0.005865927432233161,0.04826564849649877,0.9987660330122689
1763249276.016152,0.134198,-0.057651,0.034706,-0.009169,-0.087117,0.007638,-0.016556000000000015,-0.09448700000000002,-0.020874999999999977,0.016736135754068127,0.009561842224866779,0.006983080247833591,0.05000313589775242,0.9986788743955236
1763249276.046674,0.175923,-0.068352,-0.028993,-0.004502,-0.116585,0.00517,-0.01869700000000002,-0.10133100000000003,-0.022133999999999987,0.018897461774688484,0.009346143188789163,0.008152415378678514,0.053439623731789745,0.9984940632504496
1763249276.104441,-0.047821,-0.03067,-0.128872,0.002734,-0.062667,-0.01515,-0.020804000000000017,-0.10525100000000001,-0.022950999999999944,0.021023838419380658,0.010972771989861012,0.00894383873914192,0.055656498952896066,0.9983496181938335
1763249276.133087,-0.393639,0.050491,-0.17645,0.007292,-0.014835,-0.023909,-0.02121500000000001,-0.09794600000000003,-0.022009999999999974,0.02143851442160441,0.014034045321124677,0.008530955351656043,0.0523856969496124,0.9984918663303252
1763249276.226809,-0.337331,0.037108,-0.135656,0.003607,-0.008303,-0.005063,-0.01980900000000002,-0.08268800000000001,-0.019556999999999936,0.020019720868487245,0.01689293730861754,0.00713821260250193,0.04504389153576303,0.9988166610671065
1763249276.227027,-0.281023,0.023725,-0.094862,1.5e-05,-0.001741,0.013556,-0.01849500000000001,-0.06746100000000002,-0.016876000000000002,0.01869357762087656,0.019751255282093698,0.005743755945266656,0.03769981615089029,0.9990773849130066
1763249276.268002,-0.222387,0.008735,-0.057405,0.006848,0.008898,-0.009379,-0.018722000000000016,-0.05755500000000002,-0.015149999999999997,0.018922670147565268,0.021500769185791198,0.005392905893650062,0.03288117952598681,0.9992134214087707
1763249276.297971,-0.146323,-0.019951,-0.043961,0.001999,-0.023833,-0.008864,-0.018886000000000014,-0.05021800000000001,-0.013804000000000038,0.019088171154142602,0.022359531452774282,0.0052138522665972735,0.029241346256932768,0.9993086664123536
1763249276.327941,-0.168473,-0.013337,-0.062405,0.006807,-0.015607,-0.026066,-0.02030600000000002,-0.04427000000000003,-0.012850000000000028,0.020521341610879235,0.02344289540425843,0.005643511830087489,0.026325262706442934,0.9993625778328532
1763249276.370413,-0.190412,-0.025971,-0.062407,-0.000688,-0.017868,-0.010814,-0.02139000000000002,-0.037176000000000015,-0.01157600000000003,0.02161507383968303,0.024721530616908783,0.005835130374541198,0.022849100203909223,0.9994161874801414
1763249276.426885,-0.165281,-0.015145,-0.066839,0.000551,-0.017244,-0.018236,-0.022931000000000007,-0.030785000000000035,-0.010458999999999996,0.023169795092444573,0.026121137362347016,0.006236692428834711,0.01974045357827502,0.9994443978245962
1763249276.456785,-0.138251,0.000249,-0.054863,7.4e-05,-0.019574,-0.011135,-0.023858000000000018,-0.02515400000000001,-0.009377999999999997,0.024104803052999724,0.0273995066772542,0.00634769390081978,0.017010629961004185,0.9994596601585852
1763249276.49891,-0.107075,-0.011753,-0.033707,-0.005132,-0.031557,-0.006439,-0.02451700000000001,-0.020921000000000023,-0.008537999999999935,0.02476950629809363,0.02831058273043836,0.006419445674001526,0.014948105863749445,0.9994667857181588
1763249276.5295,-0.103718,-0.002359,-0.042285,-0.002302,-0.05063,-0.010636,-0.025491000000000014,-0.017603000000000035,-0.007927000000000017,0.02575181560710496,0.02902172300636263,0.0067107944038831075,0.013321808112345714,0.9994674753391571
1763249276.593234,-0.13375,-0.004886,-0.074017,-0.00546,-0.055772,-0.003383,-0.026254,-0.013715000000000033,-0.007144000000000039,0.02652116584667316,0.03016296611624006,0.0067802108637294144,0.011466304289134387,0.9994562261958564
1763249276.623314,-0.203276,-0.010909,-0.085013,-0.006908,-0.043832,0.00082,-0.027408000000000016,-0.00813400000000003,-0.005998999999999977,0.027684721517250127,0.03181543706035146,0.006898045898347967,0.008800034083295539,0.9994312154058307
1763249276.653351,-0.246715,-0.027677,-0.084757,-0.010717,-0.026114,0.005316,-0.02921500000000002,-0.0007010000000000349,-0.004453999999999958,0.029506236504076827,0.033530922053214916,0.007300105447323728,0.005164524052112037,0.9993976753115021
1763249276.682705,-0.268112,-0.024185,-0.090819,-0.006247,-0.013688,0.017301,-0.031376000000000015,0.008126999999999968,-0.0025399999999999867,0.03168420266960996,0.03517663367719791,0.007866364293093097,0.0007791422039237666,0.9993498474975491
1763249276.737813,-0.268826,0.005368,-0.109669,0.000953,0.016612,0.033442,-0.033185000000000006,0.017735,-0.0002849999999999797,0.03350682450836191,0.037175667697893315,0.0081304862580108,-0.003967895657831845,0.9992677923001786
1763249276.823748,-0.262353,0.005069,-0.102879,0.00481,0.052419,0.031197,-0.03401900000000001,0.02829699999999996,0.002458999999999989,0.03434704699444596,0.0394483539093481,0.00777794971224887,-0.00916853361254327,0.9991492725631702
1763249276.823989,-0.255881,0.00477,-0.09609,0.008714,0.08826,0.028841,-0.034901000000000015,0.038825,0.005314000000000041,0.035235384605842926,0.04171998248270825,0.007425355286272153,-0.01436767393092868,0.9989984369889323
1763249276.855703,-0.243113,0.041956,-0.059237,0.012908,0.116395,0.014818,-0.03496200000000001,0.049514,0.008445000000000036,0.0352968521049756,0.04347896604081161,0.006753378792679357,-0.01972515870358895,0.998836768196397
1763249276.887069,-0.186514,0.04342,-0.006959,0.009428,0.123564,0.015158,-0.03362000000000001,0.05947599999999997,0.011658999999999975,0.03394498445591111,0.04428938516443685,0.005606979239275792,-0.024823440973529995,0.9986945523651365
1763249276.926949,-0.109385,0.005701,0.044972,0.004669,0.110577,0.013319,-0.03220200000000001,0.06670299999999996,0.01412100000000005,0.03251642206631582,0.043981488359800675,0.004788269621001529,-0.028652732823403786,0.9986098948325337
1763249276.983892,-0.043165,-0.014158,0.06503,0.002187,0.087263,0.012609,-0.03128500000000001,0.07110499999999997,0.01565899999999998,0.031592442933689555,0.0428594695494513,0.004529127597268482,-0.031127676762493173,0.9985858103400614
1763249277.013833,-0.014095,-0.018984,0.065914,-0.004206,0.065388,0.010782,-0.030832000000000012,0.07363799999999998,0.016545000000000032,0.031135963736904665,0.04162173804444582,0.004589863013399039,-0.03264316405568649,0.9985894992038077
1763249277.098254,0.003311,-0.010494,0.054572,-0.001124,0.065949,-0.008285,-0.03108100000000001,0.07384399999999997,0.01658000000000004,0.03138688012088792,0.040639511108689415,0.004997601692568909,-0.032902545892303514,0.9986194853836841
1763249277.098519,0.020717,-0.002005,0.04323,0.001958,0.06651,-0.027352,-0.03132900000000001,0.07405,0.016615000000000046,0.03163680943100461,0.039657516499707036,0.005406227351933183,-0.03316190116283799,0.9986482575973188
1763249277.13003,-0.014872,-0.009692,0.024291,0.011675,0.099371,-0.060832,-0.03172100000000001,0.074233,0.016623999999999972,0.03203180552814569,0.039086050588393075,0.00577216191252293,-0.033349935086753775,0.9986624778302059
1763249277.186363,0.056152,0.004973,0.080931,0.010458,0.082814,-0.034351,-0.030610000000000012,0.07469799999999999,0.016921999999999993,0.03091229124384494,0.037875432868770355,0.0055275638739593486,-0.03375529840587914,0.9986968896778206
1763249277.214588,0.210979,0.006135,0.117061,0.003908,0.061246,0.01151,-0.028908000000000017,0.069575,0.015476000000000045,0.029196884181961452,0.03589336643949646,0.0052980986194260775,-0.031305408488794886,0.9988511239399036
1763249277.246987,0.224928,-0.056637,0.111361,-0.00596,0.019324,0.045323,-0.028090000000000004,0.061150999999999955,0.012904000000000027,0.028372225496049674,0.033497695590644264,0.0056923275822955526,-0.027194252408004504,0.9990525383746254
1763249277.30399,0.098313,-0.056461,0.079801,-0.0099,-0.026461,0.047781,-0.029091000000000006,0.056016999999999983,0.011176999999999992,0.029381258010806238,0.031528932122151014,0.006848154439740736,-0.024791574393895417,0.9991718606221246
1763249277.337037,-0.035194,-0.049751,0.034331,-0.010534,-0.046958,0.03011,-0.030895000000000006,0.05553399999999997,0.010792000000000024,0.031199386139934435,0.03041686166345732,0.008105476709080371,-0.02472641443800909,0.9991985389315301
1763249277.423641,-0.119049,-0.013033,-0.007775,-0.007271,-0.036642,0.021298,-0.031849000000000016,0.060538999999999954,0.012218000000000062,0.03216072749844008,0.030716117820254428,0.008447801692712559,-0.02733670681348769,0.9991185411217262
1763249277.423887,-0.202905,0.023685,-0.049881,-0.004006,-0.026318,0.01246,-0.032806000000000016,0.06553699999999996,0.013670999999999989,0.03312497476631977,0.031015137389360094,0.008789666422193374,-0.029947711337875847,0.9990314998049507
1763249277.454751,-0.214624,0.035291,-0.081044,-0.002603,-0.017874,0.022473,-0.03273400000000001,0.07292299999999996,0.016063999999999967,0.033052379334728654,0.032270082421297905,0.008280703426989423,-0.033673734441093284,0.9988774456058499
1763249277.486967,-0.191328,-0.000827,-0.092713,-0.003518,-0.003544,0.025453,-0.03316000000000001,0.08018399999999998,0.01841400000000004,0.03348159441738856,0.03404073129805342,0.007875054392836752,-0.03727307293703328,0.99869411241122
1763249277.541937,-0.195038,-0.016908,-0.092174,-0.000397,0.000895,0.01619,-0.034572000000000006,0.087366,0.020672000000000024,0.0349040800233464,0.035810797752114126,0.007973900950026699,-0.0408561102030357,0.9984912528044869
1763249277.573559,-0.187861,-0.042997,-0.085658,-0.000864,0.009405,0.000457,-0.036751000000000006,0.09474499999999997,0.02296699999999996,0.03709854459233143,0.03757073887027495,0.008462480251146647,-0.04456767443960954,0.9982637669492898
1763249277.604296,-0.16867,-0.039335,-0.057624,-0.001739,0.020933,-0.008037,-0.03911400000000001,0.10168699999999997,0.025148999999999977,0.03947783366898715,0.03894336760069419,0.009160160899240936,-0.04811783013237097,0.9980401695300494
1763249277.658291,-0.131255,-0.036469,-0.040903,-0.002774,0.021308,-0.011411,-0.04118200000000001,0.10727599999999998,0.026932000000000067,0.04155945801432473,0.039842394234216524,0.009866111304110175,-0.051015851453826644,0.99785401054957
1763249277.705782,-0.087182,-0.016615,-0.028983,-0.003605,0.014809,-0.004606,-0.04266600000000001,0.11164299999999999,0.028370000000000006,0.04305291856769389,0.04050883861200051,0.010355403279989895,-0.05328809115602456,0.9977034524136734
1763249277.735691,-0.059612,0.002719,-0.025973,-0.001317,0.00796,-0.001042,-0.04349200000000002,0.11454799999999998,0.029359000000000024,0.04388414519619628,0.041083788050842895,0.010554163363676945,-0.054779130019027865,0.9975971024965162
1763249277.765219,-0.061888,0.018883,-0.032195,-0.001513,-0.004113,0.011331,-0.04365100000000001,0.117145,0.03032199999999996,0.0440441040460855,0.041740512807230214,0.010379978740408545,-0.05608422286024359,0.9974991456528175
1763249277.820257,-0.085675,-0.004036,-0.048114,0.00181,-0.006615,0.014341,-0.044130000000000016,0.12006599999999995,0.031379000000000046,0.044526061280953905,0.04263464015743747,0.010291737777133422,-0.05753635471016942,0.997379534319227
1763249277.851924,-0.140432,-0.018513,-0.048685,0.003196,-0.004365,0.01413,-0.04528600000000001,0.124384,0.03290800000000005,0.04568910727639823,0.04363813482993288,0.01049318558444903,-0.059739746625804745,0.9972044769845048
1763249277.90705,-0.169441,-0.05761,-0.039192,-0.000852,-0.003792,0.013892,-0.04714600000000001,0.13028499999999998,0.035004000000000035,0.04756012882941896,0.04447330506054721,0.011079607654191491,-0.06284118784907708,0.9969705876007265
1763249277.937039,-0.178344,-0.051108,-0.024507,0.001374,0.003016,0.002583,-0.04957500000000001,0.136598,0.03724800000000006,0.05000290039763433,0.04503267647228439,0.012042937764286797,-0.06622207203280249,0.9967154372615237
1763249278.024894,-0.158397,-0.030609,-0.018542,0.002904,0.010112,-0.002033,-0.050860000000000016,0.142764,0.03961400000000004,0.051295006225849385,0.04538540978844238,0.01247007192026316,-0.06953942391278595,0.9964682284982881
1763249278.025229,-0.138451,-0.010111,-0.012577,0.004437,0.017225,-0.006691,-0.05214600000000001,0.14891299999999996,0.04202300000000003,0.0525878574323468,0.0457374407316969,0.01289699139789413,-0.07285508509076312,0.9962097624017819
1763249278.056524,-0.09124,-0.006668,0.000582,0.002613,0.015931,-0.001314,-0.052417000000000005,0.15328799999999998,0.04383899999999996,0.05286023569832793,0.045849107608850144,0.012904903573147178,-0.07522666297536353,0.9960282485817514
1763249278.087071,-0.057063,-0.004246,0.017356,0.003218,0.017741,-0.002141,-0.052457000000000004,0.15612299999999996,0.045043000000000055,0.052900511324437086,0.0456792963580493,0.01291813043610706,-0.0767972048986557,0.995916017096835
1763249278.150816,-0.025674,-0.016803,0.026231,0.000666,0.013029,0.003366,-0.052374000000000004,0.15774299999999997,0.04574800000000001,0.052817064942543,0.04522171973749371,0.01299124637010093,-0.07774377118596006,0.9958625053808986
1763249278.180685,-0.021554,-0.031085,0.038422,-0.001518,0.008025,0.002005,-0.05269700000000001,0.15881399999999996,0.04617400000000005,0.05314172818132708,0.04454114351377776,0.01336861863047012,-0.0784292086040219,0.9958344369462953
1763249278.210218,-0.023268,-0.034368,0.06117,-0.002434,0.007142,5.8e-05,-0.053023000000000015,0.15975699999999998,0.04654500000000006,0.05346947068960317,0.04348238912722987,0.013878351552641742,-0.07909800695780708,0.995821358723176
1763249278.297802,-0.028756,-0.015791,0.067453,-0.003207,0.009595,-0.001663,-0.052182000000000006,0.161099,0.047221999999999986,0.05262399841743222,0.04204304893787662,0.01389045650918808,-0.08001802179892313,0.9958094965611449
1763249278.298017,-0.034243,0.002786,0.073736,-0.003985,0.012052,-0.003385,-0.05133800000000001,0.162437,0.047900000000000054,0.05177551546798401,0.04060323315802281,0.01390337379742561,-0.08093834058113672,0.9957946870103979
1763249278.32783,-0.02455,0.025991,0.069583,-0.003693,0.010561,-0.002723,-0.049720000000000014,0.16353799999999996,0.048566,0.0501487138206998,0.03920360650619329,0.013497423243680922,-0.08171184441152338,0.9957931870049903
1763249278.385224,-0.002545,0.038769,0.053354,-0.001111,0.009793,-0.000657,-0.04773000000000001,0.163997,0.048999000000000015,0.04814742867129668,0.03801678902190389,0.012835329124019931,-0.08210219351476934,0.9958158503954462
1763249278.414406,0.019174,0.037561,0.035417,-0.000871,0.008212,0.000436,-0.045751000000000014,0.163684,0.049095,0.046156928205597664,0.037211424243373134,0.012062070459306561,-0.08201753401703302,0.9958629124913626
1763249278.44695,0.038222,0.036101,0.005629,0.000733,0.005702,0.000613,-0.04418000000000001,0.162769,0.04888400000000004,0.044576340535079806,0.03685767490704406,0.011363554150333098,-0.0815444843577163,0.9959231288148466
1763249278.50948,0.047333,0.03049,-0.016225,0.000286,0.005255,0.002459,-0.04314100000000001,0.16158299999999998,0.04849199999999998,0.04353095091114309,0.037040731130848145,0.010770679302256385,-0.08085425576572217,0.995979199596674
1763249278.539503,0.048443,0.026295,-0.018081,5.7e-05,0.007685,0.004336,-0.04230700000000001,0.16014,0.04796699999999998,0.04269164419560299,0.03746052823300897,0.01021318975800947,-0.0799927265919261,0.9960389366243974
1763249278.623606,0.044787,0.023835,-0.00917,0.000751,0.006682,0.002563,-0.04164700000000002,0.15881099999999998,0.04747199999999996,0.04202749070320065,0.037615327903881134,0.009834747956825256,-0.07923374661655554,0.9960975746564253
1763249278.623842,0.041131,0.021376,-0.000259,0.001444,0.00568,0.000788,-0.04098600000000001,0.15748099999999998,0.04698000000000002,0.04136221622415219,0.03777017907331441,0.009456087469079756,-0.07847392503740956,0.9961555295594007
1763249278.654435,0.03888,0.019999,-0.000597,0.003217,0.002326,0.002094,-0.040256000000000014,0.15633899999999995,0.046580000000000066,0.04062743658026076,0.03784751093288438,0.009064686150941312,-0.07782764618713763,0.9962069337593169
1763249278.687332,0.040518,0.013769,-0.008777,0.004235,0.000134,0.001656,-0.039664000000000005,0.155161,0.046150000000000024,0.04003145395871491,0.03798464863857815,0.008726472022192568,-0.07715669885126204,0.9962569241798148
1763249278.746505,0.039785,0.006231,-0.015066,0.003203,-0.000592,0.000834,-0.03942000000000001,0.15385299999999996,0.04562200000000005,0.03978584956208099,0.038254684867539135,0.00853139871785967,-0.07639929727090618,0.996306650433547
1763249278.785758,0.03824,0.008376,-0.017427,0.004781,-0.001449,0.000903,-0.03934900000000001,0.15265499999999999,0.045121999999999995,0.03971430680531876,0.03861370505510683,0.008397688342536664,-0.0756924117646783,0.996347890755867
1763249278.818213,0.039821,0.000309,-0.013543,0.003532,-0.00013,0.001545,-0.039415000000000006,0.15134899999999996,0.044559000000000015,0.03978088481122795,0.03894490776007622,0.00834788884157851,-0.07493202874159678,0.9963928933809777
1763249278.84825,0.051309,-0.001849,-0.00874,0.004421,-0.003156,0.000182,-0.03952000000000001,0.14980099999999996,0.04389399999999999,0.03988644908373966,0.03912859305584443,0.008373588258125998,-0.07406308465208597,0.9964504481994936
1763249278.898071,0.05755,-0.002411,-0.005881,0.003739,-0.002773,-0.000453,-0.039548000000000014,0.14790599999999998,0.043094999999999994,0.03991465591526985,0.039226607453845534,0.008392868311356853,-0.07301713522673718,0.9965236228973453
1763249278.939347,0.051274,-0.00485,-0.003256,0.00282,-0.002918,-0.001227,-0.039624000000000006,0.14592,0.04225699999999999,0.039991155646200385,0.03928880976855187,0.008452680480005595,-0.07192896095352744,0.9965998024261392
1763249278.970693,0.036993,0.002502,-0.006653,0.003267,-0.004708,-0.00079,-0.039581000000000005,0.14435399999999998,0.04161199999999998,0.03994793508091954,0.03937710097597901,0.008432336391564986,-0.071063961956396,0.9966585438016206
1763249279.073647,0.015536,-0.000505,-0.009953,0.001957,-0.005466,0.001657,-0.03959800000000001,0.143731,0.041352000000000055,0.03996507480171038,0.03957821608839478,0.008387027638507131,-0.07069612415511742,0.9966771195367613
1763249279.073894,-0.005921,-0.003513,-0.013253,0.000647,-0.006224,0.004104,-0.03961400000000001,0.14310699999999998,0.041093000000000046,0.03998112382770036,0.03977943515120472,0.008342699503607493,-0.07032815107974802,0.9966955137200868
1763249279.107044,-0.030563,-0.00544,-0.019854,0.002214,-0.010096,-0.001327,-0.04004100000000001,0.14359699999999997,0.041242,0.04041094520149123,0.04008097670883028,0.008460306182035113,-0.07055736294619788,0.9966662415570476
1763249279.137091,-0.065255,0.00095,-0.034053,0.003538,-0.008128,-0.001649,-0.040526000000000006,0.14526499999999998,0.04187200000000002,0.040899157719353,0.04062534956499719,0.00850387726424269,-0.0713924647276926,0.9965843572042969
1763249279.19196,-0.092071,-0.00263,-0.056899,0.004008,-0.005042,-0.001389,-0.04130700000000001,0.14810999999999996,0.04296100000000003,0.041685259682380266,0.041549302091494274,0.008554668144036314,-0.07281858195675225,0.996442636216688
1763249279.22362,-0.104115,-0.009501,-0.088207,0.003586,-0.001395,-0.00105,-0.04258000000000001,0.15162699999999996,0.04428500000000002,0.042966367674399264,0.042975467364085126,0.008681675584893262,-0.07454893676671955,0.9962530771550113
1763249279.263216,-0.100577,-0.008207,-0.118149,0.001809,-0.001662,0.001727,-0.04433500000000001,0.155588,0.04575700000000005,0.04473235207533885,0.04504344044081498,0.00883280333288475,-0.07644238536980066,0.9960168832793509
1763249279.295741,-0.075357,-0.014821,-0.141741,0.00263,0.001246,0.00031,-0.046750000000000014,0.15910799999999997,0.046984000000000026,0.04716176727134945,0.047672970384709044,0.009148199801651727,-0.07803292808608472,0.9957682764927791
1763249279.351805,-0.051797,-0.020134,-0.146787,0.002853,0.007122,0.001496,-0.04940400000000002,0.16186799999999996,0.047872000000000026,0.04983100812800988,0.05056678775200607,0.009509173703157351,-0.07918343220154636,0.9955312951669124
1763249279.380355,-0.043138,-0.029145,-0.110978,0.000754,0.01811,0.003456,-0.05211500000000001,0.16406499999999996,0.04852500000000004,0.0525566397246576,0.05320776657229968,0.009993825199231685,-0.08007119194845543,0.9953178694538889
1763249279.408906,-0.059403,-0.021861,-0.025352,-0.00503,0.039099,0.006215,-0.05408900000000001,0.16623299999999996,0.04925900000000005,0.05454089011245959,0.05465946194912968,0.010487343264405619,-0.08110012099198512,0.9951508072778577
1763249279.464909,-0.097839,-0.101313,0.326526,-0.003981,0.095592,0.004608,-0.054652000000000006,0.16870599999999997,0.050292,0.05510679583636739,0.052129465019349945,0.011586225388540212,-0.08282206184950372,0.9951325461108381
1763249279.49687,-0.167395,-0.071126,0.778261,0.008432,0.086774,-0.008288,-0.04911200000000002,0.171485,0.052159999999999984,0.0495373087912743,0.040957724764427196,0.012417703669099705,-0.08581497634408193,0.995391408066582
1763249279.5517,-0.237363,-0.001458,0.998661,0.007668,0.028515,-0.014225,-0.035829000000000014,0.17495099999999997,0.055367000000000055,0.036170096229934,0.02280007322329533,0.01156566639988655,-0.09020819277456683,0.9955947338039136
1763249279.583441,-0.239882,0.024374,0.990522,-0.009288,-0.015825,-0.004737,-0.01852100000000001,0.17862499999999998,0.05949000000000004,0.018719793808515822,0.0027574341599433203,0.009279077644611982,-0.09528300088167105,0.9954031570262888
1763249279.673903,-0.190476,0.010148,0.756444,-0.009432,-0.031587,-0.000364,-0.005318000000000017,0.18109199999999998,0.06272600000000006,0.005380444403110252,-0.012479032505917515,0.007561431935991702,-0.09920657009965794,0.9949598760471978
1763249279.674023,-0.14107,-0.004078,0.522366,-0.009643,-0.046918,0.003985,0.007953999999999989,0.18312699999999998,0.06598700000000002,-0.008055927463964857,-0.027712412360314995,0.005843087623873096,-0.10310640261585005,0.9942670417286344
1763249279.708452,-0.09302,-0.021086,0.267162,-0.003545,-0.042699,0.003551,0.014630999999999977,0.18431899999999996,0.06778700000000004,-0.014826620655108452,-0.03640107476038499,0.0053598121754421454,-0.10541707936819418,0.9937471879443045
1763249279.738058,-0.05503,-0.0603,0.093657,-0.002053,-0.022585,0.006146,0.016268999999999978,0.18567699999999998,0.06874000000000002,-0.016488769236982392,-0.040165680944390714,0.005847296861542661,-0.10686574470875684,0.9934446334856961
1763249279.793592,-0.035046,-0.069832,0.007483,0.001361,-0.008636,6.6e-05,0.014706999999999998,0.186365,0.06876800000000005,-0.014903770948346606,-0.04137002138834991,0.007130553607462505,-0.10740252871057236,0.9933289351278122
1763249279.826909,-0.028098,-0.063323,-0.053212,0.001067,-0.009395,-2.3e-05,0.01213599999999998,0.18720199999999998,0.06867999999999996,-0.012295708554776491,-0.04117384069068204,0.008458515767451873,-0.10775020977704378,0.9932890116410195
1763249279.856945,-0.013253,-0.048752,-0.130847,-0.001726,-0.010696,0.001454,0.008809999999999985,0.188357,0.06861300000000004,-0.008923509463180601,-0.03952634404951472,0.009683498389553187,-0.1080120392784988,0.9933163128409394
1763249279.912668,0.007701,-0.053073,-0.211541,1e-06,-0.011533,0.001905,0.024350999999999984,0.4006985,0.09905999999999993,-0.0246172744373499,-0.058398621317117934,0.001568727062969261,-0.19378215567018592,0.9793036384428875
1763249279.948146,0.028666,-0.049408,-0.29427,-0.001606,-0.011576,0.003106,0.018532999999999994,0.4013985,0.09837699999999994,-0.01872731358250107,-0.053665016605603966,0.0033672778761682162,-0.19324808979407274,0.9796754070728564
1763249279.9795,0.056537,-0.054124,-0.374905,-0.000396,-0.012665,0.003364,0.011391999999999985,0.4015955,0.09727599999999992,-0.01150531052279799,-0.04740367354410849,0.005434888333073252,-0.19220711600718823,0.9801937452766826
1763249280.066959,0.07576,-0.052004,-0.445518,-0.000877,-0.008989,0.003393,0.0021609999999999963,0.4012335,0.09564699999999993,-0.002181069495551191,-0.03868731907559472,0.007928807953894886,-0.19050816659827266,0.9808909540853856
1763249280.067255,0.094984,-0.049884,-0.51613,-0.001364,-0.00514,0.003405,-0.007065000000000016,0.4006995,0.09403399999999995,0.0071263319534340674,-0.02996797120922794,0.010423327900016042,-0.18879354331398404,0.9815040870725107
1763249280.096964,0.115592,-0.044235,-0.556556,-0.003203,0.002961,0.00235,-0.01724200000000002,0.39936150000000004,0.09201599999999988,0.017380146768031526,-0.019798692672237314,0.013028312043998546,-0.18651411092540462,0.9821663613051815
1763249280.153851,0.124964,-0.039307,-0.546038,-0.0034,0.012767,0.001243,-0.027610000000000023,0.3973955,0.08980099999999991,0.027813842050881374,-0.009168107524324976,0.015622740689725592,-0.18393352746985073,0.9827717605071189
1763249280.186796,0.12247,-0.02619,-0.486614,-0.002728,0.022119,0.000217,-0.03709700000000002,0.3951235,0.08766899999999989,0.037350519901280424,0.000903271379001919,0.01792568215226115,-0.1813662037493619,0.9832518264197312
1763249280.21259,0.110643,-0.007613,-0.3904,-0.003421,0.026575,-0.000337,-0.044720000000000024,0.39289450000000004,0.08584799999999992,0.0450071060838592,0.009497560420390072,0.019662818523653078,-0.17909215946324053,0.9835899391171915
1763249280.251863,0.09629,0.005878,-0.274829,-0.003095,0.02888,-0.002322,-0.05002000000000002,0.3908215,0.08438599999999996,0.05032725487540693,0.016037763838329513,0.02074056247047974,-0.1772001770401433,0.9838255518415935
1763249280.310651,0.073869,0.031561,-0.163696,-0.002796,0.025781,-0.003697,-0.05283900000000001,0.38912250000000004,0.08335199999999987,0.05315597493122433,0.02040817091206812,0.02109654736927436,-0.17578292349919764,0.983991263200642
1763249280.340658,0.06113,0.050585,-0.08382,-0.002853,0.018076,-0.000179,-0.05331200000000001,0.38773050000000003,0.08267599999999997,0.0536305808684978,0.022933711145425563,0.02071047386311121,-0.174743888319179,0.9841289014456176
1763249280.377318,0.057894,0.042381,-0.043743,-0.001972,0.010852,0.002765,-0.05270700000000002,0.3863895,0.08212299999999995,0.05302354695139258,0.024318524445528227,0.02005921579225966,-0.17385859986236912,0.9842659317910423
1763249280.430771,0.058111,0.02578,-0.032712,-0.00088,0.004292,0.003187,-0.05226400000000002,0.3849365,0.08150699999999989,0.05257907960963444,0.02518365913045807,0.019627015792524877,-0.17297078835860497,0.9844093000060918
1763249280.460064,0.063071,0.007971,-0.041261,-0.000465,0.00106,0.005216,-0.05243000000000002,0.38318050000000003,0.08070399999999989,0.052745598533198476,0.026015812988875793,0.019523400149024685,-0.1719249464020553,0.9845729161041348
1763249280.49254,0.051326,-0.008903,-0.042102,-0.000434,0.000456,0.003593,-0.05331900000000002,0.3814215,0.07983899999999988,0.053637533673385,0.026865911937364352,0.019790079227310235,-0.17087841834218087,0.9847269376252613
1763249280.548187,0.048474,-0.025608,-0.038929,-0.001084,0.003315,0.000952,-0.05471200000000001,0.3798095,0.07899899999999993,0.05503509870873348,0.02763853021909945,0.020336862869196032,-0.16992446608038903,0.9848594821004985
1763249280.578233,0.044141,-0.036004,-0.027187,-0.003122,0.00681,-0.00037,-0.05635600000000002,0.37837350000000003,0.0782219999999999,0.05668419845948468,0.028235361771082858,0.021055475820591692,-0.1690885156747171,0.9849713219939683
1763249280.6106,0.036067,-0.032727,-0.010807,-0.004043,0.007626,-0.000388,-0.057923000000000016,0.3771605,0.07755499999999993,0.058255886443961194,0.028468442122157933,0.02182264559670473,-0.16841469546421417,0.9850633534417947
1763249280.667014,0.025599,-0.0196,0.007674,-0.003302,0.00709,-0.004276,-0.058977000000000016,0.37621350000000003,0.07705099999999998,0.059312971103052115,0.028351116442346332,0.022408440788736363,-0.1679200962086624,0.9851380193999031
1763249280.748236,0.016344,-0.004161,0.005495,-0.002633,0.0028,-0.004266,-0.05884600000000002,0.37593550000000003,0.0769399999999999,0.05918159458086371,0.028105131153769464,0.022405091989954246,-0.1677965131303498,0.9851662010224709
1763249280.748573,0.007089,0.011279,0.003316,-0.001963,-0.00149,-0.004256,-0.05871500000000002,0.3756585,0.07682999999999995,0.059050185891759796,0.027858163590577967,0.022401769678750034,-0.1676730165173676,0.9851943173651518
1763249280.778236,0.003628,0.016805,-0.011951,-0.001959,-0.00387,-0.000629,-0.05836100000000001,0.37558050000000004,0.07682499999999992,0.05869518060510595,0.028003145872493196,0.022184413294063822,-0.16761354484996438,0.9852052452209495
1763249280.873582,0.00605,0.01922,-0.016995,-0.000171,0.000161,-0.001448,-0.058060000000000014,0.3752835,0.0767199999999999,0.058393314667718646,0.02859832450809059,0.021885778658155743,-0.16738586880312695,0.9852335354893674
1763249280.873788,0.008471,0.021635,-0.022039,0.001618,0.004191,-0.002266,-0.05775900000000002,0.3749865,0.0766159999999999,0.058091386243617205,0.02919342364831019,0.021586981123616147,-0.1671571573095762,0.9852615038769356
1763249280.907029,0.007326,0.016592,-0.01574,0.001922,0.006197,0.000515,-0.05728100000000001,0.3746955,0.07652899999999996,0.05761197565757259,0.02966608789595429,0.02122693763616546,-0.16694492644318518,0.9852911914162328
1763249280.937213,0.014731,0.011251,-0.011222,0.00148,0.006156,0.003256,-0.05686300000000001,0.3743745,0.07642399999999994,0.05719274092985725,0.029991640502908427,0.020934694429890537,-0.16673236585011167,0.9853235804785635
1763249280.99205,0.021975,0.003138,-0.009492,0.001282,0.009432,-0.000875,-0.05686100000000002,0.3738175,0.07618099999999994,0.057190764486531195,0.030206115007181414,0.020888431398615175,-0.1664073998438631,0.9853729452989274
1763249281.025015,0.023591,-0.002239,-0.008003,-0.000954,0.017389,0.000115,-0.05701300000000002,0.3731485,0.07587799999999989,0.057343158130502295,0.030391998727414462,0.02093125085112955,-0.16602733881981893,0.9854304297694328
1763249281.056235,0.034933,-0.002175,-0.004127,-0.001776,0.031417,-0.000986,-0.057311000000000015,0.3722885,0.07547899999999996,0.05764209197601801,0.030499795674867044,0.021069683387712496,-0.16555209689780764,0.9855041015229069
1763249281.112754,0.038722,0.003516,0.002299,-0.002423,0.051915,0.003598,-0.05727800000000002,0.3713145,0.0750599999999999,0.057609008411350277,0.03053864149438038,0.021057009297317582,-0.16502207000509875,0.9855920607159754
1763249281.176923,0.090098,0.001485,0.014903,-0.003877,0.067898,0.01336,-0.05676800000000001,0.36929850000000003,0.07423499999999994,0.05709743307209078,0.03040486940659223,0.020854336187659663,-0.16394535359844317,0.9857801791535583
1763249281.177143,0.141474,-0.000547,0.027507,-0.005331,0.083882,0.023117,-0.056258000000000016,0.3672805,0.07341399999999998,0.056585880221483545,0.030270330320704343,0.020651766360496877,-0.1628696671232885,0.9859668773237853
1763249281.21062,0.206801,-0.000223,0.048088,-0.006371,0.092632,0.023771,-0.05563700000000002,0.3625255,0.07145099999999993,0.05596296796517505,0.02966315664354384,0.02054230169149458,-0.1603726715146193,0.9863968355638719
1763249281.267051,0.295614,-0.006083,0.066755,-0.005174,0.071241,0.021043,-0.05498700000000002,0.3550895,0.06841199999999992,0.055310928443220025,0.028465461391028988,0.020589776911288042,-0.1565067557461804,0.9870518800956436
1763249281.305739,0.365525,0.009743,0.066885,-0.004846,0.042697,0.018866,-0.05404100000000002,0.3448645,0.06435199999999996,0.05436191736868429,0.02713063958600102,0.020540248818291067,-0.1511741896961793,0.9879212473389977
1763249281.335643,0.394462,0.019938,0.047734,-0.00163,0.024786,0.016273,-0.05304500000000002,0.3327705,0.05970799999999987,0.053362691686921204,0.026035114207954006,0.0204187020666963,-0.1448371258288001,0.9889021470376848
1763249281.390741,0.374138,0.032142,0.03733,-0.003084,0.026476,0.019826,-0.05164600000000001,0.3201465,0.05508599999999997,0.05195891091226165,0.025287295964214286,0.020007798836262716,-0.138204057996058,0.9898787193398837
1763249281.473643,0.362416,0.029922,0.053092,-0.001881,0.034479,0.02192,-0.05000100000000002,0.30829650000000003,0.050952999999999915,0.05030817506061899,0.0242568809761657,0.019512186032199362,-0.13203690398883788,0.9907558399053701
1763249281.47389,0.350694,0.027702,0.068854,-0.000659,0.042535,0.023865,-0.048375000000000015,0.2963925,0.046969999999999956,0.04867625930346907,0.023226294594550556,0.019015966833819262,-0.1258647355210383,0.9915931628430086
1763249281.499916,0.389461,0.036383,0.071976,0.000958,0.040058,0.026358,-0.04653100000000002,0.2840055,0.04301999999999995,0.04682518972491656,0.02189911451626401,0.018460444906599364,-0.11949413826508072,0.9924216803745975
1763249281.580584,0.409904,0.045713,0.061142,-0.000919,0.038791,0.027032,-0.04419500000000001,0.26952950000000003,0.03864899999999993,0.044479937982699266,0.02077647399610136,0.017617276825191517,-0.11202832317222423,0.9933315783225527
1763249281.58079,0.430347,0.055042,0.050308,-0.002771,0.037593,0.027482,-0.04188300000000002,0.25498350000000003,0.03450099999999989,0.04215821900376755,0.01965220240050653,0.016773883859365256,-0.10455486191475265,0.994183438109421
1763249281.63309,0.436633,0.080895,0.03619,-0.004639,0.036171,0.028841,-0.03894200000000002,0.23988150000000003,0.030505999999999922,0.03920414378687684,0.018800640526700725,0.015552884334064593,-0.09678642556235022,0.9950060459773803
1763249281.663058,0.422739,0.11875,0.027924,-0.004549,0.033554,0.032205,-0.03513300000000001,0.2247965,0.026865999999999945,0.035377022955933896,0.018300086231312757,0.013821962319080523,-0.08901014648776218,0.9957666664554521
1763249281.692597,0.403581,0.18954,0.003212,-0.000443,0.019359,0.037374,-0.029573000000000016,0.21006950000000002,0.023765999999999954,0.029787811941828196,0.01824346158884715,0.011125442117935105,-0.08138115378051614,0.996453967053315
1763249281.751279,0.383957,0.261113,-0.012798,-0.00094,-0.005325,0.05923,-0.021046000000000023,0.1960495,0.021432999999999924,0.02120971781445434,0.018726043791986176,0.006836560323041686,-0.07405338368908938,0.9970550100626577
1763249281.782049,0.31854,0.289935,-0.018181,-0.00543,-0.021297,0.067948,-0.010689000000000018,0.1830615,0.019834999999999936,0.010779193439911197,0.019567581343554682,0.001566671164888258,-0.06720839410374689,0.9975458320617755
1763249281.822323,0.20861,0.218296,-0.001249,-0.006006,-0.050353,0.05766,-0.0006470000000000087,0.17318850000000002,0.019107999999999903,0.0006529775491058987,0.020145284526106012,-0.0035254482122368085,-0.06200031795348225,0.9978665738964967
1763249281.877239,0.064305,0.144122,-0.017086,0.00022,-0.072824,-0.029734,0.006148999999999988,0.16799750000000002,0.019025999999999876,-0.006207814539922751,0.020685291364412856,-0.007004915758281702,-0.059219090455448535,0.9980060867559969
1763249281.906937,0.032253,0.051652,0.017575,0.002826,-0.112599,-0.098904,0.009518999999999972,0.1663985,0.019203999999999888,-0.009612376275254575,0.020834776250336175,-0.008725073898135156,-0.05835525958924638,0.9980403042274105
1763249281.936817,0.205304,-0.043167,0.060308,0.00666,-0.149329,-0.153887,0.008835999999999983,0.16045949999999998,0.01795699999999989,-0.008922353191809923,0.02003612450784217,-0.00820604951187869,-0.05542593752347852,0.9982280200013213
1763249281.991857,0.482561,-0.115378,0.145564,-0.004024,-0.173258,-0.115532,0.006294999999999995,0.14594649999999998,0.0149419999999999,-0.006355318673022442,0.01789645177165926,-0.006493576412517111,-0.04831024014613401,0.9986509255873057
1763249282.074585,0.776073,-0.144576,0.222078,-0.001783,-0.184273,-0.07065,0.0012649999999999884,0.11189049999999999,0.008900999999999937,-0.0012766623683818645,0.012821147404680903,-0.003084453902406967,-0.03165923766168087,0.9994117254635512
1763249282.074787,1.069585,-0.173775,0.298591,0.000837,-0.195159,-0.026943,-0.004144000000000009,0.0777045,0.004033999999999871,0.004180784340413052,0.007741489146950222,0.00032592440185988646,-0.014998936794979788,0.9998574873521187
1763249282.10901,1.235445,-0.101971,0.307605,0.010284,-0.183201,-0.009546,-0.008779000000000009,0.0315805,-0.00024700000000010824,0.008854231423149922,0.0015654951087331784,0.0032405204692126685,0.007512437489772398,0.999965305165692
1763249282.138047,1.278475,-0.00489,0.269855,0.014866,-0.15599,-0.005932,-0.010297000000000014,-0.019513500000000003,-0.0019970000000000265,0.010384089410958114,-0.004373520726093027,0.004267068833914236,0.03251114285646259,0.9994526952438479
1763249282.191876,1.182267,0.123709,0.195579,0.021093,-0.114667,-0.019265,-0.008320000000000022,-0.0698305,-0.0007110000000001282,0.008391517214587002,-0.009273254005433006,0.003218038247416774,0.0572237112432738,0.9983131261590901
1763249282.223332,0.926824,0.187426,0.104426,0.020831,-0.058461,-0.008839,-0.002376000000000017,-0.11290850000000001,0.0029879999999998796,0.002397452220577162,-0.012594794962417749,-1.1427618037719578e-05,0.07850439720631637,0.9968342041826901
1763249282.254792,0.523312,0.250176,0.007764,0.021125,-0.017353,-0.002624,0.006180999999999992,-0.1420315,0.007223999999999897,-0.006240209860878448,-0.014112367192968654,-0.004555042436371437,0.09300911117891295,0.9955548191427342
1763249282.298948,0.116453,0.270773,-0.08157,0.017105,-0.007446,0.0164,0.016841999999999996,-0.1540375,0.010321999999999942,-0.017016406759942176,-0.013885306018232686,-0.010026552189915017,0.09911959707580305,0.9949281240388642
1763249282.348053,-0.181213,0.244485,-0.14363,0.009893,-0.015161,0.026814,0.027721999999999997,-0.15158349999999998,0.011739999999999973,-0.028032422727040512,-0.012162182508605375,-0.01546974929172509,0.09813583329939471,0.9949784552421786
1763249282.379263,-0.389991,0.202361,-0.181252,0.007825,-0.013001,0.017852,0.03729899999999997,-0.1394845,0.011872999999999911,-0.03774559382358553,-0.009430001084796661,-0.02018791603105751,0.09243227006130045,0.9954696371950169
1763249282.434653,-0.551337,0.171995,-0.192054,0.010807,-0.009407,0.00504,0.04522699999999999,-0.1206075,0.011254999999999904,-0.04579883504038912,-0.006276867350064195,-0.02407772346310385,0.08337729866444626,0.9962073530327528
1763249282.466754,-0.629881,0.138864,-0.173687,0.008288,-0.010813,0.008692,0.051910999999999985,-0.0972995,0.010486999999999913,-0.05259754131452457,-0.0032585595986383492,-0.02739434723432851,0.07207508782492145,0.9970176092948294
1763249282.498983,-0.603266,0.080172,-0.134955,0.006631,-0.013369,0.013962,0.056629999999999986,-0.0732485,0.009896999999999934,-0.057402763634783804,-0.0008110519369053494,-0.029783763395282405,0.06031298957000476,0.9977347407612396
1763249282.55129,-0.517124,-0.001729,-0.089953,0.004545,-0.00588,0.018734,0.05841799999999997,-0.0519905,0.009414999999999951,-0.059224682547049795,0.0009045036014617096,-0.030726642355215012,0.04983934499277396,0.9982840753079761
1763249282.583373,-0.418415,-0.097126,-0.03452,0.001502,0.002667,0.018636,0.05667299999999997,-0.0346925,0.008736999999999884,-0.057446675042906015,0.0017389686862130274,-0.029877436544195047,0.041210854228649306,0.9987021479235944
1763249282.67362,-0.301512,-0.163425,0.024991,2.7e-05,-0.001324,0.011192,0.049838999999999994,-0.0242785,0.007375999999999938,-0.05048912859118504,0.0008708741086696902,-0.02638195171387402,0.035773604485540254,0.9990112529016708
1763249282.673842,-0.18461,-0.229724,0.084503,-0.001457,-0.005341,0.003587,0.043014,-0.013839500000000003,0.006175999999999959,-0.04354971259097176,3.443865360547218e-06,-0.022885109181529976,0.03033453328051821,0.9992777831296674
1763249282.711779,-0.079249,-0.258698,0.116203,-0.00165,-0.012789,-0.002026,0.03408999999999998,-0.009008500000000003,0.0046719999999998985,-0.03448920462673202,-0.0018660659717626375,-0.018273023015523908,0.02758602392389968,0.9994506619697309
1763249282.741872,-0.00896,-0.255815,0.119591,-0.002806,-0.019765,-0.005887,0.02450299999999997,-0.008185500000000002,0.003094999999999959,-0.02477123644273599,-0.00413677333850074,-0.013310932411042264,0.02682482500102512,0.9995429630327848
1763249282.783039,0.022509,-0.225895,0.094588,-0.002426,-0.024544,-0.008872,0.015522999999999981,-0.009573500000000002,0.0016699999999999493,-0.01568222606282213,-0.006213346713866651,-0.008675381310447289,0.02723051601185733,0.9995722240435955
1763249282.823401,0.020869,-0.175002,0.057758,-0.001942,-0.025209,-0.009635,0.008041999999999994,-0.011406500000000002,0.0005399999999998739,-0.008120122258886836,-0.007714982145208522,-0.004834262408475281,0.027955913387430087,0.9995676944880421
1763249282.85796,0.004672,-0.120662,0.016291,-0.001475,-0.021592,-0.011367,0.0025359999999999827,-0.012748500000000003,-0.00025300000000005873,-0.0025596326850759743,-0.008430181510107347,-0.002026456331533875,0.028546445465428533,0.9995548639097968
1763249282.949511,-0.008184,-0.070346,-0.007619,-0.001649,-0.017869,-0.011452,0.00022499999999997522,-0.012685500000000002,-0.0005690000000000417,-0.00022703061026474458,-0.00811894624284636,-0.0008727980257865501,0.02856210651084394,0.999558666115789
1763249282.949749,-0.021039,-0.02003,-0.031529,-0.001823,-0.014144,-0.011542,-0.0020870000000000055,-0.012624500000000002,-0.0008800000000001029,0.002105885545380798,-0.007807503249813664,0.0002827598463976044,0.02857804678691276,0.9995610327447336
1763249282.979313,-0.023404,0.017393,-0.037191,-0.000441,-0.010961,-0.009327,-0.0024200000000000055,-0.012074500000000002,-0.0009170000000000567,0.0024417255250676895,-0.007141277249294894,0.00042479323864799863,0.02838992558322985,0.9995713250365538
1763249283.034693,-0.013113,0.03722,-0.036266,0.000415,-0.008932,-0.005063,-0.0013960000000000083,-0.011615500000000003,-0.0007750000000000812,0.001408700174645311,-0.006447478259701954,-0.00011896172708207673,0.02825031862265593,0.9995800795183528
1763249283.055958,0.006086,0.041771,-0.035101,0.001503,-0.01014,-0.000628,0.00017699999999998273,-0.011596500000000003,-0.0005620000000000624,-0.00017862117678696388,-0.005794313706742804,-0.0009411338967384155,0.028326413766095883,0.9995814896639534
1763249283.109218,0.015352,0.035117,-0.031433,0.001866,-0.011033,0.000718,0.00168299999999999,-0.012165500000000003,-0.00036400000000003097,-0.0016985203635599133,-0.0051651150797038,-0.0017289492919052426,0.028697404362754274,0.9995733046172252
1763249283.139175,0.020316,0.029415,-0.028784,0.002492,-0.011987,0.000934,0.0029709999999999737,-0.013087500000000002,-0.00019700000000011375,-0.0029987330441813564,-0.004603174827695463,-0.0024053168448430395,0.02923744470056827,0.9995590012899503
1763249283.194356,0.00691,0.027906,-0.024251,0.002497,-0.009224,0.001246,0.0042149999999999965,-0.013837500000000003,-3.2000000000032e-05,-0.004254724697536433,-0.0041092380188123044,-0.0030557878853463005,0.029683314933875923,0.9995462356178633
1763249283.274756,-0.003542,0.014625,-0.020424,0.001878,-0.008603,0.002542,0.004812999999999984,-0.013600500000000001,5.399999999988747e-05,-0.0048585231144313845,-0.003709738377203424,-0.003373973237411415,0.029618030701424068,0.9995487113708544
1763249283.274984,-0.013994,0.001344,-0.016597,0.001259,-0.007982,0.003838,0.005410999999999971,-0.013363500000000002,0.00014099999999994672,-0.005462452626947334,-0.003310155971233008,-0.0036923883382735606,0.029553728058690085,0.9995508922979552
1763249283.306779,-0.016477,-0.020237,-0.00562,0.000826,-0.005057,0.003357,0.005222999999999978,-0.012851500000000002,0.00011999999999989797,-0.00527255927728687,-0.003052585177543984,-0.0036070648231247,0.029331158449735908,0.9995585795495391
1763249283.339297,-0.019291,-0.030914,0.012821,0.000264,-0.002446,0.000943,0.004250999999999977,-0.012345500000000002,-1.0000000000065512e-05,-0.004291100356343863,-0.003113257366416415,-0.0031121767337913882,0.029067397539551926,0.99956776077704
1763249283.381096,-0.011872,-0.034595,0.029905,-0.000598,-0.005539,-0.000758,0.0030749999999999944,-0.011961500000000002,-0.00016900000000008575,-0.003103765213570947,-0.003559007976125322,-0.0024985859279426565,0.02881194450188441,0.9995753910459215
1763249283.437053,0.002236,-0.024981,0.037076,-0.000737,-0.009022,-0.003388,0.001908999999999994,-0.012071500000000002,-0.00033200000000011,-0.001926615876931076,-0.0042456200695023,-0.0018815668778270891,0.02877402928288149,0.9995751545807536
1763249283.467169,0.010443,-0.014117,0.024111,-0.000894,-0.012129,-0.003539,0.0011729999999999796,-0.012704500000000002,-0.00044000000000010697,-0.0011837961891466853,-0.004867622300124181,-0.0014857552112983435,0.02900905963062487,0.9995661925275097
1763249283.496543,0.012098,-0.003964,0.00332,-0.001025,-0.01379,-0.004007,0.0008059999999999734,-0.013478500000000003,-0.0004990000000000272,-0.0008133659406192595,-0.005180499313837689,-0.0012894006439174762,0.029357523945689835,0.9995547186925873
1763249283.547328,0.009438,0.00906,-0.011849,-0.001194,-0.011378,-0.004784,0.0008349999999999747,-0.014138500000000002,-0.0005020000000001135,-0.0008426326863339717,-0.0051117883848668545,-0.0013085991478015363,0.029700349114649985,0.9995449196760727
1763249283.580572,0.009294,0.018316,-0.01551,-0.000706,-0.009729,-0.003381,0.0014119999999999966,-0.014767500000000003,-0.0004290000000001237,-0.001425043445793056,-0.004875882377443445,-0.0016110522151088977,0.030048876813031578,0.9995352396409427
1763249283.633051,0.010598,0.019001,-0.009147,5.6e-05,-0.007525,0.000523,0.0022759999999999725,-0.015396500000000002,-0.000316000000000094,-0.0022971735778061775,-0.004641390242839816,-0.0020577794916812244,0.030397757581480767,0.9995249868683598
1763249283.664609,0.012395,0.01626,-0.005393,0.001156,-0.006894,0.000578,0.0029839999999999867,-0.0161465,-0.00022500000000003073,-0.0030118420030530446,-0.00448922778377756,-0.002423212147404071,0.030796200841133325,0.9995126656979123
1763249283.698336,0.012476,0.008447,0.001346,0.000586,-0.005866,0.000821,0.003474999999999978,-0.016900500000000002,-0.00016300000000002424,-0.003507509665779923,-0.004443286243303256,-0.002674355615451316,0.031182767123982675,0.9995002451544941
1763249283.751947,0.00933,0.000281,0.012966,0.000306,-0.001981,0.000739,0.003712999999999994,-0.0175445,-0.0001340000000000785,-0.003747863186653655,-0.0045822570589892486,-0.0027913606613281265,0.03148900464060714,0.9994896967015956
1763249283.78361,0.013287,-0.00652,0.023642,-0.000652,-0.003135,0.000299,0.0037239999999999773,-0.018125500000000003,-0.000136000000000025,-0.003758999697741572,-0.004972450777542736,-0.0027837113619497943,0.03172789195488023,0.9994802982332458
1763249283.874631,0.021556,-0.006359,0.028432,-0.00077,-0.004823,-0.001023,0.003487999999999991,-0.019277500000000003,-0.000176000000000065,-0.0035206253086687844,-0.005556624602916064,-0.0026441678256755963,0.03223037721298696,0.9994615225631452
1763249283.87484,0.029826,-0.006197,0.033223,-0.000886,-0.006512,-0.002346,0.003249999999999975,-0.020429500000000003,-0.00021400000000004749,-0.0032803610515468595,-0.0061396116971579665,-0.0025055487324688545,0.032731773119806906,0.9994421736259637
1763249283.906732,0.037832,-0.000786,0.025714,0.000178,-0.006282,-0.004,0.0030989999999999907,-0.022136500000000003,-0.000240000000000129,-0.0031279187953132948,-0.006695982539609435,-0.0024142726965013027,0.03351670452581471,0.9994128104156488
1763249283.936678,0.027559,0.004243,0.01382,0.001164,-0.005516,-0.002976,0.0031979999999999786,-0.023742500000000003,-0.000228000000000117,-0.0032279162752479607,-0.0070811526009275025,-0.0024557520703486005,0.034273645836248715,0.9993843823878291
1763249283.996669,0.009743,0.010859,-0.003262,0.002646,-0.005561,-0.002373,0.0035379999999999856,-0.024681500000000002,-0.00018100000000009775,-0.003571151731195432,-0.007186918200151316,-0.002627699775428074,0.034732805789380455,0.9993673376705243
1763249284.072909,-0.001091,0.011415,-0.009608,0.002852,-0.004974,-0.002275,0.00406999999999999,-0.0245665,-0.00010700000000007925,-0.004108279842254481,-0.006903198096213117,-0.0029055137577093607,0.034712280586795624,0.9993692818084373
1763249284.073104,-0.011924,0.011972,-0.015954,0.003058,-0.004388,-0.002176,0.004600999999999994,-0.024450500000000003,-3.2000000000032e-05,-0.004644554448381549,-0.006619547639276855,-0.0031834836429108634,0.03469273437598208,0.9993710328013636
1763249284.102873,-0.023477,0.014553,-0.008268,0.003076,-0.004552,-0.002537,0.005186999999999969,-0.023916500000000004,4.999999999988347e-05,-0.0052362602718347695,-0.006369740630320325,-0.0034867032367210723,0.03445673793904705,0.9993798089392448
1763249284.161746,-0.026385,0.018414,-0.003313,0.003297,-0.005971,-0.002995,0.005871999999999988,-0.023134500000000002,0.0001469999999998972,-0.005928016004510733,-0.006261720435810476,-0.0038344535453340295,0.03407763357228265,0.9993922166563565
1763249284.191136,-0.022381,0.015715,-0.004355,0.001995,-0.009509,-0.000791,0.006636999999999976,-0.022344500000000003,0.0002569999999999517,-0.006700715363324977,-0.006244480623545558,-0.00421874125373443,0.03368009764891626,0.9994042523955639
1763249284.221645,-0.019383,0.009043,-0.009216,0.001745,-0.008935,-0.001166,0.0071149999999999824,-0.021702500000000003,0.0003269999999999662,-0.007183608211823844,-0.006137325548635642,-0.0044619431383712905,0.033370264489340634,0.9994142533236413
1763249284.276722,-0.019654,0.003373,-0.008044,0.003156,-0.007925,-0.001537,0.007338999999999984,-0.021172500000000004,0.00035999999999991594,-0.007409812214233147,-0.005958631727130131,-0.004580650024119833,0.033127946164559885,0.9994228592223691
1763249284.306719,-0.016093,0.00064,-0.001252,0.002829,-0.008053,-0.000986,0.007416999999999979,-0.020727500000000003,0.0003729999999999567,-0.007488658283981209,-0.005853346361854807,-0.004622491295767354,0.032917879670844044,0.999430229735205
1763249284.340408,-0.018258,-0.002682,0.004383,0.002226,-0.007526,-0.000449,0.007401999999999992,-0.020327500000000002,0.00037199999999992794,-0.007473455897910486,-0.005894110091302988,-0.0046124532143665235,0.032710574113600045,0.9994368429684467
1763249284.380374,-0.025067,-0.002087,0.002459,0.002187,-0.008651,-0.000534,0.007294999999999996,-0.019682500000000002,0.00035999999999991594,-0.007365445050867475,-0.0059655681726235804,-0.004553818353689533,0.03237586565863288,0.9994475864484509
1763249284.476142,-0.034499,-0.004197,-0.002711,0.001635,-0.006087,-0.000782,0.007067999999999991,-0.018465500000000003,0.00033399999999994545,-0.007136153051277572,-0.0058578563043517025,-0.004439656257156428,0.03177677376302618,0.9994679642795208
1763249284.476368,-0.043931,-0.006308,-0.007882,0.001083,-0.003523,-0.00103,0.006840999999999986,-0.017247500000000002,0.0003089999999998927,-0.00690679002841163,-0.005749005982806649,-0.004325591564641083,0.031177742768740847,0.9994879621804716
1763249284.509372,-0.04567,-0.00962,-0.006325,0.002049,-0.002006,-0.000158,0.006607999999999975,-0.0156525,0.00028799999999995496,-0.006671389457378218,-0.005595136024442137,-0.004209281526842671,0.030393590880245142,0.9995134846690664
1763249284.539332,-0.044916,-0.007275,5.7e-05,0.001389,-0.001018,2.5e-05,0.006398999999999988,-0.014039500000000002,0.00027399999999988545,-0.006460347681801398,-0.005512311705964432,-0.00410259511007232,0.029591605791976096,0.9995384534872441
1763249284.603045,-0.039338,-0.00467,0.003455,0.001966,-0.002998,-0.00249,0.006132999999999972,-0.012535500000000002,0.0002529999999999477,-0.006191700306172082,-0.005525753047403961,-0.003963765492752441,0.028831387882685234,0.9995611565527823
1763249284.634976,-0.030849,-0.000559,-0.004056,0.002683,-0.003566,-0.002268,0.006045999999999996,-0.011331500000000001,0.0002549999999998942,-0.006103743315835658,-0.00550503068175281,-0.0039178354431383886,0.028226307438223505,0.9995787216477932
1763249284.665041,-0.028052,-0.001944,-0.008793,0.001659,-0.001679,-0.000865,0.006041999999999992,-0.010262500000000003,0.0002689999999999637,-0.0060997119886653794,-0.005367493452530932,-0.0039188853053502195,0.027706408572062663,0.9995940112245764
1763249284.748125,-0.02372,-0.005646,-0.006266,0.001093,-0.000812,-0.000298,0.005774999999999975,-0.009342500000000002,0.0002449999999999397,-0.005830105163495164,-0.0051904593519486765,-0.0037884821044955885,0.027266012658619283,0.9996075585392298
1763249284.748345,-0.019388,-0.009348,-0.003738,0.000528,5.5e-05,0.000269,0.005507999999999985,-0.008421500000000002,0.0002209999999999157,-0.0055603764749802,-0.005013518997129332,-0.003659218796110724,0.02682643673732414,0.9996208366360948
1763249284.783057,-0.014615,-0.010221,0.002589,0.000488,-0.001743,-0.001371,0.005121999999999988,-0.007738500000000002,0.00017799999999990046,-0.005170599207682508,-0.004978648809685976,-0.0034633051430545095,0.02648661865806861,0.999630770637628
1763249284.836921,-0.010908,-0.008637,0.006231,0.000471,-0.002503,-0.002065,0.004664999999999975,-0.007228500000000002,0.0001229999999998732,-0.004709192890249181,-0.0050493358918908375,-0.0032288722231737324,0.026220378483473767,0.9996382197292182
1763249284.866853,-0.004777,-0.010323,0.004564,0.001265,-0.00393,-0.00218,0.004184999999999994,-0.006988500000000002,5.899999999992023e-05,-0.004224381295864027,-0.005148771554546589,-0.002981480029573486,0.026086031484478724,0.9996419958613699
1763249284.921871,-0.002178,-0.011038,0.003858,0.000156,-0.003216,-0.001712,0.0037309999999999843,-0.006956500000000001,-3.000000000086267e-06,-0.0037660936508999154,-0.0052144562974914994,-0.002748447233785061,0.02606142826861566,0.9996429649829607
1763249284.953398,-0.005956,-0.008874,0.001882,0.00079,-0.003698,-0.00251,0.003231999999999985,-0.006918500000000001,-7.2000000000072e-05,-0.0032622557386147166,-0.00525532263851449,-0.0024946783360601256,0.026036828710848142,0.9996440575097951
1763249284.984693,-0.011389,-0.00584,-0.000454,0.000874,-0.00426,-0.002459,0.002788999999999986,-0.006625500000000003,-0.000128000000000128,-0.0028150543692850027,-0.005244979905084294,-0.0022703666727931547,0.025890499991572627,0.9996484470208278
1763249285.079315,-0.014468,-0.00395,-0.002914,0.000661,-0.004864,-0.001949,0.002593999999999985,-0.006060500000000003,-0.00014500000000006175,-0.0026181665502031104,-0.005192331582102334,-0.0021721637192778616,0.025612558385123718,0.9996560999916355
1763249285.079521,-0.017547,-0.00206,-0.005374,0.000449,-0.005468,-0.001439,0.0023979999999999835,-0.0054955,-0.0001620000000001065,-0.0024202442166505467,-0.005138641069923662,-0.0020751987544185896,0.025335509296054208,0.9996636433755075
1763249285.109194,-0.016901,-0.00274,-0.00685,0.000738,-0.004189,-0.00044,0.0022859999999999825,-0.004844500000000002,-0.00016500000000008175,-0.0023071733255801696,-0.0050206634883026595,-0.002021803439072752,0.025022700265663913,0.9996722311439914
1763249285.139049,-0.022171,-0.005338,-0.007418,0.000839,-0.00197,-0.0001,0.00210699999999997,-0.004050500000000002,-0.0001740000000001185,-0.0021264561867155862,-0.004854892545129214,-0.0019368727136382484,0.024645275468445388,0.9996825940965217
1763249285.194583,-0.029143,-0.007376,-0.002751,0.001773,-0.000486,-0.000642,0.0018219999999999903,-0.0030325000000000005,-0.000192000000000081,-0.0018387654776103046,-0.004749381510476671,-0.0017953350232379388,0.024145630914986067,0.9996955579850996
1763249285.226748,-0.033976,-0.011791,0.003131,0.001099,-0.000737,0.000201,0.00145099999999998,-0.0017915000000000014,-0.00021500000000007624,-0.0014643683578008382,-0.004749829837289029,-0.001604613350660076,0.023520303167174968,0.9997107880139317
1763249285.281231,-0.033773,-0.015282,0.01007,0.000538,7.5e-05,0.000476,0.0009409999999999696,-0.0005315000000000007,-0.000256000000000034,-0.0009495427346462304,-0.004863129039664923,-0.0013390780463844424,0.022869257359991492,0.9997257393474132
1763249285.349436,-0.032728,-0.011822,0.010382,0.000612,0.000224,-0.000929,0.00038199999999999346,0.0005314999999999973,-0.00030600000000002847,-0.0003854029437503903,-0.005135302208598246,-0.0010406575755803314,0.022297195603890426,0.9997376559734252
1763249285.349666,-0.031683,-0.008362,0.010694,0.000686,0.000372,-0.002335,-0.00017700000000001048,0.0015944999999999987,-0.0003540000000000765,0.00017862117678693612,-0.0054061849413129795,-0.0007424047848315495,0.0217251854721158,0.9997490876793627
1763249285.406955,-0.037235,-0.006508,0.005132,0.001852,-0.000358,-0.000746,-0.0005120000000000124,0.0027634999999999986,-0.0003690000000000637,0.0005167838041508499,-0.0056119502223148515,-0.0005603321385726777,0.02110798238343652,0.9997612940708883
1763249285.436834,-0.045505,-0.004565,-0.002193,0.001839,-0.000501,-0.000147,-0.0008090000000000042,0.004305499999999997,-0.0003650000000000597,0.0008163587535504613,-0.005659807654322162,-0.0004040468406885109,0.020323523855298224,0.9997773540651788
1763249285.466753,-0.048503,-0.008859,-0.005021,0.000863,0.000172,0.000324,-0.0010730000000000184,0.006131499999999998,-0.00034700000000009723,0.0010828372093171224,-0.005561510647511812,-0.00027035554464907834,0.019416106682030733,0.9997959848431626
1763249285.521895,-0.053056,-0.009649,0.001105,0.000923,0.001128,-0.001012,-0.001482000000000011,0.008080499999999997,-0.000340000000000118,0.0014954688987429132,-0.0055243797667903025,-5.995798954284374e-05,0.018438272203075003,0.9998147367144561
1763249285.553395,-0.053656,-0.008818,0.011818,0.00052,0.000453,-0.001209,-0.0018070000000000308,0.010110500000000001,-0.00031500000000006523,0.0018233365918768063,-0.005667901739586688,0.00011757058870349004,0.01739445833213677,0.9998326329373125
1763249285.58606,-0.043539,-0.009455,0.015753,0.00055,-0.001141,-0.001593,-0.0022090000000000165,0.011889499999999997,-0.00030600000000002847,0.002228978443172408,-0.005953514232387335,0.0003409963868555841,0.016459278607865425,0.9998467540265646
1763249285.649474,-0.03538,-0.007697,0.013212,0.000499,-0.002223,-0.002145,-0.0025260000000000282,0.013308500000000001,-0.0002950000000000452,0.002548712925783597,-0.0062527474920970804,0.000521801553544158,0.01570411400365494,0.9998569956125221
1763249285.679257,-0.030941,-0.009678,0.008439,0.00157,-0.002651,-0.001827,-0.0029010000000000147,0.0145355,-0.00029800000000002047,0.0029270606927556397,-0.0064914050784770985,0.0007289196776157623,0.015053892764450625,0.9998653462586086
1763249285.717561,-0.029668,-0.009502,0.005416,0.00132,-0.001371,-0.001478,-0.003279000000000004,0.0156105,-0.00030500000000011074,0.00330830260675799,-0.006613857958390071,0.0009297424279044245,0.014495300391944325,0.9998726312528368
1763249285.747149,-0.026823,-0.010186,0.002912,0.000696,-0.00064,-0.001413,-0.003719000000000028,0.0166365,-0.00032100000000012674,0.003752076165899537,-0.006698056117750381,0.0011602061525110051,0.013967502984447388,0.999879342133993
1763249285.801794,-0.025448,-0.009713,0.00258,0.000242,-0.000667,-0.001003,-0.004079000000000027,0.017613499999999997,-0.000328000000000106,0.0041152285527946975,-0.006762951035466445,0.001349322224746206,0.013467025165949336,0.9998855339767675
1763249285.833566,-0.025508,-0.008469,0.001498,4.3e-05,-0.000679,-0.000823,-0.0044440000000000035,0.018604499999999996,-0.0003340000000000565,0.0044834117844456955,-0.00682103715918294,0.0015403854999398133,0.012959212064666917,0.9998915738655105
1763249285.865505,-0.031138,-0.007679,0.000149,0.000615,0.000319,-0.002649,-0.004830000000000029,0.0197105,-0.000336000000000114,0.004872687349712301,-0.006833721097497057,0.001739528219030506,0.01240012477250972,0.9998982504250935
1763249285.947595,-0.026054,-0.007597,-0.000202,0.000626,0.00065,-0.002187,-0.005076000000000025,0.0208065,-0.00031900000000006923,0.005120784469800077,-0.00681029766766783,0.001866038938805887,0.011851402736414027,0.9999048364707194
1763249285.947804,-0.02097,-0.007514,-0.000553,0.000637,0.00098,-0.001726,-0.005323000000000022,0.021901499999999997,-0.000300000000000078,0.005369765599328419,-0.0067879124574457645,0.0019937840645848004,0.011301792632891123,0.9999111053252969
1763249286.00338,-0.014394,-0.007303,0.001508,-0.00043,0.001889,-0.000555,-0.005578000000000027,0.022713499999999998,-0.000296000000000074,0.005627035204775005,-0.006771231274863806,0.002124323819763945,0.010894310255547691,0.9999154722672248
1763249286.034516,-0.00835,-0.004203,0.00353,0.000212,0.000302,-0.003663,-0.005882000000000026,0.0232355,-0.00031000000000003247,0.0059335046244867184,-0.006832442500292734,0.0022824741733825037,0.010624640204598019,0.9999176091366984
1763249286.066736,-0.00621,0.003024,-0.001397,0.00039,0.000441,-0.002763,-0.00581000000000001,0.0235695,-0.00028500000000009074,0.005860954201884594,-0.006837542706776167,0.0022487989293013015,0.010454485595124309,0.9999194440773966
1763249286.121681,-0.005979,0.002435,-0.013606,0.000628,0.000447,-4e-06,-0.005617000000000011,0.023870499999999996,-0.00024500000000005073,0.005666290438211097,-0.0066768640297068076,0.002141963851021556,0.010323282139674853,0.9999221276296741
1763249286.160559,-0.007145,0.000983,-0.020714,0.000649,0.001691,0.000757,-0.005526000000000003,0.024209499999999995,-0.00021700000000002273,0.005574571626377256,-0.006289662860899081,0.002074436183258534,0.010203487243780262,0.9999260101145905
1763249286.190447,-0.008653,-0.001765,-0.015389,6.5e-05,0.003653,0.000546,-0.005498000000000031,0.024600499999999997,-0.00019400000000002748,0.005546315920034156,-0.005858757252082575,0.002035758376390945,0.010061994665386221,0.9999301410171851
1763249286.249327,-0.009686,0.002767,-0.006389,0.001219,0.003656,-0.002773,-0.00555300000000003,0.0249985,-0.00018100000000009775,0.005601719961483981,-0.005626233208020683,0.002049999490250483,0.00989221972832385,0.9999331412603673
1763249286.279342,-0.006331,0.003512,-0.000181,0.000419,0.000871,-0.001994,-0.005504000000000009,0.025423499999999995,-0.0001540000000000985,0.005552383998018856,-0.005557713458555231,0.002022208694472546,0.009686694440152578,0.9999355931478445
1763249286.309246,0.00127,0.002618,-0.001822,0.001756,-0.000534,-0.001765,-0.005511000000000016,0.0255685,-0.00014700000000011926,0.005559361701978849,-0.005526478505910014,0.0020244312919773856,0.009617236748472346,0.9999364322148642
1763249286.339206,0.006727,0.002342,-0.00765,0.001103,-0.001549,-0.001835,-0.005437000000000025,0.025368499999999995,-0.000148000000000037,0.005484815738879351,-0.005421948508404035,0.0019801144203720226,0.009732451636306547,0.9999359784538215
1763249286.394625,0.004653,0.00212,-0.01095,0.002239,-0.001275,-0.002069,-0.005364000000000008,0.0250685,-0.00015300000000006975,0.005411140120783919,-0.005221613468841852,0.0019307566948209062,0.00990962783498216,0.9999354010172555
1763249286.426867,-0.002134,0.003169,-0.009529,0.001005,-0.000572,-0.000929,-0.005221000000000003,0.025022499999999996,-0.00013700000000005375,0.005266978627568891,-0.004979114194850934,0.0018438999872057828,0.009965128558212783,0.9999362503017332
1763249286.481762,-0.007733,0.000481,-0.006816,0.000452,-0.000257,-0.000417,-0.005178000000000016,0.025232499999999998,-0.00012100000000003774,0.005223624882756767,-0.004775522388368467,0.0018100690024004814,0.009885132726337783,0.9999380991776979
1763249286.547993,-0.010867,0.000721,-0.003833,0.00065,-0.000543,-0.00094,-0.005185000000000023,0.0257675,-9.500000000006725e-05,0.005230677748481405,-0.004687337079037517,0.0018095440285901881,0.009626470073281101,0.9999410410096409
1763249286.54819,-0.014001,0.000961,-0.000851,0.000848,-0.000828,-0.001462,-0.005193000000000003,0.0263025,-6.900000000009676e-05,0.0052387596058337815,-0.00459806114380865,0.0018097538139543886,0.009369003084198205,0.9999439006294598
1763249286.642571,-0.012092,0.000606,-2.6e-05,0.000628,-4.7e-05,-0.000461,-0.005190000000000028,0.0267955,-4.300000000012627e-05,0.005235691721711316,-0.004596781136728911,0.0018087428784250839,0.009120227951388591,0.9999462083004742
1763249286.642812,-0.010184,0.000251,0.000798,0.000409,0.000734,0.00054,-0.005186000000000024,0.0272875,-1.7000000000044757e-05,0.005231657245115068,-0.004595476738317639,0.0018087168184387735,0.008871609141855178,0.9999484510154772
1763249286.672993,-0.012031,-0.0006,0.00232,0.000716,0.001352,-0.000873,-0.005195000000000005,0.0278015,8.999999999925734e-06,0.005240694567228005,-0.004619383455629502,0.0018155800797531258,0.008609064497543095,0.9999506232679397
1763249286.7176,-0.006867,-0.002988,0.004029,0.000824,0.000446,-0.000311,-0.005213000000000023,0.028249499999999997,2.999999999997449e-05,0.005258884460206503,-0.004675586365970184,0.001828919180751154,0.008374658209314406,0.9999523283870296
1763249286.747395,-3.3e-05,-0.008747,0.002671,0.001527,0.001806,-0.000426,-0.005398000000000014,0.0284265,1.4999999999876223e-05,0.005445481412940878,-0.004755363880387637,0.0019277813239059218,0.00827594825129569,0.9999525883031026
1763249286.80324,-0.001133,-0.008374,0.005839,-6.4e-05,0.001868,-0.000363,-0.005601000000000023,0.028463499999999996,-9.000000000036756e-06,0.005650130513094681,-0.00483479516160883,0.0020358924712109436,0.008246749994831127,0.999952234365279
1763249286.84934,0.005913,0.00038,0.006484,0.000221,-0.000816,-0.001567,-0.005665000000000003,0.028381499999999997,-2.2000000000077513e-05,0.005714708683759395,-0.0049876082648463525,0.002076802809345798,0.008268612793787647,0.9999512191583918
1763249286.879346,0.003376,0.006281,0.004279,0.000276,-3.5e-05,-0.001085,-0.005490000000000023,0.028167499999999998,-1.1000000000094268e-05,0.005538292190993888,-0.005107765014499561,0.001995029015137394,0.008360672164988064,0.9999500136290489
1763249286.911159,0.001061,0.005408,-0.003573,0.001442,-0.000851,0.000129,-0.005254000000000009,0.028076499999999997,1.4999999999876223e-05,0.005300295100894303,-0.005118839664160278,0.0018767042020421327,0.008404048480770662,0.9999498224565888
1763249286.943106,0.001291,0.002997,-0.005334,0.001082,0.001446,0.001172,-0.005059000000000008,0.028102499999999996,4.199999999987547e-05,0.005103623236722671,-0.004984757701470592,0.0017702311852429847,0.00840800419499743,0.9999506607516521
1763249286.998065,0.002456,-0.003999,0.00267,0.00071,0.00296,0.000454,-0.005084000000000005,0.028041499999999997,3.599999999992498e-05,0.00512877209441126,-0.004934486026591844,0.0017792932369642125,0.008445560641248944,0.9999505775130515
1763249287.028006,0.003896,-0.005138,0.011674,-0.000171,0.001521,0.000124,-0.005195000000000005,0.027952499999999998,1.599999999990498e-05,0.005240816527504244,-0.005071832417371614,0.0018442325910202621,0.008473357718222326,0.9999495374922974
1763249287.083412,0.0035,-0.003725,0.012502,0.000986,-0.001629,-0.0008,-0.005203000000000013,0.0278435,9.99999999995449e-06,0.005248783332984952,-0.005336399499111877,0.0018637825273902487,0.008492880427287049,0.9999479587144146
1763249287.149848,0.006028,-0.002642,0.002812,0.001088,-0.001973,-0.00065,-0.005090000000000011,0.0274905,5.999999999950489e-06,0.005134859586143098,-0.005342287082179308,0.001806278839961715,0.008670130281648314,0.9999465116526899
1763249287.149999,0.008555,-0.001559,-0.006879,0.001191,-0.002317,-0.0005,-0.004976000000000008,0.027137499999999995,1.999999999946489e-06,0.005019960530338485,-0.005347212857608174,0.0017477654551167417,0.008847292537533965,0.9999450375122247
1763249287.203485,0.005434,0.001149,-0.008316,0.001071,-5.9e-05,-0.001333,-0.004860000000000003,0.0267595,-2.0000000000575113e-06,0.0049029281788215695,-0.005156162002571625,0.0016762357230480534,0.009062912748875513,0.9999442323648406
1763249287.234625,0.000361,0.003601,-0.005065,0.000925,-0.000564,-0.000898,-0.0046670000000000045,0.026543499999999998,1.1999999999900979e-05,0.0047083074163701,-0.005002669407395817,0.00156971414580052,0.009192124662908445,0.9999440055025494
1763249287.27304,-0.002609,0.005728,-0.004472,0.002337,-0.00129,-0.000446,-0.004429000000000016,0.026481499999999998,3.999999999992898e-05,0.004468279436553424,-0.004921429389002436,0.0014432874384596728,0.009233765626704237,0.9999442154572875
1763249287.303006,-0.003791,0.003519,-0.011546,0.002495,-0.001459,-0.000322,-0.004152000000000017,0.026578499999999998,8.199999999991547e-05,0.004188822750661347,-0.004767887109962996,0.0012948627383127414,0.009205070540212761,0.9999454271405741
1763249287.357947,-0.004213,0.003242,-0.014072,0.001931,-0.000541,-0.001165,-0.004039000000000015,0.0267335,0.00010399999999988196,0.004074959818836266,-0.0044967802901132396,0.0012219329023685918,0.009162312011385051,0.9999471675471713
1763249287.387927,-0.005265,0.000261,-0.009211,0.001424,0.001529,-0.00017,-0.003930000000000017,0.026931499999999997,0.00012899999999993472,0.003964964644325053,-0.0042452392506874765,0.001151352029573756,0.009095168943823813,0.9999489638146998
1763249287.449576,-0.008047,0.000427,-0.003629,0.001302,0.00245,-0.000443,-0.0037910000000000166,0.027228499999999996,0.00016299999999991321,0.0038247281328248894,-0.004110053031551645,0.001073552118090564,0.008963664303495874,0.9999508026259002
1763249287.47738,-0.007713,-0.000821,1.5e-05,0.001033,0.000599,-0.000488,-0.003745000000000026,0.0276275,0.00018999999999991246,0.0037783158348196066,-0.00406026050088068,0.001048564959459524,0.008768376995468608,0.9999527640649114
1763249287.508171,-0.001113,-0.004324,-0.002424,0.001143,0.000447,-0.000508,-0.003813000000000011,0.027831499999999995,0.00019099999999994122,0.0038469992678150655,-0.004017056515880393,0.0010802754220998526,0.008670945553637153,0.9999537544132561
1763249287.563535,0.001081,-0.004878,-0.002987,0.001367,0.00071,-0.000883,-0.0039040000000000186,0.027887499999999996,0.00018199999999990446,0.003938777867132981,-0.003964838713484774,0.0011229614541673736,0.008650017171907949,0.9999540970536969
1763249287.595865,0.005523,0.000752,-0.005266,0.000563,-0.000816,-0.002239,-0.003937000000000024,0.0277315,0.00016999999999989246,0.0039719909866848535,-0.003928842389431013,0.001137137215578076,0.00873404647924077,0.9999534926928005
1763249287.638204,-0.000107,0.008253,-0.004003,-5.4e-05,0.000116,-0.001489,-0.0036780000000000146,0.027660499999999998,0.00019999999999997797,0.003710810982118201,-0.003857347763976103,0.0010014256961469647,0.008778604454606372,0.9999535259793989
1763249287.668731,-0.004999,0.007055,-0.005774,-2.5e-05,5.4e-05,-0.000693,-0.0033260000000000234,0.027813499999999998,0.0002549999999998942,0.003355699967623582,-0.003751716594716441,0.000817109156044626,0.008714345333521587,0.9999546575423449
1763249287.748474,-0.005697,0.003896,-0.003619,-1.7e-05,3.5e-05,-0.000452,-0.0031390000000000307,0.0281415,0.0002969999999998807,0.003167079871353312,-0.003597875970231495,0.0007146269135317782,0.008569101076648501,0.9999565566081435
1763249287.748549,-0.006396,0.000736,-0.001463,-8e-06,1.7e-05,-0.000211,-0.00295200000000001,0.028469499999999995,0.0003389999999999782,0.0029784742174197576,-0.0034450447248573547,0.0006111842402605918,0.008423629850299224,0.9999583994251028
1763249287.803737,-0.005055,-0.003625,0.003667,0.000108,-2.9e-05,-0.000825,-0.0028830000000000244,0.0287595,0.00036399999999991994,0.002908823469289029,-0.0034378272086748518,0.0005763004771771334,0.008278541594391129,0.9999596566716646
1763249287.83701,-0.000863,-0.002201,0.004949,0.001329,-0.001601,-0.001227,-0.002816000000000013,0.0289255,0.00038199999999988243,0.0028412103314413295,-0.0035713178272935133,0.0005501502219601336,0.008176447383086245,0.9999600435676925
1763249287.888325,0.001619,0.002164,0.003213,0.001384,-0.003326,-0.000329,-0.0026690000000000047,0.0290075,0.0004049999999998777,0.002693045453122156,-0.0037166979965147615,0.0004860948205034528,0.008116197810773629,0.9999600378019737
1763249287.918241,0.001426,0.000798,-0.002839,0.001499,-0.002616,-0.000714,-0.0025480000000000225,0.0289755,0.00041999999999997595,0.0025709004799140123,-0.003731324317346517,0.0004253742614383164,0.008129873937144413,0.9999598999086627
1763249287.948176,-0.001677,0.001933,-0.003998,0.000875,-0.000898,-0.000696,-0.0024220000000000075,0.0289595,0.00043599999999988093,0.0024437806945958873,-0.00364425414656034,0.00035619799664136876,0.00814956284148346,0.9999600877836052
1763249288.00322,-0.00198,0.001304,-0.000596,0.001381,-0.000746,-0.000162,-0.0023040000000000282,0.0290095,0.00045399999999995444,0.002324794956048676,-0.0035716267286066954,0.00029199150457081494,0.008133450999621188,0.9999605018191017
1763249288.053216,-0.002001,0.001739,0.001724,0.001618,-0.000674,8.9e-05,-0.0021180000000000088,0.029103499999999997,0.00048399999999992893,0.0021371352688394074,-0.003579475209347841,0.0001993687712817942,0.008084680693124813,0.9999608920089871
1763249288.08318,-0.003341,7.7e-05,0.000479,0.002214,-0.000802,0.000289,-0.0020120000000000138,0.029269499999999997,0.0005069999999999242,0.0020302121009058427,-0.003585057138724218,0.00014588915725686916,0.008000679318556586,0.9999615568671166
1763249288.1132,-0.004958,-0.001911,-0.003158,0.001868,0.000118,-0.000502,-0.0020180000000000198,0.029482499999999995,0.0005179999999999074,0.002036230209649381,-0.003546320083450915,0.0001472515606992259,0.007897106354497977,0.9999625181185889
1763249288.143156,-0.006504,-0.003359,-0.001266,0.001937,0.001243,-0.000873,-0.002055000000000029,0.0297925,0.0005299999999999194,0.0020735486031419614,-0.003520742499313982,0.00016479080962471552,0.007744368386344009,0.9999638003320617
1763249288.198226,-0.004093,-0.003553,0.001561,0.001546,0.002299,-0.00077,-0.002144000000000007,0.0300065,0.0005299999999999194,0.0021633124223151,-0.0035091776328281983,0.00020880685014370822,0.007638491406936681,0.9999646471356209
1763249288.229196,0.00151,-0.007438,0.001553,0.001191,0.002468,-0.000362,-0.002388000000000029,0.0300855,0.0005009999999999737,0.0024095706631304947,-0.0035264559674726965,0.0003337673380057168,0.0075961568220148925,0.9999648749377195
1763249288.283828,0.006868,-0.01325,0.00364,0.000563,0.001167,-0.000171,-0.002719000000000027,0.029933499999999995,0.0004489999999999217,0.002743430216077758,-0.003584949301529126,0.0005048398831610738,0.007665762895321525,0.9999640640315185
1763249288.350771,0.006248,-0.009265,0.003647,0.00048,0.000979,-0.000347,-0.002960000000000018,0.029573499999999996,0.0003969999999999807,0.0029865872352501655,-0.0037231510874424557,0.0006346024800529092,0.007828647902757764,0.9999622231352978
1763249288.350983,0.005627,-0.00528,0.003654,0.000398,0.00079,-0.000522,-0.0032020000000000104,0.029214499999999997,0.00034599999999995745,0.0032306289189302506,-0.0038614236627784607,0.0007642088003554375,0.00799251739468569,0.999960311741372
1763249288.386897,0.002187,-0.005402,-0.001141,0.000729,0.000576,0.000193,-0.0033160000000000134,0.0290435,0.00032199999999993345,0.0033455802546958346,-0.003927222864131155,0.0008254401355506551,0.008070561831306155,0.9999593799754494
1763249288.441946,0.00208,-0.0052,-0.005397,0.000406,0.000636,0.00045,-0.00352700000000003,0.028969499999999995,0.00028999999999990145,0.0035584274102340996,-0.0038660768432877196,0.0009283085428639952,0.008116671335747774,0.9999591548355955
1763249288.471983,0.003734,-0.009505,-0.00032,0.000702,0.00128,-0.000859,-0.0038830000000000253,0.028845499999999996,0.00023599999999990295,0.003917552693164822,-0.0037957592377135907,0.0011040597499508158,0.008188194983101561,0.9999586625090042
1763249288.528618,0.00635,-0.009875,0.007404,0.000135,0.001059,-0.00156,-0.004283000000000009,0.0286335,0.00017199999999994997,0.004320994034119979,-0.003865503220443489,0.0013093363175968457,0.008286765886292168,0.9999573356070778
1763249288.547394,0.009328,-0.009863,0.007683,-0.000174,-0.000935,-0.002172,-0.004603000000000024,0.028305499999999997,0.00011299999999991872,0.004643671452189108,-0.004030797405018044,0.001481321422243091,0.008431044416202368,0.9999552369227215
1763249288.608305,0.012155,-0.004999,0.002675,0.000247,-0.002458,-0.000521,-0.004774000000000028,0.027910499999999998,6.899999999987472e-05,0.004816221678662885,-0.004159135901069301,0.0015741006353658517,0.008614148896012612,0.9999530090131953
1763249288.650788,0.011221,-0.005705,-0.005023,0.000438,-0.00394,-0.001157,-0.004963000000000023,0.0274695,2.0999999999937735e-05,0.005006847261946001,-0.004146180159046439,0.0016690536107529558,0.008838242193258098,0.9999509532597419
1763249288.680749,0.007199,-0.003334,-0.007928,0.000487,-0.001598,-0.001619,-0.005141000000000007,0.027043499999999998,-2.4000000000024002e-05,0.005186303650361435,-0.003994403820222449,0.0017486015689096809,0.009073969562957756,0.9999493238194849
1763249288.722553,0.005355,-0.002234,-0.003476,0.000878,-0.000602,-0.00105,-0.005222000000000004,0.026710499999999998,-5.2000000000052005e-05,0.005268020116911576,-0.0038796526477012498,0.001780426843948707,0.009257829211625676,0.999948034136712
1763249288.750162,0.002906,-0.000426,-0.002377,0.001254,-0.001323,-0.001052,-0.005224000000000006,0.0265175,-6.200000000011752e-05,0.005270015127489508,-0.003824133440588451,0.0017787068356127059,0.00936206023692511,0.9999472806271048
1763249288.805834,-0.000306,-0.001144,-0.005717,0.000435,-0.000958,-0.000152,-0.005253000000000008,0.026500499999999996,-6.700000000003925e-05,0.005299304791369253,-0.003747243388361094,0.0017880286720005452,0.009381279389955208,0.9999473749740354
1763249288.835236,-0.004535,-0.002859,-0.006939,0.000851,-0.000297,-0.000346,-0.005345000000000016,0.026672499999999995,-7.000000000012552e-05,0.005392059572812358,-0.0035893694789317773,0.0018250911716938957,0.009315296812694367,0.9999485040312078
1763249288.865568,-0.008327,-0.000836,-0.004311,0.000972,0.00118,-0.000871,-0.005421000000000009,0.026978499999999996,-6.4000000000064e-05,0.005468683925713286,-0.003445132602116976,0.0018552471059660653,0.009180243242106817,0.9999502048869962
1763249288.948227,-0.005095,-0.002169,-0.004131,0.000952,0.000673,-0.000521,-0.005459000000000019,0.0273375,-5.0000000000105516e-05,0.005506962749379812,-0.0033948007876751056,0.0018728062894322272,0.009004951060310882,0.9999519382353412
1763249288.948436,-0.001864,-0.003503,-0.003952,0.000933,0.000167,-0.000171,-0.005498000000000031,0.0276975,-3.6000000000036e-05,0.005546256776937014,-0.003344564102383705,0.0018892242079183558,0.008830486821818058,0.9999536325377028
1763249289.003459,0.001703,-0.004064,-0.002837,0.000429,0.001594,-0.000161,-0.005671000000000009,0.0277585,-5.6000000000056005e-05,0.005720799874722765,-0.00327987596206004,0.001973428579043344,0.008807888663332892,0.999953883481939
1763249289.036899,0.004504,-0.002444,0.001386,0.001092,0.001983,-0.002894,-0.005890000000000006,0.0276755,-8.800000000008801e-05,0.0059415318898644875,-0.00325802692823383,0.0020824433699322704,0.008853144466100953,0.9999533341727546
1763249289.09181,0.004359,0.001848,0.000132,0.001442,0.001408,-0.002726,-0.005898000000000014,0.027394499999999995,-0.00010400000000010401,0.005949633962938766,-0.0032850219699914196,0.0020874009613075853,0.008992078870781371,0.999951995800531
1763249289.122575,0.001775,0.004016,-0.004471,0.001308,-0.000273,-0.000458,-0.005703000000000014,0.027278499999999997,-8.500000000011276e-05,0.005753037331347993,-0.003277470239319268,0.0019884891287483748,0.009051047660519116,0.9999516901511104
1763249289.205576,0.001122,0.000196,-0.003312,0.000617,0.001385,5.7e-05,-0.005753000000000008,0.0273155,-8.900000000011676e-05,0.0058033830956665255,-0.0030887377511176805,0.0020022348370001444,0.009056686691284878,0.9999522124486442
1763249289.205844,0.000469,-0.003624,-0.002154,-7.5e-05,0.003044,0.000572,-0.005802000000000029,0.027352499999999995,-9.40000000000385e-05,0.00585286575229127,-0.002900100349866493,0.0020148392753976912,0.009063153558852366,0.9999526934251558
1763249289.250594,-0.001063,-0.001342,0.007362,0.001372,0.002883,-0.002093,-0.005966000000000027,0.027368499999999997,-0.0001140000000000585,0.00601817962478382,-0.0029206182960873988,0.0020992504026436567,0.009052726899716212,0.9999525545105601
1763249289.279284,-0.002686,-0.001439,0.014781,0.001118,-0.000239,-0.00374,-0.006079000000000029,0.027408499999999995,-0.00012700000000009926,0.006132178501706165,-0.0031537243483340366,0.0021709954000404944,0.00900160929236807,0.9999521547713447
1763249289.307603,0.00174,-0.000227,0.009079,0.001132,-0.00255,-0.003763,-0.0061420000000000086,0.027367499999999996,-0.00013700000000005375,0.006195665325852334,-0.0033782028117153823,0.0022164926072977174,0.008992624907131357,0.9999514026209296
1763249289.363346,0.004751,8.4e-05,0.000715,0.001149,-0.002934,-0.002376,-0.006090000000000012,0.0271775,-0.000140000000000029,0.006143213524166524,-0.0034538094752772706,0.0021944002044895017,0.009079085493048656,0.9999504117777346
1763249289.394584,0.000214,-0.000745,-0.001367,0.001604,-0.001779,-0.001698,-0.006118000000000012,0.027019499999999995,-0.000152000000000041,0.006171470473392698,-0.003430977151074534,0.0022070650664150876,0.009161926749395586,0.9999497069142128
1763249289.426837,-0.006713,-0.000326,0.00186,0.000726,-0.001222,-0.001179,-0.006106000000000028,0.027082499999999995,-0.00014700000000011926,0.006159346970630364,-0.0034308592150785336,0.0022010527836747503,0.009129511665947802,0.9999500170450677
1763249289.484531,-0.009977,0.000582,0.004133,0.001008,-0.001931,-0.000767,-0.006067000000000017,0.0273575,-0.000128000000000128,0.006120065271416175,-0.0035230640658937083,0.0021877623526515644,0.008978636061051905,0.9999510917089691
1763249289.549267,-0.010544,0.000226,0.000724,0.001085,-0.001172,-0.000685,-0.006053000000000031,0.027875499999999998,-9.900000000007125e-05,0.006105939792096088,-0.0035239283025533265,0.0021807508917643195,0.008716560894688075,0.9999534228258014
1763249289.549608,-0.011111,-0.000129,-0.002685,0.001163,-0.000414,-0.000603,-0.006038000000000016,0.028394499999999996,-7.000000000012552e-05,0.00609086420632915,-0.003525906279655864,0.002174817871683649,0.008454588072075683,0.9999556780641149
1763249289.609371,-0.011487,0.000469,-0.002269,0.001287,0.001418,-0.001337,-0.005993000000000026,0.028900499999999996,-3.700000000006476e-05,0.0060454696911061145,-0.003468518342437864,0.0021499054986353957,0.008207087832259069,0.9999579946158582
