quat_x,quat_y,quat_z,quat_w,rot_x,rot_y,rot_z,acc_x,acc_y,acc_z,grav_x,grav_y,grav_z,pitch_rad
-0.026477,-0.118035,0.0,0.992656,0.001331,-0.00013,0.000211,0.000816,-0.000272,0.000139,-0.234336,0.052565,-0.970733,-0.23653580418708442
-0.026472,-0.11798,-1.5e-05,0.992663,-0.002479,0.003547,-0.000558,6e-05,-2e-05,1e-05,-0.23423,0.052552,-0.97076,-0.23642600194111943
-0.026497,-0.117945,-6.5e-05,0.992666,-0.003246,0.003172,-0.004175,0.000327,-0.000476,0.000426,-0.234164,0.052591,-0.970774,-0.23635798196689975
-0.026415,-0.117852,-0.000136,0.99268,-0.003954,0.001508,-0.006058,0.000348,-0.000622,0.001102,-0.233986,0.052411,-0.970826,-0.2361753113776947
-0.026333,-0.117758,-0.000208,0.992693,-0.004662,-0.000156,-0.00794,0.000369,-0.000767,0.001777,-0.233807,0.052231,-0.970879,-0.23599038946223744
-0.026182,-0.117746,-0.000417,0.992698,-0.002556,-0.007667,-0.012273,0.001041,0.002231,0.003546,-0.233795,0.051884,-0.970901,-0.23597828815866173
-0.026097,-0.117869,-0.000501,0.992686,-0.003092,-0.006955,-0.00773,0.001026,0.003314,0.00349,-0.23404,0.051695,-0.970852,-0.2362309871617699
-0.026013,-0.117992,-0.000586,0.992674,-0.003628,-0.006244,-0.003188,0.001011,0.004397,0.003433,-0.234286,0.051506,-0.970802,-0.2364837208060579
-0.026009,-0.118054,-0.000579,0.992666,-0.001263,-0.011532,0.006804,-0.00015,0.004125,0.002847,-0.234406,0.051501,-0.970774,-0.2366080159210101
-0.026122,-0.118067,-0.000493,0.992662,-0.001007,-0.01152,0.010424,0.000315,0.003819,0.001629,-0.234427,0.051744,-0.970756,-0.23662910622714503
-0.026234,-0.11808,-0.000408,0.992657,-0.000751,-0.011507,0.014044,0.000781,0.003514,0.000412,-0.234447,0.051987,-0.970738,-0.2366499666442726
-0.026598,-0.11817,-0.000164,0.992637,0.0026,-0.009622,0.014869,0.000114,0.000689,0.000683,-0.234609,0.052765,-0.970657,-0.2368158622346078
-0.02678,-0.118279,-4e-06,0.992619,0.002516,-0.009586,0.008779,-0.000113,0.000763,0.002163,-0.234813,0.053164,-0.970586,-0.23702534086534904
-0.026879,-0.118344,6.6e-05,0.992609,0.001862,-0.009921,0.005127,-0.00023,0.000523,0.002379,-0.234936,0.053376,-0.970544,-0.23715178947176904
-0.026978,-0.118409,0.000135,0.992598,0.001207,-0.010256,0.001476,-0.000347,0.000283,0.002595,-0.235059,0.053588,-0.970503,-0.23727802261566044
-0.027062,-0.118574,0.000145,0.992576,0.00013,-0.010226,-0.006464,-0.000154,0.000175,0.001247,-0.23538,0.053757,-0.970416,-0.23760908764691654
-0.027061,-0.118633,0.00012,0.992569,0.001075,-0.010542,-0.006304,1.3e-05,0.000495,0.000895,-0.235497,0.053749,-0.970388,-0.2377292828552163
-0.027085,-0.118743,6.1e-05,0.992556,-0.003383,-0.006148,-0.002137,-0.001284,0.002179,0.000809,-0.235715,0.053782,-0.970333,-0.2379540792882341
-0.027107,-0.118864,5.6e-05,0.99254,-0.009682,-0.004056,0.004632,-0.000191,0.002835,-3.6e-05,-0.235951,0.053823,-0.970273,-0.2381976117647054
-0.027198,-0.118927,0.000103,0.99253,-0.002063,-0.004088,0.00067,-0.000547,0.000909,0.001074,-0.236072,0.054014,-0.970233,-0.2383212183155778
-0.02725,-0.118969,9.9e-05,0.992524,-0.000937,-0.003852,-0.000342,-0.000773,0.000508,0.000894,-0.236154,0.054116,-0.970208,-0.23840576087937543
-0.027302,-0.119011,9.4e-05,0.992517,0.000189,-0.003616,-0.001354,-0.000999,0.000107,0.000714,-0.236236,0.054218,-0.970182,-0.23849011623837774
-0.027354,-0.119053,9e-05,0.992511,0.001314,-0.003379,-0.002366,-0.001226,-0.000295,0.000535,-0.236319,0.05432,-0.970156,-0.23857466193144963
-0.027355,-0.119093,7.3e-05,0.992506,0.001203,-0.004283,-0.003304,-0.001688,0.000805,0.001329,-0.236397,0.054318,-0.970137,-0.23865610949282148
-0.027291,-0.119209,3.3e-05,0.992494,0.006261,-0.002646,-0.000516,0.000187,-0.000623,0.001459,-0.236627,0.05418,-0.970089,-0.23889240657057206
-0.02723,-0.119246,2.6e-05,0.992491,0.006677,-0.003237,-0.000317,-1.2e-05,-0.000275,0.001411,-0.236699,0.054058,-0.970078,-0.23896765867702807
-0.027195,-0.119292,2.8e-05,0.992487,0.006007,-0.004213,-0.001334,-0.000239,-0.000621,0.001393,-0.236791,0.053988,-0.97006,-0.23906054720168782
-0.027159,-0.119339,3e-05,0.992482,0.005337,-0.005188,-0.002351,-0.000466,-0.000967,0.001376,-0.236882,0.053917,-0.970041,-0.239155234867432
-0.027082,-0.119523,-2.7e-05,0.992462,0.002482,-0.007896,-0.006415,-4.5e-05,-8.7e-05,9.5e-05,-0.237245,0.05375,-0.969962,-0.23952944653693017
-0.027076,-0.119557,-7.4e-05,0.992458,0.002104,-0.005718,-0.008551,-0.0005,-0.000961,0.001053,-0.237314,0.053727,-0.969946,-0.23960055302702657
-0.027026,-0.119648,-0.000216,0.992448,0.002892,-0.00302,-0.008092,-0.000451,-0.000866,0.00095,-0.237501,0.053592,-0.969908,-0.23979192675647362
-0.026984,-0.119674,-0.000269,0.992446,0.005453,-0.005431,-0.008617,-0.000666,-0.001279,0.001403,-0.237555,0.053497,-0.9699,-0.23984748762319635
-0.026943,-0.119701,-0.000321,0.992444,0.008014,-0.007842,-0.009141,-0.000881,-0.001693,0.001855,-0.23761,0.053401,-0.969892,-0.2399050284621099
-0.026718,-0.119823,-0.000409,0.992435,0.014053,-0.008082,-0.004427,-0.001325,-0.001016,0.001715,-0.237856,0.052934,-0.969857,-0.24015680415436708
-0.0266,-0.119895,-0.000423,0.99243,0.015718,-0.009577,-0.001401,-0.000872,-0.001169,0.002691,-0.237998,0.052696,-0.969835,-0.24030337310341388
-0.026497,-0.119971,-0.000394,0.992424,0.016365,-0.005934,0.002313,-0.000582,-0.001263,0.000894,-0.238146,0.052497,-0.96981,-0.24045553381684404
-0.026174,-0.119951,-0.000282,0.992435,0.017586,0.013332,0.001903,-0.000314,-0.003133,-0.002624,-0.238102,0.051884,-0.969853,-0.24041107954667038
-0.026047,-0.119865,-0.00026,0.992448,0.018044,0.02108,-0.002207,0.000318,-0.00236,-0.000669,-0.237932,0.051638,-0.969908,-0.24023728481003467
-0.025916,-0.119685,-0.000238,0.992474,0.002712,0.00489,0.001437,-0.001042,-0.000122,0.005886,-0.23758,0.051384,-0.970008,-0.23987461916838201
-0.025915,-0.119731,-0.000258,0.992468,-0.000757,0.00017,-0.000504,-0.000567,0.000791,0.004885,-0.237672,0.051377,-0.969986,-0.23996820679124728
-0.025914,-0.119778,-0.000278,0.992462,-0.004226,-0.00455,-0.002445,-9.2e-05,0.001705,0.003883,-0.237764,0.051371,-0.969964,-0.2400638388644114
-0.026,-0.119826,-0.000323,0.992454,-0.009948,-0.00217,-0.000455,-6.6e-05,0.001978,0.001451,-0.237861,0.051531,-0.969931,-0.2401624138258084
-0.026043,-0.119856,-0.000321,0.992449,-0.01164,-0.000967,0.00107,-0.000628,0.003125,0.001615,-0.237919,0.051616,-0.969912,-0.2402224084235148
-0.026264,-0.119891,-0.000305,0.992439,-0.010268,0.004569,0.007603,-0.00058,0.002728,0.00115,-0.237986,0.052058,-0.969872,-0.24029074634068226
-0.02638,-0.11985,-0.000199,0.992441,-0.008055,0.001614,0.009062,-0.00014,0.001992,0.001267,-0.237899,0.052314,-0.96988,-0.24020176844493496
-0.026447,-0.119856,-0.000134,0.992439,-0.003482,0.001782,0.005344,-0.000218,0.000881,0.001018,-0.237906,0.052462,-0.96987,-0.24021002389094467
-0.026514,-0.119862,-6.8e-05,0.992437,0.001091,0.00195,0.001625,-0.000296,-0.000229,0.000769,-0.237914,0.05261,-0.96986,-0.24021820677358918
-0.026437,-0.119824,-8.9e-05,0.992443,0.013753,0.001593,-0.00709,0.00033,-0.000286,0.001296,-0.237842,0.052454,-0.969886,-0.24014316526580054
-0.026321,-0.119872,-0.000133,0.99244,0.012868,-0.000722,-0.005426,0.000301,0.000777,0.002253,-0.237939,0.052211,-0.969876,-0.24024287872845582
-0.026204,-0.11992,-0.000176,0.992438,0.011983,-0.003037,-0.003763,0.000273,0.001841,0.003209,-0.238035,0.051969,-0.969865,-0.24034276562807227
-0.026092,-0.120025,-0.000141,0.992428,0.016744,-0.011788,0.013364,-0.000556,0.002222,0.003163,-0.238239,0.051756,-0.969826,-0.240552958185973
-0.025981,-0.12013,-0.000105,0.992418,0.021505,-0.020539,0.03049,-0.001384,0.002602,0.003117,-0.238444,0.051543,-0.969787,-0.2407631201161022
-0.025895,-0.120213,0.000907,0.99241,0.009138,0.002523,0.076616,0.001034,0.001191,-0.003354,-0.238554,0.051615,-0.969757,-0.24087678872028218
-0.025869,-0.120146,0.001542,0.992418,0.016887,9.2e-05,0.041901,4.9e-05,-0.003769,0.001232,-0.23839,0.051716,-0.969791,-0.24070805352310778
-0.025792,-0.120224,0.001577,0.99241,0.013609,-0.002075,0.027979,4e-06,-0.003582,0.00129,-0.238542,0.051572,-0.969762,-0.2408638744774796
-0.025715,-0.120302,0.001613,0.992403,0.01033,-0.004242,0.014056,-4.1e-05,-0.003395,0.001349,-0.238693,0.051428,-0.969732,-0.24101990473147614
-0.025561,-0.120458,0.001685,0.992388,0.003773,-0.008576,-0.01379,-0.00013,-0.00302,0.001465,-0.238996,0.051139,-0.969673,-0.24133176260004519
-0.025638,-0.12038,0.001649,0.992395,0.007052,-0.006409,0.000133,-8.5e-05,-0.003208,0.001407,-0.238844,0.051284,-0.969703,-0.2411757022033379
-0.025496,-0.120529,0.001584,0.992381,0.002824,-0.008853,-0.01959,-0.000491,-0.002523,0.001713,-0.23914,0.050986,-0.969646,-0.24148068177855023
-0.025432,-0.1206,0.001482,0.992374,0.001874,-0.009131,-0.025389,-0.000852,-0.002025,0.001962,-0.239284,0.050833,-0.969618,-0.2416296266570604
-0.025284,-0.12075,0.00105,0.99236,0.00275,-0.005667,-0.027274,-0.000278,-0.001573,0.000735,-0.239603,0.050436,-0.96956,-0.24195572810289837
-0.025257,-0.120787,0.000864,0.992357,0.003287,-0.004059,-0.027272,0.000551,-0.000956,0.000832,-0.239684,0.050337,-0.969545,-0.24204035629773274
-0.025201,-0.120815,0.000697,0.992355,0.00169,-0.002511,-0.022966,0.000427,-0.001848,-6.8e-05,-0.239747,0.050186,-0.969537,-0.2421058690811862
-0.025163,-0.120813,0.000293,0.992356,-0.004873,0.004202,-0.0244,0.00118,-0.001305,-0.000277,-0.239764,0.050012,-0.969542,-0.24212302638699512
-0.025182,-0.120791,0.000133,0.992358,-0.004751,0.003233,-0.027019,0.002144,-0.002093,0.000358,-0.239729,0.050011,-0.969551,-0.2420868375631533
-0.025212,-0.120763,-0.000239,0.992361,-0.010074,0.000119,-0.022537,0.000488,-0.001621,0.001991,-0.239693,0.049982,-0.969561,-0.24204965577909499
-0.025247,-0.120764,-0.000336,0.99236,-0.01004,-0.002397,-0.022406,0.000791,-0.001723,0.002644,-0.239701,0.050028,-0.969557,-0.2420565135391723
-0.025315,-0.12086,-0.000694,0.992346,-0.009499,-0.00759,-0.020349,0.002291,0.000985,0.0031,-0.239905,0.050074,-0.969504,-0.24226800476362703
-0.025358,-0.120876,-0.00084,0.992343,-0.010996,-0.009145,-0.014602,0.00067,0.00255,0.002774,-0.239944,0.050125,-0.969492,-0.24230765697694664
-0.025483,-0.120968,-0.000949,0.992329,-0.01031,-0.006699,-0.001149,0.000497,0.002367,0.001719,-0.240129,0.050346,-0.969434,-0.2424981969066938
-0.025562,-0.121061,-0.000923,0.992315,-0.008813,-0.007971,0.000211,0.000398,0.00193,0.00145,-0.240308,0.050507,-0.969382,-0.2426836308297848
-0.02564,-0.121153,-0.000896,0.992302,-0.007317,-0.009244,0.001571,0.000298,0.001493,0.00118,-0.240488,0.050668,-0.969329,-0.2428672097828011
-0.025718,-0.121246,-0.000869,0.992289,-0.00582,-0.010516,0.002931,0.000198,0.001056,0.00091,-0.240667,0.050828,-0.969276,-0.24305282815300375
-0.02583,-0.12142,-0.000821,0.992265,-0.00473,-0.012459,0.000714,0.000251,-0.000901,0.001367,-0.241004,0.051062,-0.96918,-0.24340025780000976
-0.025865,-0.121513,-0.000826,0.992252,-0.002641,-0.01262,-0.003402,0.000444,-0.000915,0.001065,-0.241186,0.051129,-0.969131,-0.24358749920464898
-0.025885,-0.121586,-0.000857,0.992243,-0.002184,-0.011323,-0.006087,0.000251,-0.000516,0.0006,-0.24133,0.051159,-0.969094,-0.24373621012594057
-0.025904,-0.121659,-0.000888,0.992233,-0.001727,-0.010025,-0.008773,5.7e-05,-0.000117,0.000136,-0.241474,0.051189,-0.969056,-0.2438846738262769
-0.025922,-0.12188,-0.001027,0.992206,-0.002337,-0.011471,-0.008771,-0.000121,3.9e-05,0.000787,-0.241913,0.051189,-0.968947,-0.24433731729315844
-0.025924,-0.12194,-0.001093,0.992198,-0.001946,-0.010181,-0.008537,-0.000395,0.000424,0.000682,-0.242034,0.051176,-0.968917,-0.24446154886093388
-0.025926,-0.122,-0.001159,0.992191,-0.001555,-0.00889,-0.008303,-0.000669,0.000809,0.000577,-0.242155,0.051164,-0.968888,-0.2445860343287904
-0.025941,-0.122085,-0.001308,0.99218,-0.000769,-0.004712,-0.008277,-0.000768,0.001194,0.000725,-0.242328,0.051157,-0.968845,-0.2447651200113075
-0.025948,-0.122147,-0.001385,0.992172,-0.001441,-0.002437,-0.008493,-0.000687,0.001679,0.001205,-0.242453,0.051152,-0.968814,-0.24489405530860547
-0.025933,-0.122214,-0.001502,0.992164,0.000826,-0.004125,-0.007432,-0.000209,6.8e-05,0.001363,-0.24259,0.051092,-0.968782,-0.24503529426775789
-0.025904,-0.122229,-0.001589,0.992162,0.001118,-0.001596,-0.007941,8.8e-05,0.000959,0.001365,-0.242625,0.051014,-0.968778,-0.24507002814186776
-0.025893,-0.122259,-0.001646,0.992159,0.000747,-0.000821,-0.005173,-0.000606,0.00105,0.002368,-0.242686,0.050977,-0.968765,-0.245133642415914
-0.025908,-0.122274,-0.001703,0.992157,-0.001636,0.000127,-0.005656,-0.000387,0.001136,0.002104,-0.242719,0.050993,-0.968756,-0.2451669158282333
-0.025923,-0.12229,-0.00176,0.992154,-0.004019,0.001075,-0.00614,-0.000167,0.001223,0.00184,-0.242752,0.05101,-0.968746,-0.24520198629171225
-0.025939,-0.122305,-0.001816,0.992152,-0.006402,0.002023,-0.006623,5.2e-05,0.001309,0.001576,-0.242785,0.051026,-0.968737,-0.24523521730958825
-0.025978,-0.122303,-0.00188,0.992151,-0.00463,0.001487,-0.007589,-0.000257,0.000179,0.001481,-0.242784,0.051089,-0.968734,-0.24523444790733287
-0.026018,-0.122301,-0.001944,0.99215,-0.002858,0.000951,-0.008555,-0.000567,-0.000951,0.001386,-0.242784,0.051152,-0.968731,-0.24523369281331492
-0.026027,-0.122292,-0.002193,0.99215,0.00112,0.001574,-0.015748,-0.001152,0.000298,0.000508,-0.242778,0.051109,-0.968735,-0.24522868059177766
-0.025993,-0.122278,-0.002304,0.992153,0.003187,0.000682,-0.014003,-0.001043,0.000916,0.001386,-0.242757,0.051016,-0.968745,-0.2452065946706833
-0.02596,-0.122264,-0.002415,0.992155,0.005254,-0.00021,-0.012258,-0.000934,0.001535,0.002265,-0.242736,0.050922,-0.968755,-0.24518424604931713
-0.025869,-0.122264,-0.002546,0.992157,0.008199,-0.000592,-0.002824,0.00043,0.002036,0.003091,-0.242742,0.050709,-0.968765,-0.2451912837381742
-0.025834,-0.122254,-0.002549,0.992159,0.010045,-0.002635,0.000298,0.00098,0.001854,0.0025,-0.242723,0.050639,-0.968773,-0.24517130902098747
-0.025633,-0.12225,-0.002477,0.992165,0.017161,0.007099,0.006067,-0.0001,-0.000607,-0.000601,-0.242712,0.050259,-0.968796,-0.245159778091423
-0.025506,-0.122167,-0.002424,0.992179,0.023867,0.018153,0.005563,-0.00034,-0.002058,-0.002039,-0.242546,0.050022,-0.968849,-0.24499009634777508
-0.025258,-0.121859,-0.002304,0.992223,0.01168,0.020268,0.004838,-0.000369,-0.00028,0.00223,-0.241938,0.049562,-0.969025,-0.24436371713966798
-0.025248,-0.121758,-0.00226,0.992236,0.004346,0.013905,0.004092,-0.000678,-0.000648,0.003057,-0.241739,0.049553,-0.969075,-0.24415808188911328
-0.025237,-0.121657,-0.002217,0.992249,-0.002987,0.007542,0.003346,-0.000988,-0.001015,0.003884,-0.24154,0.049544,-0.969125,-0.2439525010209332
-0.025376,-0.121653,-0.002248,0.992246,-0.014078,0.000413,-0.000863,0.000205,0.000271,0.002566,-0.241534,0.049812,-0.969113,-0.2439458250856821
-0.025681,-0.121632,-0.002289,0.99224,-0.017533,0.005675,0.002411,-0.000284,0.001235,0.000617,-0.241493,0.050406,-0.969093,-0.24390495853629124
-0.025528,-0.121643,-0.002268,0.992243,-0.015806,0.003044,0.000774,-3.9e-05,0.000753,0.001591,-0.241514,0.050109,-0.969103,-0.24392637911853915
-0.025899,-0.121544,-0.002303,0.992245,-0.012169,0.007451,0.004411,-0.001244,0.001232,-0.000648,-0.241322,0.050837,-0.969113,-0.24372803002346516
-0.026001,-0.121461,-0.002271,0.992253,-0.010614,0.009126,0.00318,-0.001446,0.001659,0.000313,-0.241158,0.051047,-0.969142,-0.24355907651081402
-0.026053,-0.121391,-0.002266,0.99226,-0.006547,0.011069,0.000783,-0.000761,0.001234,0.000475,-0.241021,0.051152,-0.969171,-0.24341766498476938
-0.026104,-0.121321,-0.002261,0.992267,-0.002479,0.013012,-0.001613,-7.7e-05,0.000808,0.000637,-0.240884,0.051256,-0.969199,-0.24327625067448885
-0.026077,-0.121116,-0.002335,0.992293,0.006021,0.011239,-0.007772,-0.00022,4e-06,0.0013,-0.240487,0.051186,-0.969302,-0.24286743877723532
-0.026025,-0.121048,-0.002383,0.992303,0.007639,0.008765,-0.008714,7.1e-05,0.001188,0.001915,-0.240357,0.051072,-0.96934,-0.24273322681370949
-0.025973,-0.12098,-0.002431,0.992312,0.009257,0.00629,-0.009656,0.000361,0.002371,0.00253,-0.240227,0.050958,-0.969378,-0.24259875696399313
-0.025847,-0.120916,-0.002594,0.992323,0.00538,0.002735,-0.006894,-0.000794,0.001813,0.002899,-0.24011,0.050671,-0.969422,-0.2424787008123754
-0.025815,-0.120928,-0.002623,0.992322,0.004692,-0.005891,-0.004868,-0.003179,0.001278,0.004686,-0.240135,0.050599,-0.96942,-0.2425043565804257
-0.02561,-0.120931,-0.002612,0.992327,0.013336,0.002358,-0.000204,-0.000106,0.000728,-0.000858,-0.240141,0.050195,-0.969439,-0.2425100474945248
-0.025493,-0.120814,-0.002593,0.992344,0.011243,0.015905,0.000462,5.1e-05,-0.000429,-0.001784,-0.239911,0.049968,-0.969508,-0.24227345430355665
-0.025413,-0.120681,-0.002589,0.992363,0.011301,0.013743,-0.003268,-0.000202,-0.001821,0.000966,-0.23965,0.049812,-0.969581,-0.24200564576113018
-0.025392,-0.120636,-0.002623,0.992368,0.006621,0.011429,-0.003842,-0.000282,-0.001515,0.001226,-0.239564,0.049764,-0.969604,-0.24191656236511816
-0.025372,-0.120591,-0.002658,0.992374,0.00194,0.009114,-0.004416,-0.000362,-0.001209,0.001487,-0.239478,0.049717,-0.969628,-0.24182778320698717
-0.025332,-0.120501,-0.002727,0.992386,-0.007421,0.004484,-0.005564,-0.000521,-0.000596,0.002008,-0.239306,0.049621,-0.969675,-0.2416501665535235
-0.025352,-0.120546,-0.002693,0.99238,-0.002741,0.006799,-0.00499,-0.000441,-0.000902,0.001747,-0.239392,0.049669,-0.969652,-0.24173900199668558
-0.025384,-0.12044,-0.002858,0.992392,-0.002518,-0.000137,-0.006017,-0.000283,9.2e-05,0.001845,-0.239193,0.049694,-0.9697,-0.24153410431137967
-0.025392,-0.12046,-0.002916,0.992389,-0.00142,0.000469,-0.003063,-2e-06,1e-06,1.5e-05,-0.239235,0.049694,-0.969689,-0.24157732320543382
-0.025387,-0.120454,-0.002946,0.99239,0.000115,0.006016,-0.001148,-0.000714,-0.000266,-0.000576,-0.239225,0.049677,-0.969693,-0.24156684525818212
-0.025424,-0.120261,-0.002945,0.992412,-0.001173,0.011032,0.000236,0.000183,-0.000286,0.000258,-0.238847,0.049754,-0.969782,-0.24117796813285455
-0.025421,-0.120179,-0.002941,0.992422,-0.001954,0.012255,-0.000868,0.000573,-0.000898,0.000811,-0.238686,0.049749,-0.969822,-0.2410126125330881
-0.025492,-0.120026,-0.003061,0.992439,-0.005917,0.011525,-0.009395,0.000545,-0.003094,0.000238,-0.238392,0.049864,-0.969888,-0.2407108365523641
-0.025515,-0.119954,-0.003148,0.992446,-0.005025,0.008258,-0.013079,0.000541,-0.003094,0.001493,-0.238257,0.049889,-0.96992,-0.24057013074512879
-0.025537,-0.119883,-0.003234,0.992454,-0.004133,0.004991,-0.016762,0.000537,-0.003095,0.002748,-0.238123,0.049913,-0.969952,-0.2404316672703999
-0.025582,-0.119858,-0.003502,0.992455,-0.005667,0.002676,-0.010471,0.001304,0.001703,0.002172,-0.238087,0.049939,-0.969959,-0.2403952396252201
-0.025599,-0.11987,-0.003571,0.992453,-0.005391,0.002224,-0.007333,0.00086,0.001871,0.002115,-0.238114,0.049956,-0.969952,-0.2404230300294286
-0.025617,-0.119883,-0.003641,0.992451,-0.005115,0.001772,-0.004195,0.000417,0.002039,0.002057,-0.238142,0.049974,-0.969944,-0.24045292930065978
-0.025712,-0.119783,-0.003582,0.992461,-0.004858,0.006498,0.004526,0.000473,0.002002,0.001146,-0.237944,0.050177,-0.969982,-0.24024861955571106
-0.025781,-0.119733,-0.003524,0.992465,-0.005744,0.006073,0.004411,0.000342,0.001521,0.000976,-0.237843,0.050329,-0.969999,-0.24014485611485642
-0.02585,-0.119683,-0.003466,0.99247,-0.006629,0.005647,0.004296,0.00021,0.001041,0.000807,-0.237743,0.050481,-0.970016,-0.24004132443791917
-0.025931,-0.119647,-0.003467,0.992472,-0.007229,0.004622,0.000254,0.000135,0.000669,0.000518,-0.237673,0.050642,-0.970024,-0.2399688821081482
-0.026012,-0.119611,-0.003468,0.992474,-0.007829,0.003597,-0.003788,6e-05,0.000297,0.00023,-0.237603,0.050803,-0.970033,-0.23989644109948932
-0.026095,-0.119579,-0.00351,0.992475,-0.008852,0.003506,-0.005354,3.3e-05,0.000165,0.000128,-0.237542,0.050958,-0.97004,-0.2398341460822711
-0.026178,-0.119547,-0.003551,0.992477,-0.009874,0.003415,-0.00692,7e-06,3.4e-05,2.6e-05,-0.237482,0.051113,-0.970046,-0.23977205847440727
-0.026284,-0.119468,-0.003704,0.992483,-0.008081,0.005445,-0.008507,0.000114,0.000689,0.000683,-0.237334,0.051289,-0.970073,-0.23962116232643735
-0.026336,-0.119432,-0.003759,0.992486,-0.008355,0.00437,-0.006711,0.000162,0.000982,0.000973,-0.237268,0.051378,-0.970085,-0.23955171874558825
-0.026387,-0.119397,-0.003814,0.992488,-0.00863,0.003295,-0.004915,0.000211,0.001275,0.001263,-0.237202,0.051467,-0.970096,-0.2394840773047619
-0.026539,-0.119274,-0.003913,0.992499,-0.010621,0.005908,-0.004192,-0.000234,0.000805,0.000623,-0.236966,0.051747,-0.970139,-0.23924206344811755
-0.026665,-0.119215,-0.004013,0.992502,-0.010914,0.004043,-0.002261,-4e-05,0.000136,0.000106,-0.236855,0.051973,-0.970154,-0.23912875724992974
-0.026743,-0.119192,-0.00407,0.992503,-0.008106,0.003745,-0.004111,0.000121,0.000884,0.000864,-0.236814,0.052114,-0.970156,-0.23908579292797988
-0.026785,-0.119165,-0.004107,0.992505,-0.006579,0.003968,-0.003934,0.000118,0.000808,0.000793,-0.236763,0.05219,-0.970165,-0.2390335115700159
-0.026828,-0.119137,-0.004144,0.992507,-0.005051,0.004191,-0.003757,0.000115,0.000732,0.000722,-0.236711,0.052267,-0.970173,-0.23897920250553517
-0.026992,-0.119028,-0.004258,0.992515,-0.004866,0.003951,-0.005403,0.000963,0.000258,0.000977,-0.236505,0.052566,-0.970207,-0.23876620586339048
-0.027135,-0.118983,-0.004303,0.992516,-0.00738,0.003423,-0.003143,0.000811,-3.3e-05,0.001295,-0.236418,0.05284,-0.970214,-0.23867828403407884
-0.027259,-0.118954,-0.004341,0.992516,-0.007342,0.002846,-0.002026,0.000939,0.000212,0.001026,-0.236364,0.053078,-0.970214,-0.23862226936190645
-0.02736,-0.118938,-0.004389,0.992515,-0.005486,0.003712,-0.002988,7.2e-05,-0.000239,0.001626,-0.236336,0.053267,-0.97021,-0.23859294355747082
-0.027436,-0.118899,-0.004442,0.992517,-0.005374,0.001708,-0.004191,0.000164,0.000716,0.001472,-0.236262,0.053405,-0.970221,-0.23851744009939047
-0.027505,-0.11889,-0.004486,0.992516,-0.006792,0.000512,-0.004064,0.000202,0.001108,0.001409,-0.236247,0.053532,-0.970217,-0.23850193141637246
-0.02761,-0.118865,-0.004534,0.992516,-0.011933,0.003264,0.0001,0.000859,0.00278,0.000577,-0.236202,0.05373,-0.970217,-0.23845455748666478
-0.027751,-0.1188,-0.00453,0.99252,-0.012946,0.004025,0.001984,0.000835,0.001398,0.001541,-0.236074,0.054011,-0.970233,-0.23832384066332646
-0.027862,-0.118809,-0.004551,0.992516,-0.009302,-0.000476,-0.001376,0.000374,-0.000313,0.002338,-0.236093,0.054226,-0.970216,-0.23834348675698386
-0.027942,-0.11878,-0.004592,0.992517,-0.006964,0.003481,-0.003731,0.000764,0.000102,0.001445,-0.236038,0.054374,-0.970221,-0.23828759821492262
-0.028028,-0.118769,-0.004617,0.992515,-0.0039,0.001769,-0.001691,0.000512,0.001274,0.001804,-0.236019,0.05454,-0.970217,-0.23826689401315856
-0.028091,-0.118748,-0.004624,0.992516,-0.003483,0.003089,0.000579,0.000274,0.000925,0.001134,-0.235979,0.054663,-0.97022,-0.23822524443598153
-0.028148,-0.118728,-0.004598,0.992517,-0.001191,0.000293,0.004499,-7.3e-05,0.000865,0.002496,-0.235939,0.054783,-0.970223,-0.23818367078571193
-0.028126,-0.118695,-0.004514,0.992522,0.003906,0.005631,0.008911,-9.7e-05,-6.7e-05,0.00059,-0.235869,0.054759,-0.970241,-0.23811241299105315
-0.028052,-0.118588,-0.004417,0.992537,0.010015,0.019536,0.009876,0.001243,-0.000889,-0.001626,-0.235654,0.054638,-0.9703,-0.23789122571633758
-0.028013,-0.118302,-0.004333,0.992573,0.004422,0.020465,0.005468,0.000762,-0.000827,0.000839,-0.23509,0.054584,-0.97044,-0.23731065057667747
-0.027973,-0.118016,-0.004249,0.992608,-0.001171,0.021393,0.00106,0.00028,-0.000764,0.003304,-0.234525,0.05453,-0.970579,-0.23672987652027092
-0.028005,-0.117823,-0.004246,0.99263,-0.008772,0.013005,-0.001082,-0.000337,-0.000595,0.003366,-0.234148,0.054597,-0.970667,-0.2363411953764835
-0.028122,-0.117696,-0.004195,0.992642,-0.015699,0.004789,0.018871,-0.000469,0.002075,0.004125,-0.233896,0.054842,-0.970714,-0.23608284310321997
-0.028383,-0.117604,-0.00387,0.992647,-0.030125,0.010705,0.046559,0.001071,0.00437,0.001217,-0.233698,0.055439,-0.970727,-0.23587947766659603
-0.028765,-0.117476,-0.003468,0.992653,-0.033807,0.010622,0.040927,0.000628,0.002972,0.001721,-0.233425,0.056293,-0.970744,-0.23559883740846976
-0.029121,-0.117381,-0.003161,0.992655,-0.029395,0.009528,0.032006,-3.3e-05,0.003026,0.002241,-0.233221,0.057072,-0.970747,-0.23538951428960167
-0.029462,-0.117259,-0.002902,0.99266,-0.02799,0.010985,0.026656,0.000531,0.00366,0.00254,-0.232967,0.057812,-0.970765,-0.23512817469448685
-0.02975,-0.117143,-0.002707,0.992666,-0.019209,0.00882,0.015716,0.000346,0.002267,0.001823,-0.232728,0.058429,-0.970785,-0.23488260231517372
-0.029923,-0.117034,-0.002583,0.992674,-0.010145,0.006992,0.006372,0.000204,0.001302,0.001126,-0.232508,0.058803,-0.970815,-0.2346553555805932
-0.029993,-0.11697,-0.002599,0.992679,-0.002302,0.006637,-0.006903,0.000837,0.000698,0.000115,-0.232383,0.05894,-0.970837,-0.23452727623691388
-0.029987,-0.116893,-0.002709,0.992688,0.005326,0.002297,-0.017151,0.000265,0.000734,0.0013,-0.23224,0.058903,-0.970873,-0.23437901756590734
-0.029898,-0.116902,-0.002683,0.99269,0.004937,-0.000112,0.019684,0.001655,0.00558,0.001765,-0.232255,0.058731,-0.97088,-0.23439577485790528
-0.029921,-0.116843,-0.002377,0.992697,0.00016,0.005887,0.029399,0.001104,0.003333,0.00026,-0.232122,0.05885,-0.970905,-0.23425832871435617
-0.029916,-0.116783,-0.002154,0.992704,0.005635,-0.002304,0.014934,-0.000692,0.000295,0.004724,-0.231992,0.058893,-0.970933,-0.2341238014560019
-0.029841,-0.116839,-0.002029,0.9927,0.010721,-0.003283,0.009893,-0.000514,-0.000345,0.002396,-0.232094,0.058772,-0.970916,-0.23422914141573017
-0.029765,-0.116895,-0.001905,0.992696,0.015807,-0.004262,0.004852,-0.000337,-0.000985,6.7e-05,-0.232196,0.058651,-0.970899,-0.23433457894350773
-0.029607,-0.116919,-0.001855,0.992698,0.021456,-0.002268,0.008586,0.000724,-0.002462,-0.001475,-0.232241,0.058348,-0.970907,-0.23438038552792262
-0.029486,-0.116866,-0.001654,0.992709,0.008567,0.013435,0.028684,0.000877,0.000225,-0.001828,-0.232125,0.058155,-0.970946,-0.2342621985128016
-0.029502,-0.116725,-0.001328,0.992725,1e-05,0.008831,0.037142,-0.000604,-0.001419,0.001854,-0.23183,0.058265,-0.97101,-0.23395852347755394
-0.029597,-0.116641,-0.000997,0.992732,-0.005575,0.002441,0.029743,-0.000594,-0.002231,0.003344,-0.231646,0.058532,-0.971038,-0.23376887520765408
-0.029696,-0.116609,-0.000748,0.992733,-0.009659,0.001611,0.018704,-0.000126,-0.002234,0.001776,-0.231568,0.058787,-0.971041,-0.23368880523596453
-0.029812,-0.116563,-0.000606,0.992736,-0.011411,0.002289,0.010094,0.000895,-0.001607,0.001285,-0.231468,0.05905,-0.971049,-0.23358711730381687
-0.029926,-0.116564,-0.000481,0.992732,-0.01431,0.002361,0.01969,0.001193,0.000938,0.002289,-0.231462,0.059305,-0.971035,-0.23358065133617167
-0.030086,-0.116488,-0.000314,0.992736,-0.014655,0.005807,0.017945,0.000647,0.000739,0.000423,-0.231302,0.059662,-0.971051,-0.23341633407143414
-0.030196,-0.116442,-0.000206,0.992738,-0.008192,0.005822,0.006925,-0.000239,-0.000942,0.000584,-0.231205,0.059905,-0.971059,-0.23331630338299642
-0.030261,-0.116366,-0.000175,0.992745,-0.003823,0.007008,0.001312,0.000993,-0.001167,-1.8e-05,-0.231054,0.060043,-0.971087,-0.2331609812644386
-0.030278,-0.116254,-0.000186,0.992758,0.000104,0.006676,-0.000372,0.001113,-0.0016,0.00105,-0.230835,0.060074,-0.971137,-0.2329362251912378
-0.03033,-0.116153,-0.000157,0.992768,-0.007054,0.011261,0.004531,0.000613,-0.000195,-4.5e-05,-0.230636,0.060186,-0.971177,-0.23273072626234226
-0.030437,-0.116064,-0.000136,0.992775,-0.00797,0.006845,-0.000191,0.001929,-0.002027,0.001673,-0.230459,0.060403,-0.971206,-0.23254951198750892
-0.030508,-0.116027,-0.000206,0.992777,-0.006971,0.000159,-0.004131,0.000571,-0.000696,0.001476,-0.23039,0.060528,-0.971214,-0.23247890104665456
-0.030601,-0.116026,-0.000186,0.992775,-0.014533,0.002192,0.010792,0.001392,0.00352,0.000976,-0.230387,0.060717,-0.971203,-0.2324751651645723
-0.030804,-0.116004,-4.2e-05,0.992771,-0.015369,0.001362,0.017494,0.000723,0.002594,0.001659,-0.230333,0.061152,-0.971189,-0.2324202829646439
-0.030953,-0.11602,0.00011,0.992764,-0.009855,-0.002737,0.017437,0.000552,0.002698,0.002343,-0.230355,0.061484,-0.971162,-0.23244160348394458
-0.031072,-0.116027,0.000293,0.99276,-0.011078,-0.001285,0.018566,0.000758,0.002648,0.000846,-0.230355,0.061762,-0.971145,-0.23244321887518365
-0.031209,-0.116048,0.000474,0.992753,-0.010272,-0.003049,0.022866,0.000138,0.000994,0.001178,-0.230384,0.062075,-0.971118,-0.2324727052761327
-0.031391,-0.116032,0.000729,0.992749,-0.016101,0.000223,0.028669,0.000637,0.00016,0.000521,-0.230336,0.062495,-0.971102,-0.2324224760884059
-0.031613,-0.116053,0.000955,0.992739,-0.016105,-0.002096,0.019541,0.000192,-0.001338,0.0016,-0.230361,0.062988,-0.971064,-0.23244792201774034
-0.031794,-0.116063,0.001112,0.992732,-0.016524,-0.003725,0.017158,-0.00014,-0.000876,0.001008,-0.230368,0.063385,-0.971037,-0.23245604126107752
-0.032037,-0.116027,0.001267,0.992728,-0.022201,0.002235,0.014235,0.001129,-0.000705,0.000559,-0.230285,0.063902,-0.971023,-0.23237087459226893
-0.03225,-0.115992,0.001375,0.992725,-0.013696,0.000853,0.00776,-0.000226,-0.001453,0.001517,-0.230208,0.064351,-0.971012,-0.2322910368862949
-0.03239,-0.115987,0.001432,0.992721,-0.013142,0.004002,0.011234,0.000129,-0.000111,9.5e-05,-0.230193,0.06464,-0.970996,-0.2322756921719265
-0.03256,-0.115908,0.001575,0.992725,-0.020699,0.010522,0.020974,4.6e-05,-3.9e-05,3.4e-05,-0.230026,0.065011,-0.971011,-0.2321054006474479
-0.032809,-0.115778,0.001812,0.992731,-0.023535,0.012867,0.033462,-0.000194,-0.000417,0.000454,-0.229755,0.065561,-0.971038,-0.2318248310339733
-0.033131,-0.115595,0.002183,0.992741,-0.031101,0.0206,0.050146,-6.8e-05,-0.000146,0.000159,-0.229367,0.066287,-0.97108,-0.23142744070238686
-0.033526,-0.115369,0.00262,0.992753,-0.033378,0.020349,0.047992,-0.000729,-0.001714,0.000942,-0.228891,0.067171,-0.971132,-0.23093742810395612
-0.033923,-0.115166,0.003021,0.992762,-0.035117,0.018684,0.041694,0.000171,-0.002165,0.002754,-0.22846,0.068051,-0.971172,-0.230495445550365
-0.034326,-0.114977,0.003437,0.992769,-0.039632,0.018446,0.04712,0.000521,-0.000905,0.001947,-0.228056,0.068946,-0.971204,-0.23007982497252882
-0.034773,-0.114801,0.003834,0.992772,-0.037579,0.016215,0.039581,-0.000593,-0.001488,0.002903,-0.227677,0.069924,-0.971223,-0.22969012465044245
-0.035149,-0.114659,0.004145,0.992774,-0.030312,0.005625,0.027455,-0.000377,-0.00189,0.003335,-0.227371,0.07074,-0.971236,-0.22937564219079457
-0.035463,-0.114616,0.004364,0.992767,-0.027386,0.002796,0.022385,-0.000554,-0.001464,0.002038,-0.227264,0.071414,-0.971211,-0.2292676972378555
-0.035752,-0.114599,0.004524,0.992758,-0.02435,0.001154,0.015461,-0.000225,-0.001928,0.002143,-0.227216,0.072024,-0.971177,-0.229216580063876
-0.036006,-0.114586,0.004591,0.99275,-0.02178,0.001053,0.004996,0.00034,-0.003198,0.001381,-0.22718,0.072542,-0.971147,-0.22918087833929754
-0.036208,-0.114579,0.004568,0.992744,-0.020501,-7.2e-05,-0.003078,-0.00074,-0.002726,0.002269,-0.227165,0.072937,-0.971121,-0.2291650005647399
-0.036434,-0.11462,0.004472,0.992731,-0.024331,-0.001934,9.1e-05,0.00032,-0.002559,0.002325,-0.227248,0.073363,-0.97107,-0.2292505946120946
-0.036779,-0.114611,0.00449,0.992719,-0.04098,0.006412,0.011358,0.002143,-0.001056,0.00064,-0.227222,0.074052,-0.971023,-0.2292248927012649
-0.037177,-0.114573,0.004535,0.992709,-0.039489,0.002022,0.008228,0.000784,-0.003283,0.002232,-0.227137,0.074851,-0.970982,-0.22913796161268046
-0.037575,-0.114531,0.004572,0.992698,-0.038558,0.001377,0.006271,7.3e-05,-0.003459,0.0013,-0.227046,0.075649,-0.970942,-0.22904318784071498
-0.037968,-0.11452,0.004563,0.992685,-0.035604,0.00223,0.000365,0.000598,-0.002801,0.002004,-0.227017,0.076426,-0.970887,-0.2290147173558513
-0.038325,-0.114492,0.004522,0.992674,-0.033549,0.001184,-0.002307,0.000557,-0.002997,0.002693,-0.22696,0.077123,-0.970846,-0.22895493229002026
-0.038682,-0.114555,0.004524,0.992653,-0.039267,-0.006803,0.011206,-0.00039,-0.001775,0.002715,-0.227077,0.077832,-0.970762,-0.22907494801948974
-0.039147,-0.114537,0.004667,0.992636,-0.050092,0.005259,0.022959,3e-06,-0.004049,0.001555,-0.227021,0.078786,-0.970698,-0.22901843906317465
-0.039616,-0.11451,0.004853,0.99262,-0.043013,-0.00313,0.022491,-0.000466,-0.009987,0.002752,-0.226945,0.07976,-0.970636,-0.2289400105061339
-0.040057,-0.114499,0.005051,0.992603,-0.04034,0.004793,0.024688,-0.000132,-0.012582,-0.000992,-0.226899,0.080678,-0.970571,-0.22889290821748598
-0.040494,-0.114384,0.005329,0.992597,-0.044878,0.021953,0.036128,0.001276,-0.014353,-0.003386,-0.226643,0.081607,-0.970553,-0.228629443927993
-0.040983,-0.11411,0.005615,0.992607,-0.050762,0.027047,0.031626,-0.0003,-0.015731,-0.00207,-0.226073,0.082642,-0.970598,-0.22804393150941055
-0.041594,-0.113834,0.005852,0.992611,-0.064933,0.026865,0.032169,-0.000836,-0.016667,0.001695,-0.2255,0.083905,-0.970623,-0.22745514169433184
-0.04234,-0.113588,0.006078,0.992607,-0.081968,0.017114,0.036615,-0.001964,-0.019124,0.004297,-0.224981,0.085435,-0.97061,-0.2269243601328544
-0.043263,-0.113409,0.006322,0.992586,-0.101365,0.014662,0.037777,-0.00186,-0.021059,0.004311,-0.224589,0.087318,-0.970534,-0.2265216040828939
-0.044334,-0.113276,0.006548,0.992552,-0.115522,0.013555,0.034083,-0.001138,-0.022403,0.003026,-0.224284,0.089491,-0.970406,-0.22620829994015004
-0.045572,-0.11312,0.006735,0.992513,-0.133698,0.01577,0.034502,-0.001871,-0.022508,0.000542,-0.223933,0.091985,-0.970254,-0.22584736288304721
-0.046991,-0.112933,0.006934,0.992467,-0.154828,0.020592,0.040689,-0.001842,-0.023128,0.001259,-0.223513,0.09484,-0.970076,-0.2254170496247149
-0.048583,-0.112725,0.007173,0.992412,-0.169552,0.020804,0.045313,-0.001034,-0.025587,0.000762,-0.223043,0.098047,-0.969865,-0.22493429590131003
-0.050346,-0.112501,0.007461,0.992347,-0.186801,0.01906,0.058381,-0.002037,-0.025941,0.000393,-0.222528,0.1016,-0.969618,-0.22440754019416376
-0.052433,-0.11222,0.00782,0.992268,-0.200907,0.021508,0.060187,-0.001577,-0.026607,-0.000733,-0.221885,0.10581,-0.969315,-0.22374680258325763
-0.05452,-0.111939,0.00818,0.992185,-0.215012,0.023956,0.061992,-0.001123,-0.027271,-0.001876,-0.221237,0.110019,-0.968994,-0.22308215219385857
-0.056607,-0.111658,0.008539,0.992096,-0.229117,0.026405,0.063798,-0.000674,-0.027932,-0.003036,-0.220584,0.114225,-0.968656,-0.22241335881566393
-0.058952,-0.111366,0.008902,0.991989,-0.248443,0.031142,0.066706,-0.000377,-0.027183,-0.002449,-0.219899,0.118943,-0.968244,-0.22171002531627035
-0.061434,-0.111076,0.009222,0.991868,-0.261792,0.023965,0.060101,-0.000339,-0.025423,0.001046,-0.219212,0.123918,-0.967776,-0.2210071334883119
-0.064072,-0.110861,0.00953,0.991723,-0.278061,0.014672,0.073096,-0.000409,-0.021317,0.005332,-0.218665,0.129195,-0.967209,-0.22044676148994383
-0.066909,-0.110651,0.010016,0.991554,-0.291179,0.020621,0.090967,-0.001279,-0.020788,0.001674,-0.218093,0.134905,-0.966559,-0.21985955623802048
-0.069792,-0.110465,0.010565,0.99137,-0.290373,0.010678,0.087956,2.8e-05,-0.023695,0.002422,-0.217549,0.140714,-0.965853,-0.21930228234697163
-0.072713,-0.110311,0.011086,0.991172,-0.299751,0.012919,0.085305,0.001248,-0.023319,0.000266,-0.217062,0.146588,-0.965089,-0.21880385905744154
-0.075732,-0.110119,0.011571,0.990961,-0.307862,0.01434,0.082678,0.000908,-0.022461,0.000942,-0.216495,0.152643,-0.964277,-0.21822255863531725
-0.078881,-0.109969,0.012073,0.990726,-0.327222,0.011203,0.08831,0.001018,-0.018699,0.002476,-0.215995,0.158954,-0.963369,-0.21770937186834055
-0.082223,-0.109841,0.012552,0.990463,-0.341009,0.004754,0.08313,-9e-06,-0.016709,0.002237,-0.215523,0.165635,-0.962349,-0.2172271461270653
-0.085645,-0.109827,0.012941,0.990169,-0.350096,-0.002671,0.074196,0.001027,-0.014001,0.002759,-0.215277,0.172448,-0.961206,-0.21697641139816093
-0.089181,-0.109851,0.013287,0.98985,-0.359616,-0.005677,0.075488,0.001936,-0.008261,0.004737,-0.215101,0.179471,-0.959959,-0.21679640542317968
-0.09277,-0.109943,0.013642,0.989505,-0.363976,-0.012221,0.07393,0.002283,-0.006085,0.005802,-0.215047,0.186592,-0.958613,-0.2167401191336311
-0.096365,-0.110063,0.013962,0.989144,-0.363199,-0.013786,0.070795,0.00387,-0.004392,0.003808,-0.215045,0.193712,-0.9572,-0.21673833349046887
-0.099941,-0.110208,0.01425,0.988768,-0.362488,-0.011303,0.072793,0.003721,-0.002141,0.001554,-0.215093,0.200778,-0.955732,-0.21678600209103874
-0.103509,-0.110216,0.014588,0.988395,-0.354367,-0.002848,0.068223,0.004981,-0.001923,0.001122,-0.214854,0.20783,-0.954277,-0.21654224205001518
-0.106974,-0.110249,0.014809,0.988019,-0.340577,-0.007332,0.056031,0.004214,0.000591,0.003696,-0.214689,0.21465,-0.952803,-0.21637222406227405
-0.11033,-0.110338,0.014971,0.987638,-0.33806,-0.007099,0.055234,0.004933,0.004129,0.004439,-0.214644,0.221236,-0.951306,-0.21632783411876935
-0.113683,-0.110406,0.015159,0.987247,-0.334961,-0.01201,0.057629,0.004876,0.006789,0.00503,-0.21455,0.227814,-0.949773,-0.21623040523051307
-0.116991,-0.110556,0.015373,0.98684,-0.328903,-0.018275,0.062365,0.003133,0.009687,0.006334,-0.214605,0.234302,-0.948181,-0.21628755381536663
-0.120302,-0.110733,0.015726,0.986417,-0.334223,-0.021906,0.07481,0.004194,0.01051,0.006434,-0.214674,0.240818,-0.946531,-0.21635812665840906
-0.123629,-0.110886,0.016145,0.985981,-0.323606,-0.024853,0.074186,0.00452,0.008627,0.006572,-0.214671,0.247373,-0.94484,-0.2163549619813824
-0.126826,-0.111096,0.01654,0.985545,-0.312736,-0.030417,0.071415,0.004664,0.010719,0.006993,-0.214784,0.25366,-0.943146,-0.21647149282844277
-0.129947,-0.111375,0.016998,0.985099,-0.310936,-0.036854,0.085925,0.00343,0.014362,0.007269,-0.215013,0.259807,-0.941419,-0.2167052681673496
-0.133141,-0.111636,0.017592,0.984633,-0.31368,-0.035439,0.097397,0.003908,0.015094,0.006467,-0.215157,0.266117,-0.939622,-0.21685212755126618
-0.136292,-0.111902,0.018264,0.984159,-0.306798,-0.041833,0.095936,0.002418,0.012655,0.00613,-0.215279,0.272355,-0.937805,-0.2169787963429943
-0.13933,-0.112173,0.018935,0.98369,-0.29445,-0.03644,0.092706,0.002583,0.010209,0.003662,-0.21541,0.278362,-0.936009,-0.21711216850717358
-0.142191,-0.112446,0.019524,0.983238,-0.270215,-0.034477,0.077621,0.001682,0.007731,0.004984,-0.215571,0.284005,-0.934275,-0.21727560476962246
-0.144823,-0.112725,0.019978,0.982812,-0.250744,-0.026521,0.06595,0.002077,0.011657,0.00162,-0.215788,0.289172,-0.932639,-0.21749919870173598
-0.147211,-0.112845,0.020373,0.982436,-0.241003,-0.022602,0.066232,0.001752,0.014856,0.003295,-0.215728,0.293849,-0.93119,-0.21743703845423656
-0.149598,-0.112965,0.020768,0.982053,-0.231261,-0.018684,0.066515,0.001421,0.018062,0.004948,-0.215661,0.298519,-0.929719,-0.2173692531756475
-0.15193,-0.113027,0.021199,0.981678,-0.226246,-0.0088,0.069617,0.000461,0.020276,0.004152,-0.215472,0.303086,-0.928284,-0.2171738375157799
-0.154145,-0.113073,0.021621,0.981319,-0.211409,-0.013922,0.057384,-0.001803,0.019909,0.009367,-0.215255,0.307421,-0.926908,-0.21695379193878786
-0.156267,-0.113159,0.021944,0.980966,-0.20728,-0.011028,0.051941,0.000791,0.02253,0.006421,-0.215151,0.311552,-0.925551,-0.21684748979535198
-0.158341,-0.113212,0.022209,0.980621,-0.204996,-0.00419,0.046255,0.002991,0.023781,0.0069,-0.215004,0.315574,-0.924222,-0.21669483898045183
-0.160391,-0.113245,0.022396,0.98028,-0.19956,-0.005115,0.03838,0.002923,0.023231,0.00905,-0.214839,0.319528,-0.922901,-0.21652737023230437
-0.162392,-0.113272,0.022498,0.979945,-0.194079,-0.00128,0.029483,0.003713,0.024992,0.008588,-0.214694,0.323367,-0.921597,-0.21637817494245049
-0.164291,-0.113323,0.022529,0.979622,-0.181696,-0.002872,0.021713,0.003316,0.026184,0.008864,-0.214624,0.326992,-0.920333,-0.2163076451079544
-0.166089,-0.113388,0.022603,0.979309,-0.176016,-0.004137,0.03065,0.00324,0.031383,0.009217,-0.214575,0.330431,-0.919115,-0.21625724541102823
-0.167871,-0.113394,0.022783,0.979,-0.169499,-0.003966,0.031558,0.003651,0.030912,0.007886,-0.214377,0.333858,-0.917922,-0.216053180231159
-0.169508,-0.113425,0.022925,0.978711,-0.153718,-0.005356,0.02877,0.002994,0.031593,0.008974,-0.214248,0.337,-0.916804,-0.21592255163232868
-0.171025,-0.11345,0.023058,0.978442,-0.141271,-0.004156,0.0272,0.002488,0.029686,0.007187,-0.214121,0.339908,-0.915759,-0.2157923831754344
-0.17239,-0.113466,0.023157,0.978198,-0.121655,-0.006068,0.017841,0.002651,0.028567,0.008406,-0.214,0.342519,-0.914814,-0.21566836566390152
-0.173563,-0.113527,0.0232,0.977982,-0.108916,-0.004778,0.018792,0.00315,0.031446,0.007559,-0.214002,0.344751,-0.913975,-0.2156694341694704
-0.174619,-0.113511,0.023285,0.977794,-0.099119,-0.006017,0.016602,0.003402,0.030211,0.00846,-0.213849,0.346769,-0.913247,-0.21551315717822153
-0.175674,-0.113495,0.02337,0.977605,-0.089323,-0.007256,0.014413,0.003653,0.028977,0.009356,-0.213695,0.348785,-0.912515,-0.21535634580766447
-0.176569,-0.113579,0.023393,0.977433,-0.079364,-0.010087,0.010917,0.004077,0.02745,0.009689,-0.213771,0.350482,-0.911847,-0.21543333690175165
-0.177307,-0.113686,0.023402,0.977287,-0.064598,-0.01044,0.003424,0.004411,0.026456,0.007165,-0.213909,0.35188,-0.911275,-0.21557486539282467
-0.177923,-0.113784,0.02341,0.977163,-0.048947,-0.005671,0.005412,0.004928,0.024404,0.005119,-0.214042,0.353047,-0.910793,-0.21570963864123205
-0.17845,-0.113831,0.023485,0.97706,-0.044301,-0.001533,0.015533,0.003822,0.025447,0.005446,-0.214057,0.354059,-0.910397,-0.21572700360694935
-0.178927,-0.113844,0.023624,0.976968,-0.037881,-0.009059,0.01699,0.00244,0.021585,0.00878,-0.21399,0.354992,-0.910049,-0.21565770778313367
-0.179365,-0.113916,0.023793,0.976875,-0.03827,-0.009063,0.022341,0.002898,0.019871,0.008097,-0.214028,0.355855,-0.909703,-0.21569678823347452
-0.179812,-0.113956,0.024002,0.976783,-0.035711,-0.01107,0.023,0.002008,0.013067,0.005947,-0.21399,0.356745,-0.909363,-0.21565660704562853
-0.18019,-0.11405,0.02417,0.976699,-0.022488,-0.007847,0.013001,0.001571,0.00765,0.003989,-0.214074,0.357495,-0.909049,-0.21574442758938023
-0.180418,-0.114081,0.024254,0.976651,-0.009629,-0.000236,0.00431,0.00215,0.008453,0.003548,-0.214083,0.357945,-0.908869,-0.2157528957293901
-0.180551,-0.114051,0.024257,0.97663,-0.008271,-0.003667,0.001287,-0.0,0.010522,0.006266,-0.214011,0.358196,-0.908788,-0.21568028886702167
-0.180729,-0.114107,0.024317,0.976589,-0.02194,-0.006591,0.011651,-0.000809,0.013932,0.00504,-0.214083,0.358544,-0.908633,-0.21575164548525855
-0.181027,-0.11412,0.024472,0.976528,-0.023362,-0.006639,0.015256,-0.000212,0.009881,0.005128,-0.214022,0.359142,-0.908412,-0.2156910995376278
-0.181266,-0.11415,0.024632,0.976476,-0.017382,-0.012167,0.016196,-0.000333,0.008505,0.00568,-0.214,0.359628,-0.908224,-0.21566757177234522
-0.181531,-0.114152,0.024822,0.976422,-0.017057,-0.006938,0.014106,-0.000288,0.006716,0.004914,-0.213909,0.360169,-0.908031,-0.21557496815950591
-0.181796,-0.114153,0.025012,0.976367,-0.016733,-0.001709,0.012017,-0.000243,0.004927,0.004148,-0.213817,0.360711,-0.907838,-0.2154799271386287
-0.181984,-0.114132,0.025134,0.976332,-0.015974,0.001476,0.011572,-0.0007,0.005273,0.003325,-0.213713,0.361091,-0.907711,-0.21537468931910614
-0.182151,-0.114095,0.025208,0.976303,-0.011,-0.000596,0.00683,-0.000707,0.00589,0.003689,-0.2136,0.361421,-0.907607,-0.21525777034685142
-0.182263,-0.114125,0.02527,0.976277,-0.006213,-0.001124,0.003088,-0.000601,0.003106,0.002267,-0.213624,0.361647,-0.907511,-0.21528274322944868
-0.182321,-0.114118,0.025283,0.976267,-0.00044,0.000645,-0.002604,-0.000124,0.000642,0.000469,-0.2136,0.361758,-0.907472,-0.2152585632172842
-0.182328,-0.114151,0.025234,0.976263,-0.001544,0.000618,-0.000781,0.000156,0.001227,0.001181,-0.213681,0.36176,-0.907452,-0.21534151292820605
-0.182378,-0.114088,0.025227,0.976261,-0.004686,0.001585,-0.000903,-0.00041,0.003292,0.003922,-0.213559,0.361854,-0.907444,-0.21521516073925048
-0.182457,-0.114094,0.025207,0.976246,-0.00654,-0.001303,0.000157,0.000129,0.004073,0.006238,-0.213569,0.361998,-0.907384,-0.21522703951819347
-0.182551,-0.114177,0.02523,0.976218,-0.008702,-0.016442,0.001943,-0.002018,0.002071,0.005907,-0.213713,0.36218,-0.907277,-0.2153729345540211
-0.182673,-0.114285,0.025312,0.976181,-0.011892,-0.008047,0.011409,-0.000307,0.000962,0.001715,-0.213879,0.362428,-0.907139,-0.21554316196159903
-0.182815,-0.114296,0.025427,0.97615,-0.011034,0.001267,0.009763,0.000579,-0.000603,-7.8e-05,-0.213844,0.362722,-0.90703,-0.2155074902391339
-0.182952,-0.114268,0.025483,0.976126,-0.013058,-0.000795,0.004805,-0.00048,-0.000508,0.002716,-0.213756,0.362992,-0.906943,-0.21541780972294414
-0.183107,-0.114275,0.025524,0.976095,-0.01398,-0.002202,0.004914,-0.000614,-0.001098,0.001628,-0.21374,0.363294,-0.906826,-0.21540108951142137
-0.1833,-0.114322,0.025544,0.976053,-0.022046,-0.001021,0.004779,-0.000397,0.002806,0.00294,-0.213804,0.363662,-0.906663,-0.21546759243519126
-0.18359,-0.114346,0.025568,0.975995,-0.025763,-0.001246,0.004345,0.000324,0.003647,0.002543,-0.213814,0.364213,-0.90644,-0.2154777867420733
-0.183879,-0.11437,0.025591,0.975937,-0.02948,-0.001471,0.003911,0.001045,0.004489,0.002145,-0.213824,0.364763,-0.906216,-0.21548837573338747
-0.184183,-0.114381,0.025591,0.975878,-0.029917,0.003119,0.001371,-0.000207,0.005703,0.00237,-0.213817,0.365334,-0.905988,-0.21548061047355702
-0.184489,-0.114389,0.025585,0.97582,-0.029905,0.001586,0.00557,0.000484,0.006805,0.003648,-0.213806,0.36591,-0.905758,-0.21546924474051954
-0.184817,-0.114305,0.025634,0.975766,-0.032391,0.010423,0.008939,0.001436,0.006148,0.002349,-0.213594,0.366537,-0.905554,-0.2152530724788372
-0.185159,-0.114181,0.025643,0.975716,-0.025887,0.007381,-0.000548,0.001304,0.003748,0.004457,-0.21332,0.367181,-0.905358,-0.2149723273752999
-0.185427,-0.114112,0.025591,0.975674,-0.02416,0.007836,-0.00341,0.002914,0.005144,0.00386,-0.213182,0.367674,-0.90519,-0.21483036747765544
-0.185672,-0.114034,0.025461,0.97564,-0.021912,0.010863,-0.009517,0.003193,0.004213,0.001514,-0.213057,0.368105,-0.905044,-0.21470322212978116
-0.185872,-0.113957,0.025283,0.975616,-0.018754,0.014081,-0.01148,0.002114,0.006812,0.003079,-0.212958,0.368441,-0.904931,-0.21460114709896533
-0.186068,-0.113891,0.02513,0.97559,-0.021602,0.005001,-0.01072,0.002203,0.008979,0.005045,-0.212869,0.368777,-0.904815,-0.21451141178269856
-0.186255,-0.113935,0.024949,0.975554,-0.017149,-0.001405,-0.015979,0.001816,0.008002,0.005234,-0.213005,0.369089,-0.904656,-0.21465027070004006
-0.186442,-0.113979,0.024767,0.975518,-0.012696,-0.007812,-0.021237,0.001429,0.007026,0.005423,-0.213141,0.369401,-0.904496,-0.21478964756221114
-0.186544,-0.114056,0.024558,0.975494,-0.00902,-0.006278,-0.013712,0.002985,0.011147,0.004331,-0.213359,0.369547,-0.904385,-0.21501245059740076
-0.186724,-0.114105,0.024499,0.975456,-0.022231,0.003418,0.00591,0.00461,0.015635,0.003582,-0.213461,0.369872,-0.904229,-0.21511493042941895
-0.186979,-0.114052,0.024557,0.975412,-0.018146,-0.003112,0.007112,0.003444,0.013233,0.005723,-0.213313,0.370365,-0.904062,-0.21496383134797112
-0.187095,-0.114097,0.024634,0.975382,-0.010327,-0.004864,0.005873,0.003495,0.011305,0.004434,-0.213358,0.370599,-0.903955,-0.21501135683629846
-0.18721,-0.114141,0.024711,0.975353,-0.002507,-0.006616,0.004634,0.003545,0.009377,0.003146,-0.213404,0.370833,-0.903848,-0.21505712827221168
-0.187218,-0.114218,0.024755,0.975341,0.007335,-0.008535,0.002308,0.001573,0.00911,0.004389,-0.213534,0.370858,-0.903807,-0.21519080203058633
-0.187158,-0.114279,0.024831,0.975344,0.005787,-0.009033,0.009694,0.002567,0.009855,0.003575,-0.213628,0.370762,-0.903825,-0.2152872268575201
-0.187169,-0.114331,0.024982,0.975332,0.003033,-0.004598,0.013799,0.001314,0.008603,0.003887,-0.213669,0.370816,-0.903793,-0.21532983107867154
-0.187099,-0.11441,0.025127,0.975332,0.012161,-0.011997,0.0045,0.000235,0.003779,0.005213,-0.213774,0.370716,-0.903809,-0.21543561651211962
-0.186973,-0.114545,0.025217,0.975338,0.018613,-0.012365,0.006156,0.000615,0.00408,0.004267,-0.214011,0.370501,-0.903841,-0.2156786315612483
-0.18686,-0.11464,0.025335,0.975346,0.011873,-0.007375,0.009721,0.001125,0.004595,0.002386,-0.214158,0.370315,-0.903882,-0.21583091068147578
-0.186744,-0.114717,0.025423,0.975357,0.016751,-0.009813,0.000615,-0.000594,0.002176,0.002545,-0.214285,0.370117,-0.903933,-0.21595963689481884
-0.186585,-0.114796,0.025471,0.975376,0.014361,-0.009136,-0.001278,0.000204,0.002083,0.002121,-0.214433,0.36983,-0.904016,-0.21611181530521853
-0.186436,-0.114862,0.025496,0.975396,0.015308,-0.005735,-0.002719,-5.2e-05,0.00095,0.002057,-0.214565,0.369555,-0.904097,-0.21624656437610923
-0.186282,-0.114964,0.025462,0.975415,0.013684,-0.005897,-0.004365,-8.9e-05,0.000785,0.002047,-0.214789,0.369259,-0.904165,-0.21647577782832406
-0.186159,-0.115046,0.025385,0.975431,0.008543,-0.005531,-0.006575,8.5e-05,0.000703,0.000875,-0.214988,0.369011,-0.904218,-0.21667910960649783
-0.186062,-0.115075,0.025339,0.975447,0.006829,-0.001394,-0.003631,-0.000168,0.000156,0.001295,-0.215071,0.36882,-0.904277,-0.2167633806909958
-0.185985,-0.115133,0.025259,0.975457,0.007509,0.000137,-0.006748,-0.000105,0.000675,0.001943,-0.21522,0.368656,-0.904308,-0.21691607066628232
-0.185922,-0.115142,0.025206,0.975469,0.001828,0.000127,-0.002005,-0.000217,0.002103,0.002553,-0.215263,0.368526,-0.904351,-0.2169603198199671
-0.185859,-0.115151,0.025152,0.975481,-0.003852,0.000117,0.002739,-0.000328,0.003532,0.003164,-0.215307,0.368396,-0.904393,-0.21700493681624716
-0.185947,-0.115073,0.025183,0.975473,-0.008854,0.010386,0.005854,0.000337,0.001601,0.000415,-0.215136,0.368569,-0.904364,-0.21683088634567846
-0.186007,-0.114976,0.025154,0.975474,-0.002836,0.004447,-0.004537,0.000575,0.000659,0.003159,-0.214955,0.368675,-0.904364,-0.2166452989986065
-0.186042,-0.114928,0.025079,0.975475,-0.006652,0.006484,-0.005502,0.001369,0.002826,0.003517,-0.214887,0.368722,-0.90436,-0.21657641925105386
-0.186126,-0.114907,0.024959,0.975464,-0.008301,0.002035,-0.008017,0.000669,0.003368,0.003426,-0.214885,0.368854,-0.904307,-0.21657330557710827
-0.1862,-0.114903,0.024851,0.975453,-0.011117,0.00618,-0.005284,0.00053,0.004734,0.000886,-0.214911,0.36897,-0.904253,-0.2166001258794126
-0.186345,-0.114713,0.024771,0.97545,-0.010299,0.017836,-0.011479,0.002122,0.004364,0.000849,-0.214562,0.369224,-0.904233,-0.21624304390249552
-0.186395,-0.114619,0.024598,0.975456,-0.00465,0.008402,-0.012067,0.001339,0.005924,0.004315,-0.214442,0.369279,-0.904239,-0.2161201907227826
-0.186439,-0.114498,0.024472,0.975465,-0.002032,0.014354,-0.009717,0.002103,0.007756,0.00292,-0.214253,0.369333,-0.904261,-0.21592650767055788
-0.186422,-0.11444,0.024312,0.975479,0.003948,0.007996,-0.013179,0.001148,0.006378,0.005776,-0.214204,0.369266,-0.904301,-0.2158758695093937
-0.186365,-0.114415,0.024185,0.975496,0.005309,0.005746,-0.009666,0.003662,0.005347,0.005306,-0.214209,0.369131,-0.904354,-0.2158812180956646
-0.186304,-0.114344,0.024082,0.975518,0.007737,0.000846,-0.009937,0.002739,0.004337,0.005113,-0.214117,0.368994,-0.904432,-0.21578686891462975
-0.186188,-0.114346,0.023979,0.975543,0.0114,0.005672,-0.008464,0.001992,0.003147,0.0013,-0.214169,0.368752,-0.904518,-0.21584170203854877
-0.186099,-0.114229,0.023882,0.975576,0.013116,0.017473,-0.004909,0.002165,0.006193,0.000144,-0.213989,0.368563,-0.904638,-0.2156570547399984
-0.186086,-0.114004,0.02392,0.975604,-0.005333,0.027521,0.012247,0.003208,0.007476,0.001387,-0.213544,0.368546,-0.90475,-0.2152003513858094
-0.186158,-0.113789,0.023951,0.975614,-0.005511,0.01228,0.005027,0.002206,0.004044,0.006555,-0.213111,0.368688,-0.904795,-0.21475794739920198
-0.186221,-0.113689,0.023956,0.975614,-0.000747,-3.5e-05,-0.000737,0.000747,0.004808,0.006182,-0.212911,0.368807,-0.904793,-0.21455324664235853
-0.186227,-0.11373,0.023936,0.975609,-0.000484,-0.002495,-0.002539,0.001619,0.004546,0.005054,-0.212996,0.368813,-0.90477,-0.21464129083524677
-0.18625,-0.113732,0.023952,0.975604,-0.001803,-0.003611,0.003464,0.001563,0.006547,0.004188,-0.212992,0.36886,-0.904752,-0.21463689400257524
-0.186296,-0.113779,0.023969,0.975589,-0.000166,-0.000333,0.000319,0.000918,0.006951,0.002728,-0.213072,0.368951,-0.904696,-0.21471852355861012
-0.186301,-0.113732,0.023992,0.975593,0.000607,0.003733,0.003756,0.000858,0.006988,0.002593,-0.212973,0.368965,-0.904714,-0.21461657859711977
-0.186285,-0.11369,0.024035,0.9756,0.000676,0.004099,0.004066,0.000454,0.005796,0.002579,-0.212878,0.368944,-0.904745,-0.21451872372431335
-0.186245,-0.11365,0.02406,0.975611,0.006467,0.002207,-4.1e-05,0.001151,0.004782,0.002096,-0.212795,0.368874,-0.904793,-0.21443384175816652
-0.186191,-0.113588,0.024009,0.97563,0.008249,0.008299,-0.006921,0.001001,0.003432,0.000803,-0.212699,0.368762,-0.904861,-0.2143365449202983
-0.186103,-0.113508,0.023872,0.97566,0.009239,0.008964,-0.011796,0.000484,0.002842,0.002708,-0.212605,0.368566,-0.904963,-0.21424027041217267
-0.186016,-0.113428,0.023735,0.975689,0.010229,0.009629,-0.016672,-3.3e-05,0.002253,0.004612,-0.212511,0.368372,-0.905064,-0.21414365800662039
-0.185935,-0.113364,0.023652,0.975714,0.001334,0.009958,0.002235,0.000381,0.005421,0.002733,-0.212427,0.368202,-0.905153,-0.21405717367772334
-0.185987,-0.113279,0.023648,0.975714,-0.00248,0.004292,-0.000409,-0.000486,0.003937,0.004481,-0.212259,0.368297,-0.905154,-0.21388643677142752
-0.186007,-0.113259,0.023629,0.975713,-0.0012,-0.003407,-0.0013,-0.000744,0.00389,0.005877,-0.212227,0.368332,-0.905147,-0.21385253157608838
-0.186053,-0.11319,0.023719,0.97571,-0.000479,0.004705,0.002928,-0.000539,0.002398,0.003739,-0.212056,0.368437,-0.905145,-0.21367755808384875
-0.186098,-0.113121,0.023809,0.975707,0.000243,0.012817,0.007156,-0.000333,0.000905,0.001602,-0.211885,0.368542,-0.905142,-0.21350262386146512
-0.186144,-0.113053,0.0239,0.975704,0.000965,0.020929,0.011384,-0.000128,-0.000587,-0.000536,-0.211714,0.368647,-0.905139,-0.21332924738468936
-0.186056,-0.112898,0.023895,0.975739,0.011204,0.009872,-0.001952,-0.001972,-0.001434,0.003017,-0.211427,0.36848,-0.905274,-0.2130340668791934
-0.185982,-0.112789,0.023881,0.975766,0.004133,0.00902,-0.003952,-0.000404,0.000691,0.003386,-0.211229,0.368337,-0.905378,-0.21283161809983062
-0.185966,-0.112707,0.023825,0.97578,0.001129,0.004346,-0.009515,-0.00031,0.000817,0.003408,-0.211093,0.368295,-0.905427,-0.2126932199618085
-0.185947,-0.11272,0.023684,0.975785,0.000957,0.00408,-0.009832,0.000306,0.001999,0.002122,-0.211174,0.368228,-0.905436,-0.21277490115908523
-0.185952,-0.112684,0.023579,0.975791,0.000551,0.004194,-0.007264,-0.000924,0.002482,0.004489,-0.211143,0.368214,-0.905449,-0.21274411577657998
-0.185969,-0.112668,0.023554,0.97579,-0.005628,0.010389,0.006243,0.00044,0.004804,0.000728,-0.211121,0.368242,-0.905442,-0.2127206325254792
-0.186053,-0.11253,0.023597,0.975789,-0.004268,0.01569,0.006919,-0.000742,0.001173,0.000536,-0.21083,0.368408,-0.905443,-0.21242446549079247
-0.186107,-0.112341,0.023575,0.975801,-0.004199,0.016525,0.002114,-0.000212,0.001611,0.001276,-0.21047,0.368505,-0.905487,-0.21205567863749455
-0.186162,-0.112153,0.023553,0.975813,-0.004131,0.017359,-0.00269,0.000318,0.002048,0.002015,-0.210111,0.368601,-0.905531,-0.21168886464781997
-0.186229,-0.11197,0.023479,0.975823,-0.012178,0.018678,-0.000161,0.001639,0.003032,0.002198,-0.209781,0.368712,-0.905562,-0.2113508284514048
-0.186381,-0.111757,0.023402,0.97582,-0.018113,0.022017,-0.007825,0.002041,0.000851,0.001696,-0.209385,0.368979,-0.905545,-0.21094705486257911
-0.186455,-0.111646,0.023178,0.975824,-0.011176,0.016153,-0.012785,0.001747,0.003416,0.002542,-0.20925,0.36907,-0.905539,-0.2108083108176098
-0.18653,-0.111535,0.022955,0.975828,-0.004238,0.010289,-0.017744,0.001453,0.005981,0.003389,-0.209115,0.369162,-0.905533,-0.210669208438334
-0.186549,-0.111468,0.022788,0.975835,-1.6e-05,0.00451,-0.004785,-0.000111,0.007994,0.004439,-0.209047,0.369163,-0.905548,-0.2105999115446954
-0.186563,-0.111332,0.022769,0.975849,-0.001602,0.010567,0.005915,0.001788,0.01024,0.003297,-0.20879,0.369183,-0.905599,-0.21033827962346185
-0.186564,-0.111219,0.022814,0.97586,0.001704,0.008191,0.005475,0.001989,0.008117,0.004081,-0.208556,0.369195,-0.905648,-0.21009805993129604
-0.186522,-0.111178,0.022838,0.975873,0.005773,0.006806,0.003405,0.001883,0.007391,0.003432,-0.208471,0.369123,-0.905698,-0.21001200175243695
-0.186498,-0.111069,0.022865,0.975889,0.002494,0.009327,0.004089,0.002443,0.005048,0.001562,-0.208254,0.369083,-0.905764,-0.20978894525756325
-0.186493,-0.110945,0.022871,0.975904,0.00408,0.008838,-0.006631,0.001929,0.00446,0.003538,-0.208013,0.369073,-0.905823,-0.20954285460840993
-0.186432,-0.110868,0.022773,0.975927,0.006961,0.009319,-0.01053,0.002671,0.006356,0.0029,-0.207907,0.368938,-0.905903,-0.20943463018309894
-0.186346,-0.110849,0.02263,0.975949,0.006774,0.007962,-0.011932,0.001776,0.006683,0.002737,-0.207932,0.368745,-0.905975,-0.2094601928732045
-0.18626,-0.110775,0.022509,0.975976,0.008741,0.007302,-0.012534,0.002275,0.006274,0.003067,-0.207843,0.368557,-0.906072,-0.2093687027491598
-0.186173,-0.110701,0.022389,0.976004,0.010707,0.006642,-0.013137,0.002773,0.005865,0.003397,-0.207754,0.368369,-0.906169,-0.20927705514484093
-0.186087,-0.110627,0.022268,0.976031,0.012673,0.005981,-0.013739,0.003271,0.005456,0.003727,-0.207664,0.368181,-0.906266,-0.2091854669138109
-0.185939,-0.11064,0.022145,0.976061,0.013633,0.002749,-0.013433,0.005634,0.005397,0.001995,-0.207748,0.367876,-0.906371,-0.2092716949517237
-0.1858,-0.110646,0.022012,0.97609,0.014207,0.00037,-0.01533,0.004641,0.004996,0.003967,-0.207821,0.367586,-0.906472,-0.2093470488877901
-0.185675,-0.110638,0.021947,0.976116,0.008029,0.002782,-0.001997,0.005005,0.005974,0.002215,-0.207842,0.367338,-0.906568,-0.20936726683841472
-0.185617,-0.110584,0.021959,0.976133,0.007305,0.002473,0.000165,0.004154,0.004242,0.003052,-0.207739,0.36723,-0.906635,-0.20926138621977322
-0.18552,-0.110576,0.021944,0.976152,0.009459,-0.001448,-0.002411,0.003616,0.002686,0.002781,-0.207737,0.367044,-0.906711,-0.20925976015277722
-0.185406,-0.110597,0.021937,0.976172,0.01053,-0.003397,-0.003692,0.00425,0.003079,0.002727,-0.20779,0.36683,-0.906785,-0.2093139640993964
-0.185282,-0.110655,0.021901,0.97619,0.01312,-0.00505,-0.00539,0.004287,0.002265,0.002355,-0.207925,0.366587,-0.906852,-0.20945300098156658
-0.185142,-0.110738,0.021861,0.976208,0.013479,-0.005561,-0.006389,0.005393,0.001867,0.001983,-0.208111,0.366316,-0.906919,-0.20964416035688077
-0.185004,-0.110798,0.021821,0.976228,0.012616,-0.006202,-0.007733,0.004794,0.001316,0.001641,-0.208254,0.366048,-0.906995,-0.20978976132806867
-0.18488,-0.110873,0.021778,0.976244,0.011012,-0.006873,-0.002177,0.004534,0.002876,0.001741,-0.208426,0.365804,-0.907053,-0.20996489786451347
-0.184815,-0.11093,0.02181,0.976249,0.007182,-0.003235,0.001322,0.004997,0.001971,0.001254,-0.20853,0.36569,-0.907075,-0.21007062508230237
-0.184752,-0.110974,0.021836,0.976255,0.009345,-0.007967,-0.002407,0.004104,0.000417,0.002319,-0.20861,0.365577,-0.907103,-0.21015281519455087
-0.184667,-0.111072,0.021827,0.97626,0.008803,-0.010076,-0.005677,0.003953,-0.000136,0.001746,-0.20881,0.365415,-0.907122,-0.2103568002270591
-0.184582,-0.111171,0.021819,0.976266,0.008262,-0.012186,-0.008947,0.003803,-0.000689,0.001173,-0.209009,0.365253,-0.907141,-0.21056263950966836
-0.184505,-0.111285,0.021781,0.976268,0.007081,-0.011433,-0.007925,0.002969,0.000406,0.001779,-0.209252,0.3651,-0.907147,-0.21080849215402153
-0.184444,-0.111407,0.021738,0.976266,0.004636,-0.010441,-0.007743,0.00262,0.001294,0.002424,-0.209507,0.364977,-0.907137,-0.21107058476524607
-0.184389,-0.111555,0.02166,0.976262,0.004139,-0.011676,-0.008891,0.002741,0.000517,0.001772,-0.209826,0.364856,-0.907112,-0.21139707994622714
-0.184358,-0.111678,0.021576,0.976255,0.001301,-0.011412,-0.011327,0.002859,0.000489,0.001803,-0.210098,0.36478,-0.90708,-0.21167416837025887
-0.184335,-0.111812,0.021457,0.976247,-0.000319,-0.012697,-0.013917,0.003913,0.000515,0.002328,-0.210403,0.364712,-0.907037,-0.2119858466424126
-0.184329,-0.111979,0.021319,0.976232,-0.001362,-0.016224,-0.019385,0.00296,0.000645,0.001993,-0.210776,0.364671,-0.906967,-0.21236826180919827
-0.184324,-0.112179,0.021117,0.976214,-0.000873,-0.016026,-0.024149,0.003024,0.000905,0.002261,-0.211236,0.364618,-0.906881,-0.2128400179678935
-0.184302,-0.11238,0.020917,0.9762,-0.000908,-0.018093,-0.022799,0.002927,0.002573,0.003016,-0.2117,0.364532,-0.906807,-0.21331469421633917
-0.184308,-0.112578,0.02075,0.976179,-0.002773,-0.015485,-0.016837,0.002291,0.00283,0.002598,-0.212144,0.364508,-0.906713,-0.213768148529046
-0.184333,-0.112753,0.020632,0.976157,-0.00279,-0.016774,-0.011514,0.001402,0.003148,0.003019,-0.212523,0.364528,-0.906617,-0.2141561629172214
-0.18435,-0.112937,0.020581,0.976133,-0.000201,-0.013755,-0.004379,0.001317,0.001683,0.001186,-0.212895,0.364549,-0.906521,-0.21453678012243851
-0.184336,-0.113035,0.020556,0.976125,0.003037,-0.003908,-0.002491,0.001749,0.000817,0.000381,-0.213093,0.364518,-0.906487,-0.21474076751650376
-0.184301,-0.113049,0.020514,0.976131,0.001737,0.000296,-0.004893,0.002156,-4.6e-05,0.001132,-0.213139,0.364442,-0.906506,-0.21478744821856036
-0.184328,-0.113087,0.020391,0.976124,-0.002491,-0.004558,-0.012154,0.001979,0.000279,0.002251,-0.213258,0.364467,-0.906468,-0.2149070373659262
-0.184356,-0.113126,0.020267,0.976117,-0.006719,-0.009412,-0.019415,0.001802,0.000604,0.00337,-0.213376,0.364492,-0.906431,-0.21502897630787768
-0.184389,-0.113285,0.020059,0.976097,-0.008391,-0.015651,-0.026298,0.00235,0.003201,0.004976,-0.213757,0.364509,-0.906334,-0.2154192218453008
-0.184438,-0.113501,0.019821,0.976067,-0.009731,-0.017714,-0.024624,0.002164,0.005737,0.00452,-0.214258,0.364548,-0.9062,-0.21593178749398356
-0.184511,-0.11372,0.019612,0.976032,-0.010832,-0.013995,-0.018283,0.002104,0.008085,0.003153,-0.214752,0.364638,-0.906047,-0.2164373440243015
-0.184623,-0.113851,0.019477,0.975999,-0.011621,-0.009085,-0.013982,0.002494,0.008688,0.002224,-0.215044,0.364818,-0.905905,-0.21673803047309925
-0.18473,-0.113947,0.019377,0.975969,-0.008505,-0.008669,-0.010562,0.002342,0.008326,0.002493,-0.215258,0.364997,-0.905782,-0.21695647931997933
-0.184771,-0.114036,0.01927,0.975953,-0.005235,-0.007295,-0.012091,0.002033,0.007547,0.002811,-0.215467,0.36505,-0.905711,-0.21716950351749947
-0.184811,-0.114126,0.019163,0.975937,-0.001965,-0.005921,-0.01362,0.001723,0.006769,0.003129,-0.215676,0.365103,-0.90564,-0.21738458803415783
-0.184798,-0.114217,0.019023,0.975932,0.003495,-0.004271,-0.016005,0.002107,0.00584,0.002286,-0.215906,0.365045,-0.905609,-0.21761882683543463
-0.184758,-0.11428,0.018878,0.975934,0.004324,-0.005201,-0.016585,0.001758,0.005959,0.002881,-0.216084,0.364938,-0.905609,-0.21780166911608798
-0.184696,-0.114367,0.018731,0.975939,0.007149,-0.007989,-0.01637,0.001482,0.006051,0.003882,-0.216311,0.364789,-0.905615,-0.21803477995397647
-0.184604,-0.114479,0.018603,0.975946,0.007419,-0.008187,-0.014271,0.001752,0.007114,0.003998,-0.216583,0.364587,-0.905631,-0.21831227633996075
-0.184521,-0.114596,0.018485,0.97595,0.004886,-0.005853,-0.012329,0.002133,0.006763,0.004134,-0.216858,0.364403,-0.90564,-0.21859491683048524
-0.184461,-0.114756,0.018414,0.975944,0.004566,-0.014301,-0.00932,0.000406,0.00646,0.005394,-0.217197,0.364274,-0.90561,-0.2189425408995793
-0.184372,-0.11492,0.018387,0.975942,0.008257,-0.01261,-0.009482,0.000583,0.004113,0.003577,-0.217531,0.364098,-0.905601,-0.2192835786332494
-0.184282,-0.115085,0.018361,0.97594,0.011947,-0.010919,-0.009643,0.000759,0.001766,0.001759,-0.217865,0.363922,-0.905591,-0.2196262910054666
-0.184151,-0.115207,0.018281,0.975952,0.013473,-0.004634,-0.010769,0.000648,0.00189,0.001188,-0.218141,0.363657,-0.905631,-0.21990824148956362
-0.184027,-0.115307,0.018198,0.975965,0.012001,-0.006392,-0.007671,0.000606,0.002718,0.002373,-0.218374,0.363404,-0.905677,-0.22014727480273122
-0.183986,-0.115386,0.018269,0.975962,-0.0022,-0.005844,0.017012,0.00091,0.00533,0.00212,-0.218503,0.363342,-0.905671,-0.22027934045038267
-0.184096,-0.115401,0.01848,0.975935,-0.007594,-0.005216,0.021987,0.000434,0.003255,0.002445,-0.218444,0.363596,-0.905583,-0.22021922782474793
-0.184174,-0.115462,0.018665,0.97591,-0.002993,-0.012735,0.013065,-7.3e-05,0.001991,0.003691,-0.218487,0.363784,-0.905497,-0.22026253769092377
-0.184209,-0.115579,0.018803,0.975887,-0.002322,-0.012628,0.011504,-0.000219,0.002934,0.003458,-0.218656,0.363881,-0.905417,-0.22043767029679065
-0.184249,-0.115681,0.018931,0.975865,-0.000926,-0.013719,0.008749,0.000143,0.002839,0.003068,-0.218802,0.363984,-0.90534,-0.2205865954359513
-0.184264,-0.11581,0.019021,0.975845,-0.000219,-0.011894,0.005108,0.000301,0.002017,0.00142,-0.219015,0.364031,-0.90527,-0.22080530549538185
-0.18426,-0.115908,0.01906,0.975833,0.000863,-0.007378,-0.00041,0.000693,0.001138,0.001107,-0.219189,0.364033,-0.905227,-0.22098390894885947
-0.184241,-0.116008,0.01902,0.975825,0.002904,-0.006581,-0.00794,0.000268,0.000933,0.001613,-0.219399,0.363988,-0.905194,-0.2211978915747367
-0.184202,-0.116081,0.018944,0.975826,0.001895,-0.007931,-0.003324,0.000246,0.001173,0.001479,-0.219571,0.363896,-0.905189,-0.22137437994888526
-0.184251,-0.116109,0.018964,0.975813,-0.007161,0.000598,0.007615,0.001491,0.002834,0.000399,-0.219612,0.363992,-0.905141,-0.22141784163940958
-0.184343,-0.116094,0.018974,0.975797,-0.006995,-0.00321,-0.001447,0.000107,0.000701,0.002396,-0.219574,0.364168,-0.90508,-0.22137667109727843
-0.184391,-0.116165,0.018906,0.975781,-0.005225,-0.003944,-0.006917,0.000296,0.001815,0.002577,-0.219731,0.364242,-0.905011,-0.2215387304279503
-0.184452,-0.116197,0.018817,0.975767,-0.008366,-0.001384,-0.007138,0.001415,0.003957,0.003117,-0.219821,0.364338,-0.904951,-0.22163070147604483
-0.184523,-0.116248,0.018728,0.975749,-0.006425,-0.003714,-0.007307,0.001317,0.00514,0.004021,-0.219947,0.36445,-0.904875,-0.22175936679911915
-0.184578,-0.116294,0.018675,0.975735,-0.00527,-0.001703,-0.002926,0.001562,0.005982,0.003321,-0.220049,0.364542,-0.904814,-0.22186599707667506
-0.184637,-0.116297,0.018639,0.975724,-0.003269,0.00031,-0.000755,0.000676,0.006699,0.002832,-0.220065,0.364644,-0.904768,-0.2218807446758708
-0.184663,-0.116299,0.018623,0.975719,0.00122,0.000831,-0.00149,0.000971,0.0056,0.002406,-0.220072,0.364691,-0.904748,-0.22188861757862355
-0.184659,-0.116263,0.018594,0.975724,0.001613,0.002414,-0.00291,0.000729,0.006022,0.002873,-0.220015,0.364676,-0.904768,-0.22182892457863337
-0.18463,-0.11625,0.018559,0.975732,0.004673,0.001375,-0.00379,0.000704,0.004988,0.003543,-0.220004,0.364614,-0.904796,-0.22181917953117955
-0.184576,-0.116248,0.018509,0.975744,0.008754,1e-05,-0.008334,0.001069,0.003596,0.003182,-0.220023,0.364501,-0.904836,-0.22183901455154853
-0.18448,-0.116246,0.018408,0.975764,0.010179,0.000336,-0.012806,0.00067,0.002756,0.002559,-0.220066,0.364298,-0.904907,-0.22188162448215235
-0.184365,-0.116277,0.018269,0.975784,0.009166,0.001838,-0.015916,0.00053,0.004366,0.002569,-0.220185,0.364051,-0.904978,-0.22200529366139157
-0.184266,-0.116281,0.018128,0.975805,0.009611,0.003013,-0.014891,0.000592,0.00585,0.003326,-0.220255,0.363831,-0.90505,-0.22207528221674058
-0.184135,-0.116315,0.01796,0.975829,0.012798,-0.000661,-0.019936,0.000209,0.008262,0.002745,-0.220393,0.363547,-0.90513,-0.22221732952779982
-0.18396,-0.116359,0.017735,0.975861,0.020163,-0.001065,-0.027536,0.001202,0.012983,-0.000611,-0.220576,0.363166,-0.905238,-0.2224043191675348
-0.183676,-0.11643,0.01745,0.975911,0.031661,-0.00075,-0.037449,0.001253,0.020468,-0.00283,-0.22084,0.362567,-0.905414,-0.22267600296276882
-0.183276,-0.116457,0.017107,0.975989,0.0414,0.008341,-0.037748,0.003468,0.027927,-0.005242,-0.221051,0.361735,-0.905696,-0.2228918922451607
-0.182503,-0.116448,0.016685,0.976142,0.076603,0.007962,-0.050202,0.004515,0.02915,-0.003575,-0.22125,0.360183,-0.906265,-0.22309547832437698
-0.18173,-0.116439,0.016262,0.976295,0.111805,0.007583,-0.062656,0.00556,0.030374,-0.001911,-0.221446,0.358631,-0.906833,-0.22329810282806778
-0.180461,-0.116467,0.015738,0.976536,0.151658,0.007455,-0.073829,0.007447,0.031251,0.001369,-0.221789,0.356118,-0.907739,-0.2236480094308578
-0.178822,-0.116534,0.015157,0.976838,0.178148,0.002029,-0.079511,0.009569,0.033642,0.006043,-0.22225,0.352893,-0.908885,-0.22412042239872246
-0.176973,-0.116617,0.014585,0.977174,0.189907,0.00124,-0.078981,0.011211,0.035685,0.009346,-0.222748,0.349269,-0.910162,-0.22463228260466483
-0.175038,-0.116754,0.014048,0.977514,0.197351,-0.007183,-0.080347,0.010278,0.034291,0.012623,-0.22334,0.345484,-0.91146,-0.22523914354064256
-0.173028,-0.11697,0.013522,0.977853,0.201986,-0.017873,-0.081962,0.009866,0.033675,0.014071,-0.224079,0.341555,-0.912759,-0.22599847837083392
-0.171,-0.117292,0.013008,0.978178,0.201553,-0.025027,-0.079793,0.009833,0.034581,0.012711,-0.225017,0.337589,-0.914003,-0.22695963374360378
-0.168982,-0.117639,0.012545,0.978493,0.19993,-0.029339,-0.072713,0.010159,0.037321,0.011262,-0.225977,0.333647,-0.915213,-0.2279470105573521
-0.16701,-0.117989,0.012234,0.978793,0.198296,-0.026857,-0.048715,0.009689,0.03914,0.008534,-0.226888,0.329823,-0.916372,-0.2288803485505387
-0.165053,-0.118232,0.012076,0.979098,0.202895,-0.015232,-0.041854,0.009624,0.038251,0.006656,-0.227535,0.326061,-0.917558,-0.22954560350370523
-0.162978,-0.118422,0.011914,0.979424,0.224408,-0.018291,-0.044927,0.008083,0.035485,0.010064,-0.228088,0.322071,-0.918829,-0.23011270388452448
-0.160764,-0.118623,0.01183,0.979767,0.231491,-0.016406,-0.033341,0.007989,0.036557,0.009155,-0.228642,0.317829,-0.920167,-0.23068263121633362
-0.158137,-0.118908,0.011604,0.980163,0.250836,-0.020035,-0.046248,0.007675,0.033963,0.008538,-0.229429,0.31276,-0.921707,-0.23149037772711314
-0.15551,-0.119193,0.011379,0.980551,0.27018,-0.023664,-0.059156,0.007356,0.031378,0.007895,-0.230211,0.307683,-0.923219,-0.23229402227631338
-0.152881,-0.119477,0.011153,0.980932,0.289525,-0.027294,-0.072063,0.007031,0.028802,0.007224,-0.230988,0.302596,-0.924705,-0.23309246877223253
-0.150008,-0.119797,0.01087,0.98134,0.301191,-0.025833,-0.070136,0.007659,0.028258,0.007025,-0.231862,0.297022,-0.926293,-0.23399141311591654
-0.147017,-0.120085,0.010598,0.98176,0.309677,-0.022206,-0.069721,0.006318,0.023585,0.007711,-0.232674,0.291216,-0.927931,-0.23482534438139158
-0.143894,-0.120395,0.010299,0.982188,0.319902,-0.026973,-0.078592,0.005667,0.018271,0.008959,-0.233538,0.285142,-0.929599,-0.2357138134063665
-0.140704,-0.120712,0.009938,0.982615,0.323209,-0.025332,-0.08276,0.005322,0.015591,0.009107,-0.23443,0.278915,-0.931262,-0.23663240418625534
-0.137472,-0.121017,0.009569,0.983039,0.32803,-0.024099,-0.082453,0.004544,0.012153,0.008388,-0.235297,0.272596,-0.932913,-0.23752508522733431
-0.134201,-0.121299,0.009183,0.983459,0.331151,-0.0181,-0.08483,0.004409,0.00854,0.006219,-0.23612,0.26619,-0.934554,-0.23837146179656316
-0.130897,-0.12151,0.008786,0.983882,0.326182,-0.001766,-0.077899,0.004622,0.008153,0.002471,-0.236802,0.25971,-0.936203,-0.23907381048698856
-0.12768,-0.121554,0.008428,0.984302,0.319313,0.008483,-0.07582,0.003416,0.005496,0.003595,-0.23714,0.253401,-0.937845,-0.23942031507148556
-0.124482,-0.121605,0.00804,0.984709,0.319538,-0.005733,-0.080745,0.001514,0.003148,0.006332,-0.237489,0.247113,-0.939433,-0.23978049311596802
-0.121296,-0.121746,0.007655,0.985092,0.314335,-0.010873,-0.078076,0.001445,0.003575,0.005934,-0.238005,0.24084,-0.94093,-0.24031128670575966
-0.118127,-0.121965,0.007266,0.985453,0.314995,-0.017369,-0.081116,0.002613,0.001682,0.005246,-0.238664,0.23459,-0.942341,-0.2409908179850767
-0.114908,-0.122212,0.006858,0.985806,0.323337,-0.019455,-0.086045,0.002474,-0.001429,0.004165,-0.239379,0.228231,-0.943721,-0.24172575975899646
-0.111622,-0.122458,0.006412,0.986156,0.323921,-0.014309,-0.087272,0.002392,-0.001058,0.003619,-0.240095,0.221723,-0.945089,-0.24246262289269613
-0.108373,-0.122669,0.006035,0.986494,0.320041,-0.01373,-0.078943,0.001265,-0.001929,0.003633,-0.240716,0.215299,-0.946416,-0.24310389007993877
-0.105122,-0.122877,0.005657,0.986822,0.316161,-0.013151,-0.070614,0.000129,-0.002791,0.003606,-0.241327,0.208865,-0.947701,-0.24373211075729992
-0.101923,-0.123086,0.005339,0.987134,0.313977,-0.017785,-0.073442,-0.00081,-0.008069,0.003768,-0.241916,0.202537,-0.948923,-0.2443404492254687
-0.098734,-0.123324,0.004978,0.98743,0.311949,-0.015976,-0.074988,7.8e-05,-0.009022,0.002344,-0.242565,0.196214,-0.950085,-0.2450085700819064
-0.095588,-0.123568,0.004609,0.987711,0.307771,-0.014954,-0.076975,0.00094,-0.011703,0.001528,-0.243218,0.189965,-0.951188,-0.24568191085148933
-0.092499,-0.123773,0.004262,0.987981,0.298451,-0.015405,-0.070769,0.000778,-0.011804,0.002686,-0.243781,0.18383,-0.952249,-0.2462638957289409
-0.089529,-0.123963,0.003949,0.988232,0.285769,-0.012661,-0.068039,0.000455,-0.01261,0.003168,-0.244301,0.17793,-0.953235,-0.24679910147460807
-0.086666,-0.12418,0.003587,0.988461,0.275386,-0.016618,-0.075612,-0.000648,-0.013051,0.005269,-0.244872,0.172222,-0.954137,-0.24738811670397215
-0.083911,-0.124416,0.003203,0.98867,0.264021,-0.021038,-0.071509,-0.001643,-0.013056,0.006051,-0.245475,0.166718,-0.954959,-0.24800986036571712
-0.081247,-0.124655,0.002847,0.988864,0.257987,-0.022434,-0.06839,-0.002413,-0.013362,0.004283,-0.246071,0.161394,-0.95572,-0.2486245792646684
-0.078606,-0.124912,0.002511,0.989046,0.253941,-0.016505,-0.066839,-0.001679,-0.015548,0.000527,-0.246692,0.156118,-0.956436,-0.24926595626463896
-0.076082,-0.125056,0.002218,0.989226,0.242083,-0.003813,-0.058392,-0.000525,-0.016304,-0.002137,-0.24708,0.151079,-0.957145,-0.24966544772475344
-0.07372,-0.125148,0.001964,0.989393,0.230427,-0.006849,-0.054605,-0.00158,-0.015243,0.000809,-0.247352,0.146368,-0.957807,-0.24994589735533748
-0.071358,-0.125239,0.00171,0.989555,0.218771,-0.009885,-0.050818,-0.002641,-0.014179,0.003733,-0.247619,0.141654,-0.958446,-0.25022061818312097
-0.069153,-0.125372,0.001465,0.989696,0.204867,-0.013251,-0.05056,-0.002355,-0.014411,0.003007,-0.247958,0.137247,-0.959,-0.25057156530253466
-0.067139,-0.1255,0.001246,0.989818,0.195202,-0.008839,-0.04544,-0.001535,-0.013635,0.002381,-0.248277,0.133224,-0.959484,-0.2509011639380643
-0.065126,-0.125627,0.001027,0.989937,0.185537,-0.004428,-0.04032,-0.000719,-0.012857,0.001739,-0.248592,0.129198,-0.959953,-0.2512262091056656
-0.063294,-0.125701,0.000835,0.990047,0.169827,-0.001297,-0.039278,-0.000998,-0.012768,0.000978,-0.248794,0.125539,-0.960386,-0.2514350015917245
-0.061613,-0.125738,0.000622,0.990148,0.156798,0.003057,-0.03753,-0.000783,-0.011542,0.001076,-0.248922,0.122169,-0.960787,-0.25156686704174863
-0.060078,-0.125683,0.000421,0.99025,0.141097,0.00743,-0.036057,-0.000153,-0.011227,0.001207,-0.248864,0.119089,-0.961189,-0.2515077919519285
-0.058689,-0.125604,0.000192,0.990343,0.130299,0.012423,-0.039636,-0.00035,-0.012251,0.001665,-0.248759,0.116292,-0.961559,-0.25139933305680573
-0.05741,-0.12548,-7e-05,0.990434,0.118288,0.016995,-0.042385,0.000241,-0.012888,0.001128,-0.248568,0.113703,-0.961918,-0.25120090674782874
-0.056197,-0.125354,-0.000384,0.990519,0.112187,0.016652,-0.04776,1e-06,-0.01255,0.001227,-0.248374,0.111231,-0.962257,-0.2510014958073194
-0.055045,-0.125195,-0.000752,0.990604,0.107082,0.018273,-0.052932,0.001068,-0.012367,0.001861,-0.248121,0.108866,-0.962592,-0.25073921195524035
-0.053939,-0.125039,-0.001181,0.990684,0.100326,0.01787,-0.051484,0.001734,-0.009753,0.002026,-0.247876,0.106578,-0.962912,-0.2504868833836477
-0.052888,-0.124915,-0.001596,0.990755,0.093157,0.01657,-0.049011,0.001933,-0.009119,0.001682,-0.247689,0.104399,-0.963198,-0.25029434199252576
-0.051916,-0.124814,-0.00199,0.990819,0.088137,0.013264,-0.048213,0.002057,-0.006691,0.001863,-0.247543,0.102382,-0.963452,-0.2501432887995351
-0.05098,-0.124729,-0.002349,0.990877,0.084209,0.009946,-0.040503,0.002048,-0.005266,0.003168,-0.247422,0.100444,-0.963687,-0.25001830866500047
-0.050082,-0.124693,-0.002645,0.990927,0.083409,0.003975,-0.036241,0.000194,-0.004521,0.003817,-0.247388,0.098595,-0.963887,-0.24998379149686464
-0.049191,-0.124692,-0.002879,0.990971,0.085511,-8.9e-05,-0.029864,0.001634,-0.004069,0.002709,-0.247416,0.096776,-0.964064,-0.2500119664119595
-0.048347,-0.124719,-0.002976,0.991009,0.08176,-0.000228,-0.020009,0.001766,-0.003608,0.002121,-0.247484,0.095083,-0.964215,-0.2500816439694211
-0.047504,-0.124746,-0.003072,0.991046,0.078008,-0.000367,-0.010155,0.001898,-0.003146,0.001531,-0.247551,0.09339,-0.964364,-0.25015063978729823
-0.046704,-0.124786,-0.003056,0.991079,0.077828,-0.00351,-0.005068,0.001916,-0.004282,0.002633,-0.247631,0.091811,-0.964495,-0.2502343561425438
-0.045909,-0.124842,-0.002984,0.991109,0.079777,-0.008967,-0.000844,0.001658,-0.005525,0.003066,-0.247737,0.090256,-0.964614,-0.2503448195325397
-0.045104,-0.124951,-0.002894,0.991133,0.07641,-0.011504,0.001902,0.002286,-0.004038,0.002822,-0.247947,0.088684,-0.964706,-0.2505606911094524
-0.044371,-0.125014,-0.002736,0.991158,0.069927,-0.008109,0.004527,0.001776,-0.003648,0.003048,-0.24806,0.087274,-0.964805,-0.25067720058772147
-0.043706,-0.125067,-0.002574,0.991182,0.063392,-0.00634,0.007479,0.001775,-0.003117,0.002719,-0.248154,0.085998,-0.964896,-0.25077347723718285
-0.0431,-0.125106,-0.002382,0.991204,0.05868,-0.006716,0.011776,0.000877,-0.003947,0.002077,-0.248217,0.084846,-0.964981,-0.2508386635129356
-0.042561,-0.125154,-0.002177,0.991222,0.049862,-0.004531,0.013971,0.000726,-0.003889,0.00141,-0.248296,0.083829,-0.96505,-0.25092088069416046
-0.042075,-0.125188,-0.001963,0.991238,0.045582,-0.003394,0.012954,0.000693,-0.005664,0.001245,-0.248348,0.082921,-0.965115,-0.25097382397226425
-0.041629,-0.12519,-0.001795,0.991257,0.043269,0.000855,0.008826,0.00164,-0.005772,0.000439,-0.24834,0.082081,-0.965189,-0.25096658089258467
-0.041179,-0.125143,-0.00167,0.991282,0.042355,0.000708,0.003872,0.001218,-0.004206,0.000358,-0.248241,0.081222,-0.965287,-0.250864554736533
-0.040778,-0.12511,-0.001613,0.991303,0.036498,0.003388,0.00185,0.00142,-0.004176,0.000844,-0.248175,0.080443,-0.965369,-0.2507962595260243
-0.040425,-0.125029,-0.001563,0.991328,0.03112,0.005463,-0.001188,0.000567,-0.003403,0.000416,-0.248016,0.079758,-0.965467,-0.25063159031915744
-0.040102,-0.124955,-0.001543,0.99135,0.028332,0.007404,-0.003386,0.001515,-0.002632,0.001291,-0.247873,0.079124,-0.965556,-0.2504831220016268
-0.039802,-0.124873,-0.001546,0.991373,0.028121,0.006055,-0.005724,0.001142,-0.001188,0.000587,-0.247715,0.078531,-0.965645,-0.2503205269069399
-0.039506,-0.124818,-0.0016,0.991392,0.024891,0.006596,-0.008889,0.002137,-0.001019,0.000512,-0.247613,0.077931,-0.96572,-0.2502163240383591
-0.039252,-0.124709,-0.001666,0.991415,0.021531,0.008419,-0.009626,0.002515,-0.000955,0.000484,-0.247407,0.077415,-0.965814,-0.2500036895813088
-0.039013,-0.124651,-0.001768,0.991432,0.018956,0.006826,-0.014353,0.002254,-0.001705,0.001323,-0.247304,0.076918,-0.96588,-0.24989676311082254
-0.038801,-0.124549,-0.001918,0.991453,0.019145,0.012207,-0.018877,0.004475,-0.001396,0.000655,-0.247117,0.076461,-0.965964,-0.24970467048100228
-0.038553,-0.124452,-0.002103,0.991474,0.021749,0.007008,-0.018953,0.002999,-0.000968,0.003096,-0.246944,0.075925,-0.966051,-0.24952531005521641
-0.038304,-0.124411,-0.002239,0.991489,0.019839,0.003276,-0.0132,0.00396,0.000515,0.001548,-0.246876,0.075399,-0.966109,-0.24945493395754376
-0.038084,-0.124375,-0.002351,0.991501,0.019005,0.002832,-0.008479,0.003542,0.000872,0.001299,-0.246814,0.074935,-0.966161,-0.2493921340550581
-0.037871,-0.124362,-0.00239,0.991511,0.02188,0.001599,-0.004417,0.003386,0.001005,0.001206,-0.246794,0.074504,-0.9662,-0.24937011348231589
-0.037621,-0.124315,-0.002363,0.991526,0.027673,0.005978,0.001982,0.003724,0.000926,-0.001404,-0.246701,0.074017,-0.966261,-0.24927445664221007
-0.037297,-0.12421,-0.002312,0.991552,0.032434,0.014996,0.003505,0.003585,0.000982,-0.000652,-0.246494,0.073389,-0.966362,-0.2490607602156848
-0.03699,-0.124061,-0.002235,0.991582,0.028472,0.011953,0.009696,0.003315,0.003373,0.001684,-0.246199,0.072802,-0.966481,-0.24875621999605316
-0.03676,-0.123952,-0.002092,0.991605,0.020046,0.006701,0.013771,0.003386,0.003275,0.003506,-0.245976,0.072385,-0.966569,-0.24852717166040467
-0.036608,-0.123914,-0.001911,0.991616,0.01618,-0.000514,0.01719,0.00317,0.003783,0.002781,-0.245889,0.072128,-0.966611,-0.24843790608688487
-0.036513,-0.123884,-0.001711,0.991623,0.010406,0.000143,0.019386,0.004312,0.003101,0.001413,-0.245818,0.071991,-0.966639,-0.24836287219244318
-0.036461,-0.123893,-0.001521,0.991624,0.009855,0.000614,0.016163,0.003835,0.002342,0.001842,-0.245822,0.071935,-0.966642,-0.2483670647132626
-0.03641,-0.123902,-0.001331,0.991625,0.009304,0.001085,0.01294,0.003357,0.001583,0.002271,-0.245826,0.071879,-0.966645,-0.24837130079304948
-0.036343,-0.123878,-0.001183,0.991631,0.010735,-0.002075,0.011293,0.003256,0.001747,0.002862,-0.245769,0.071784,-0.966667,-0.2483124479183195
-0.036245,-0.123903,-0.001043,0.991632,0.011522,-0.003307,0.008953,0.002696,0.001518,0.001669,-0.245807,0.071624,-0.966669,-0.24835314525626997
-0.036126,-0.123933,-0.000959,0.991632,0.013805,-0.002552,0.006562,0.002835,0.001789,-7.2e-05,-0.245862,0.07141,-0.966671,-0.24840800945772043
-0.035972,-0.123909,-0.000867,0.991641,0.017243,-0.003151,0.004351,0.002677,0.001489,-0.000262,-0.245809,0.071128,-0.966705,-0.24835407201467077
-0.035775,-0.12392,-0.000793,0.991647,0.02215,-0.003658,0.005035,0.003147,0.001671,0.001085,-0.245827,0.070757,-0.966728,-0.24837229810665418
-0.035551,-0.123956,-0.000712,0.99165,0.024374,-0.006806,0.004599,0.00193,0.00173,0.001805,-0.245892,0.070331,-0.966742,-0.2484404167714308
-0.035298,-0.124043,-0.00066,0.991649,0.024874,-0.009707,0.002683,0.00244,0.002843,0.002604,-0.246061,0.069843,-0.966735,-0.248614018299616
-0.035053,-0.124106,-0.000587,0.991649,0.023999,-0.016035,0.005719,0.003251,0.002086,0.004849,-0.246181,0.069375,-0.966738,-0.24873731772249183
-0.034806,-0.12426,-0.000472,0.991639,0.028099,-0.015985,0.009168,0.002761,0.002081,0.002797,-0.246474,0.068913,-0.966696,-0.24904133279274726
-0.034517,-0.124437,-0.000317,0.991627,0.030977,-0.010785,0.012162,0.003749,-0.000192,-0.001263,-0.246813,0.068377,-0.966648,-0.24938915907612988
-0.034222,-0.124531,-0.000156,0.991625,0.028996,-0.006061,0.012613,0.002948,-0.001557,-0.001026,-0.246986,0.067832,-0.966642,-0.24956946230192806
-0.033955,-0.124576,1.1e-05,0.991629,0.030383,-0.006989,0.0114,0.001231,-0.003454,0.000727,-0.247066,0.067344,-0.966656,-0.2496508016909831
-0.033684,-0.124655,0.000175,0.991628,0.02916,-0.012436,0.010969,0.000156,-0.001114,0.00203,-0.247211,0.066848,-0.966653,-0.24980084157768045
-0.033518,-0.12479,0.000333,0.991617,0.023639,-0.012722,0.012041,0.00022,-0.001042,0.002079,-0.247466,0.066558,-0.966608,-0.25006346199547136
-0.033352,-0.124925,0.000492,0.991605,0.018117,-0.013007,0.013113,0.000284,-0.000969,0.002127,-0.247721,0.066268,-0.966563,-0.25032587544807794
-0.033091,-0.125212,0.000821,0.991578,0.009762,-0.01308,0.012561,-0.000167,-0.001168,0.000747,-0.248261,0.06583,-0.966454,-0.25088421946459794
-0.033186,-0.125061,0.00065,0.991594,0.012596,-0.013292,0.014184,0.000348,-0.000896,0.002175,-0.247976,0.065977,-0.966517,-0.2505907826227845
-0.032999,-0.125332,0.000968,0.991565,0.007584,-0.012605,0.011798,0.000119,-0.001417,0.001253,-0.248486,0.065684,-0.966406,-0.25111667297612894
-0.032955,-0.125454,0.001111,0.991551,0.004428,-0.011638,0.011126,-3.4e-05,-0.000938,-2.1e-05,-0.248715,0.065632,-0.966351,-0.25135318727146816
-0.032924,-0.125533,0.00124,0.991542,0.001158,-0.006732,0.008485,0.000303,-0.001385,9.4e-05,-0.24886,0.065602,-0.966315,-0.25150390612710105
-0.032935,-0.12556,0.001328,0.991538,-0.00167,-0.003522,0.004472,0.001023,-0.001739,0.000237,-0.248907,0.065646,-0.9663,-0.25155213880048843
-0.032982,-0.125576,0.001333,0.991535,-0.006618,0.00083,0.000482,0.001556,-0.000992,0.000286,-0.248939,0.065739,-0.966286,-0.25158365183392506
-0.033066,-0.125527,0.001302,0.991538,-0.008951,0.002528,-0.004693,0.001094,-0.001974,0.001657,-0.248844,0.0659,-0.966299,-0.2514859873654398
-0.033141,-0.125532,0.001181,0.991535,-0.010192,0.000355,-0.009159,0.000911,-0.000363,0.002019,-0.24886,0.066017,-0.966287,-0.25150352611774096
-0.033247,-0.125543,0.001062,0.99153,-0.013195,-0.00048,-0.011984,0.00128,0.001006,0.001234,-0.248889,0.066197,-0.966267,-0.251532663663564
-0.033358,-0.12555,0.000915,0.991526,-0.012831,-0.000248,-0.011813,0.001555,0.002383,0.001881,-0.248911,0.066381,-0.966249,-0.2515558415994632
-0.033503,-0.125537,0.000762,0.991523,-0.015304,-0.000276,-0.013084,0.001176,0.003002,0.001083,-0.248894,0.066629,-0.966236,-0.25153875760989897
-0.033632,-0.125542,0.000632,0.991518,-0.01164,-0.000815,-0.008112,0.001127,0.003668,0.001274,-0.248912,0.066853,-0.966216,-0.2515565242903091
-0.033775,-0.125568,0.000751,0.99151,-0.01391,0.002386,0.016976,0.001598,0.005103,0.00104,-0.248953,0.067165,-0.966184,-0.25159919827729393
-0.033918,-0.125594,0.00087,0.991501,-0.016179,0.005586,0.042064,0.002069,0.006537,0.000806,-0.248994,0.067478,-0.966151,-0.2516415422353628
-0.034119,-0.125559,0.001209,0.991499,-0.010801,-0.000278,0.033733,0.001446,0.002862,0.001287,-0.2489,0.067962,-0.966142,-0.25154511674316676
-0.034222,-0.125566,0.001451,0.991494,-0.002851,-0.005234,0.021733,0.000625,0.001862,0.00134,-0.248897,0.068226,-0.966124,-0.2515407935131078
-0.034257,-0.1256,0.001628,0.991488,0.000903,-0.005269,0.014132,0.001782,0.003517,0.001005,-0.248951,0.068339,-0.966102,-0.2515962241371846
-0.034264,-0.125676,0.001739,0.991478,0.002746,-0.00942,0.008176,0.001503,0.002796,0.002277,-0.249091,0.06838,-0.966063,-0.2517413594147701
-0.03423,-0.125784,0.001825,0.991465,0.004582,-0.011181,0.006454,0.00309,0.00299,0.001978,-0.249296,0.068335,-0.966013,-0.2519531605013067
-0.034184,-0.125902,0.001903,0.991452,0.00401,-0.008393,0.002703,0.002685,0.002371,0.001774,-0.249522,0.068263,-0.96596,-0.2521860682632616
-0.034124,-0.126011,0.00192,0.99144,0.00774,-0.013747,-0.000444,0.002335,0.001749,0.002172,-0.249734,0.068147,-0.965913,-0.25240518551059504
-0.034038,-0.126199,0.001882,0.991419,0.007773,-0.01631,-0.005045,0.002353,0.001603,0.001695,-0.250103,0.067967,-0.965831,-0.25278772286353546
-0.033953,-0.126386,0.001844,0.991398,0.007807,-0.018872,-0.009645,0.002372,0.001457,0.001218,-0.250472,0.067787,-0.965748,-0.2531682163149299
-0.033855,-0.126596,0.001745,0.991375,0.006542,-0.021247,-0.015052,0.002455,0.001881,0.001532,-0.25089,0.067568,-0.965654,-0.2535996196212933
-0.033749,-0.126847,0.001581,0.991347,0.006428,-0.022093,-0.018634,0.003656,0.001126,0.001378,-0.251392,0.067314,-0.965542,-0.25411824783475634
-0.033652,-0.127098,0.001383,0.991318,0.006392,-0.02236,-0.019765,0.004257,0.001313,0.000862,-0.251896,0.067072,-0.965427,-0.25463892057923704
-0.033547,-0.127322,0.001204,0.991293,0.006537,-0.021497,-0.019182,0.003595,0.001155,0.001061,-0.252346,0.066816,-0.965327,-0.25510398890409886
-0.03348,-0.127545,0.001062,0.991267,0.006393,-0.021281,-0.017961,0.003014,0.001278,0.001591,-0.252792,0.066647,-0.965223,-0.25556405883585176
-0.033414,-0.127768,0.000919,0.991241,0.006249,-0.021066,-0.01674,0.002432,0.001401,0.002121,-0.253237,0.066477,-0.965118,-0.25602418794335013
-0.033322,-0.12803,0.000769,0.99121,0.007179,-0.021326,-0.014261,0.001698,0.002127,0.00265,-0.253759,0.066254,-0.964996,-0.25656344013464527
-0.033222,-0.128265,0.000635,0.991183,0.006648,-0.020125,-0.014652,0.002394,0.002046,0.001033,-0.254226,0.066021,-0.964889,-0.25704730761987254
-0.033139,-0.128444,0.000539,0.991163,0.012588,-0.017765,-0.004231,0.002529,0.001543,6.2e-05,-0.254581,0.065831,-0.964808,-0.25741559899177086
-0.03308,-0.128609,0.00078,0.991143,0.000196,-0.007297,0.041987,0.002806,0.005359,-0.002343,-0.254888,0.065775,-0.964731,-0.25773209851542356
-0.033164,-0.128618,0.001204,0.991139,-0.004205,-0.003864,0.034585,0.002921,0.00195,0.000563,-0.254877,0.066049,-0.964715,-0.2577202652031871
-0.033194,-0.128701,0.001447,0.991127,0.002564,-0.01565,0.0108,0.001004,3.9e-05,0.002656,-0.255022,0.066172,-0.964668,-0.25787046435057065
-0.033197,-0.128875,0.001541,0.991104,-0.004493,-0.009069,0.008528,0.002643,0.002284,6.9e-05,-0.255354,0.066201,-0.964579,-0.25821459218682874
-0.033317,-0.12895,0.001593,0.99109,-0.01049,-0.007825,0.003368,0.002153,0.00074,0.000716,-0.255497,0.06645,-0.964524,-0.25836065754517423
-0.033419,-0.129064,0.001594,0.991072,-0.00641,-0.013504,0.006947,0.001779,-0.000159,0.001388,-0.255716,0.066653,-0.964451,-0.2585891792311478
-0.03358,-0.129167,0.001779,0.991052,-0.017477,-0.007038,0.027348,0.002052,0.003539,-0.001498,-0.255904,0.067019,-0.964376,-0.2587816392175621
-0.033799,-0.129229,0.001981,0.991037,-0.012837,-0.008759,0.014147,0.002471,0.000936,0.001325,-0.256008,0.067505,-0.964315,-0.2588898225315776
-0.033904,-0.129365,0.002052,0.991015,-0.007073,-0.022018,0.002661,0.001239,0.001128,0.003386,-0.256266,0.06773,-0.964231,-0.259157388000713
-0.034011,-0.129592,0.002083,0.990982,-0.008122,-0.017823,0.005362,0.002354,0.002238,0.001698,-0.256704,0.067948,-0.964099,-0.2596113953613148
-0.034046,-0.129828,0.00214,0.990949,-0.00242,-0.02027,0.005728,0.001377,0.001309,0.000994,-0.257161,0.068031,-0.963971,-0.2600823535482667
-0.034081,-0.130065,0.002196,0.990917,0.003281,-0.022718,0.006093,0.0004,0.000381,0.000289,-0.257617,0.068115,-0.963843,-0.2605557210879739
-0.034007,-0.130255,0.002274,0.990895,0.011889,-0.011266,0.006659,0.001402,-0.001351,-0.001634,-0.257983,0.067988,-0.963754,-0.26093435682511795
-0.033893,-0.130335,0.002333,0.990888,0.013977,-0.007801,0.000778,0.001787,-0.000333,0.000237,-0.258136,0.067777,-0.963728,-0.26109296672687254
-0.033781,-0.130411,0.002355,0.990881,0.007031,-0.011551,-0.000844,0.000185,0.002088,0.001904,-0.258284,0.06756,-0.963704,-0.2612459810981064
-0.033718,-0.130585,0.002335,0.990861,0.000683,-0.018455,-0.004686,0.000297,0.002073,0.002007,-0.258625,0.06743,-0.963621,-0.26159923204794844
-0.033735,-0.130789,0.002292,0.990833,-0.004839,-0.02232,-0.005258,-0.000163,0.003274,0.002902,-0.259025,0.06745,-0.963513,-0.26201310404750405
-0.033806,-0.131023,0.002229,0.9908,-0.010011,-0.020133,-0.004134,0.000661,0.003299,0.001315,-0.259485,0.067574,-0.96338,-0.26248834963309603
-0.033945,-0.13124,0.002182,0.990767,-0.01594,-0.01489,-0.003726,0.000158,0.003031,0.000263,-0.259908,0.067835,-0.963248,-0.26292732735702223
-0.034118,-0.131396,0.002143,0.99074,-0.017291,-0.011425,-0.001648,-0.001217,0.003889,0.000231,-0.260213,0.068167,-0.963142,-0.26324208766873547
-0.034282,-0.1315,0.002107,0.990721,-0.015783,-0.004788,-0.001055,-0.001028,0.003415,-0.000157,-0.260415,0.068483,-0.963065,-0.2634521728687585
-0.034426,-0.131553,0.002073,0.990709,-0.013108,-0.001575,-0.002629,0.000151,0.003958,-0.001136,-0.260519,0.068759,-0.963017,-0.26355946976732136
-0.034541,-0.13155,0.00201,0.990706,-0.009171,0.002471,-0.00678,0.000509,0.001995,-0.001299,-0.260515,0.068969,-0.963003,-0.2635565093641524
-0.034611,-0.131459,0.001939,0.990715,-0.002923,0.008206,-0.011424,0.001037,0.000779,-0.000739,-0.260342,0.06909,-0.963041,-0.2633770063749005
-0.03462,-0.131343,0.001771,0.990731,0.002369,0.008608,-0.018191,0.000602,0.001164,-0.000201,-0.260128,0.069064,-0.963101,-0.2631553228163894
-0.03456,-0.131247,0.001554,0.990746,0.005154,0.008275,-0.019825,-0.000169,0.002543,0.001817,-0.259958,0.068888,-0.96316,-0.2629781563837379
-0.034523,-0.131193,0.001371,0.990755,-0.000269,0.005999,-0.014999,0.000256,0.004829,0.002371,-0.259866,0.068766,-0.963193,-0.26288299731834636
-0.034545,-0.131124,0.001219,0.990763,-0.002275,0.008742,-0.012914,0.002026,0.005962,0.002751,-0.259741,0.068771,-0.963226,-0.262754396510438
-0.034559,-0.131127,0.001115,0.990762,-0.000945,0.000335,-0.005469,0.000459,0.005353,0.004119,-0.259755,0.068772,-0.963223,-0.26276768922720073
-0.034563,-0.131128,0.001087,0.990762,0.001813,-0.000605,0.002988,0.000846,0.003856,0.001604,-0.259759,0.068772,-0.963222,-0.2627717362772994
-0.034519,-0.131034,0.001144,0.990776,0.005674,0.010929,0.001039,0.002629,0.00076,-0.000731,-0.259571,0.0687,-0.963277,-0.2625786804106412
-0.034432,-0.130906,0.001143,0.990796,0.012391,0.012108,-0.00057,0.000947,0.001721,0.001312,-0.259324,0.068529,-0.963356,-0.2623217478162154
-0.034343,-0.130827,0.001172,0.990809,0.006936,0.006249,0.002323,0.000501,0.001976,0.001854,-0.25917,0.06836,-0.963409,-0.2621613306549932
-0.034306,-0.130777,0.001211,0.990817,0.001675,0.002754,0.003629,0.000299,0.001535,0.001493,-0.25907,0.068298,-0.963441,-0.26205823174961546
-0.034316,-0.130714,0.001257,0.990825,-0.002101,0.00264,0.001494,0.001078,0.001143,0.000505,-0.258943,0.068332,-0.963472,-0.26192784974314165
-0.034353,-0.130677,0.001274,0.990829,-0.002748,0.004652,0.00296,0.001125,0.001091,0.001258,-0.258869,0.06841,-0.963487,-0.2618517171524979
-0.034398,-0.130603,0.0013,0.990837,-0.003255,0.003128,0.001314,0.000459,0.001304,0.001337,-0.258723,0.068505,-0.963519,-0.2617000952839074
-0.034424,-0.13057,0.001293,0.99084,-0.001063,0.004128,-0.000905,0.000967,0.001132,0.001474,-0.258659,0.068555,-0.963533,-0.2616336355151515
-0.034441,-0.130497,0.001265,0.990849,0.00066,0.009419,0.00158,0.00185,0.000296,0.0001,-0.258519,0.068582,-0.963569,-0.26148826204140796
-0.034443,-0.13034,0.001281,0.99087,-0.000639,0.015697,0.003791,0.001478,0.000825,0.000143,-0.258213,0.068591,-0.96365,-0.26117072113910755
-0.034495,-0.130195,0.001268,0.990887,-0.004173,0.015235,7e-05,0.000845,0.000472,8.2e-05,-0.257929,0.068691,-0.963719,-0.2608786660523724
-0.034547,-0.130049,0.001255,0.990905,-0.007707,0.014773,-0.00365,0.000211,0.000118,2e-05,-0.257645,0.068792,-0.963788,-0.26058484446151
-0.034634,-0.129898,0.0012,0.990922,-0.010541,0.016405,-0.008122,0.002113,-0.000659,0.000356,-0.257355,0.068951,-0.963854,-0.26028343500661694
-0.034719,-0.129732,0.001072,0.99094,-0.006975,0.014294,-0.011614,0.002673,-0.000334,0.000953,-0.25704,0.069088,-0.963928,-0.25995681554093286
-0.034755,-0.129598,0.000935,0.990957,-0.006262,0.012731,-0.013509,0.002984,0.000786,0.002131,-0.256787,0.069124,-0.963993,-0.2596963530979158
-0.034798,-0.129464,0.000814,0.990973,-0.003723,0.008249,-0.008123,0.0027,0.002283,0.002305,-0.256534,0.069179,-0.964056,-0.2594344881197071
-0.034833,-0.129396,0.000724,0.990981,-0.006187,0.00818,-0.00521,0.002513,0.004342,0.001715,-0.256407,0.069225,-0.964087,-0.2593036218719833
-0.034897,-0.129307,0.000743,0.99099,-0.003661,0.007085,0.021503,0.001688,0.004552,0.000936,-0.256232,0.069358,-0.964124,-0.259122070769899
-0.035065,-0.129182,0.001185,0.991,-0.018398,0.017427,0.064424,0.003049,0.007959,-0.001839,-0.255956,0.069805,-0.964165,-0.258836124028638
-0.035368,-0.128949,0.001793,0.991019,-0.020173,0.017138,0.049577,0.0036,0.001492,0.000556,-0.255455,0.070564,-0.964242,-0.25831827652990946
-0.035539,-0.128843,0.002126,0.991026,-0.006869,0.00363,0.023186,0.002293,-0.001242,0.002568,-0.255223,0.070988,-0.964273,-0.2580777283523485
-0.035646,-0.12876,0.002312,0.991032,-0.007328,0.006091,0.011806,0.003466,0.000959,-7.9e-05,-0.255046,0.071249,-0.9643,-0.2578950006313613
-0.035748,-0.128705,0.002396,0.991035,-0.005743,0.003883,0.00309,0.003087,0.000578,0.001385,-0.254932,0.071471,-0.964314,-0.2577763602675147
-0.035781,-0.128671,0.002369,0.991039,-0.004232,0.004111,-0.004184,0.002544,0.0012,0.001086,-0.254866,0.07153,-0.964327,-0.2577095669607153
-0.035849,-0.128606,0.002306,0.991045,-0.005113,0.005694,-0.005066,0.002593,0.002405,0.002067,-0.254743,0.071648,-0.964351,-0.2575822681352067
-0.035904,-0.12854,0.002215,0.991052,-0.002525,0.002889,-0.008996,0.003046,0.000855,0.000835,-0.254621,0.071735,-0.964377,-0.2574553453269345
-0.035886,-0.128524,0.002045,0.991055,-0.000926,0.002741,-0.011154,0.003486,0.001797,0.000677,-0.254602,0.071656,-0.964388,-0.257436047807992
-0.035868,-0.128508,0.001875,0.991058,0.000672,0.002593,-0.013312,0.003926,0.002739,0.000518,-0.254583,0.071577,-0.964399,-0.25741673753151184
-0.035849,-0.128518,0.001851,0.991057,-0.00292,0.002706,0.019218,0.002132,0.007535,0.00159,-0.254605,0.071532,-0.964396,-0.25743882136285573
-0.035957,-0.128394,0.002141,0.991069,-0.01137,0.010933,0.030388,0.001583,0.005269,0.000889,-0.25434,0.071822,-0.964444,-0.25716588058866324
-0.036075,-0.128353,0.002347,0.991069,-0.003106,-0.001924,0.011209,0.002161,0.000559,0.002684,-0.254244,0.072107,-0.964448,-0.25706596010851984
-0.036106,-0.128351,0.002425,0.991068,-0.00184,-0.00118,0.007781,0.002925,0.002713,0.000837,-0.254234,0.07219,-0.964445,-0.2570556213640182
-0.036175,-0.128329,0.002498,0.991068,-0.001831,0.00022,0.001454,0.002872,0.000414,0.001081,-0.254186,0.072346,-0.964446,-0.2570047262260059
-0.036184,-0.128363,0.002462,0.991064,-0.000604,-0.003298,-0.00503,0.002397,0.000638,0.000479,-0.254254,0.072353,-0.964427,-0.25707599360498784
-0.03618,-0.128363,0.002421,0.991064,-0.002523,-0.001046,-0.006923,0.00298,0.002743,0.000351,-0.254256,0.072336,-0.964428,-0.25707908153928327
-0.036224,-0.12841,0.002329,0.991057,-0.004311,-0.004683,-0.007336,0.001624,0.001971,0.001808,-0.254355,0.072398,-0.964397,-0.25718022105546945
-0.036257,-0.12843,0.002228,0.991053,-0.004607,-0.002042,-0.01089,0.00231,0.002055,0.001706,-0.2544,0.072438,-0.964382,-0.2572275634214473
-0.036347,-0.128451,0.002262,0.991047,-0.012433,0.004521,0.016701,0.002844,0.004821,-5.1e-05,-0.254438,0.072624,-0.964358,-0.25726603969555656
-0.036514,-0.12836,0.002421,0.991052,-0.012243,0.006455,0.012798,0.002477,0.002104,0.000777,-0.254246,0.072995,-0.964381,-0.2570680756123282
-0.036605,-0.128358,0.002457,0.991049,-0.005037,-0.002445,0.000232,0.001707,-0.000542,0.000948,-0.254238,0.073186,-0.964369,-0.2570599997047771
-0.036654,-0.128374,0.002416,0.991045,-0.00585,0.001115,-0.007444,0.003135,0.000696,2.6e-05,-0.254272,0.073272,-0.964353,-0.25709458778317423
-0.036689,-0.128387,0.002324,0.991043,-0.002706,-0.003894,-0.010456,0.00182,0.002643,0.002847,-0.254303,0.073317,-0.964342,-0.25712750509814863
-0.036739,-0.128484,0.002202,0.991028,-0.00492,-0.008611,-0.011324,0.002707,0.003237,0.001916,-0.254502,0.073385,-0.964284,-0.25733135168934834
-0.036794,-0.128553,0.002094,0.991018,-0.008845,-0.002589,-0.006788,0.001849,0.004288,-0.000157,-0.254642,0.073466,-0.964241,-0.257478081964923
-0.036888,-0.128547,0.002012,0.991015,-0.00945,-0.000276,-0.004783,0.001892,0.003259,0.000643,-0.254635,0.073631,-0.96423,-0.2574708355575308
-0.036973,-0.128587,0.00193,0.991007,-0.002775,-0.005588,-0.006424,0.002284,0.001757,0.000926,-0.254719,0.073778,-0.964197,-0.2575566091829987
-0.036956,-0.128634,0.001807,0.991002,0.001208,-0.006347,-0.011982,0.001365,0.001206,0.001405,-0.254819,0.073712,-0.964175,-0.257661081687631
-0.036918,-0.128729,0.001655,0.990991,-0.000347,-0.006895,-0.010023,0.002444,0.001854,0.000526,-0.255016,0.073598,-0.964132,-0.25786462495681617
-0.036915,-0.128717,0.001542,0.990993,-0.001485,0.000338,-0.010137,0.002621,0.004344,0.000232,-0.255002,0.073563,-0.964138,-0.2578491987504531
-0.036923,-0.128787,0.001431,0.990984,-0.003394,-0.007144,-0.00771,0.001051,0.004174,0.003361,-0.255145,0.073549,-0.964101,-0.2579987383695449
-0.036976,-0.128857,0.001359,0.990973,-0.004842,-0.003489,-0.000855,0.002747,0.003481,0.00089,-0.255287,0.073634,-0.964057,-0.2581446460244742
-0.037029,-0.128856,0.001384,0.990971,-0.00143,-0.001661,0.000948,0.001349,0.000962,0.000848,-0.255282,0.073745,-0.96405,-0.2581399991814337
-0.037013,-0.128846,0.001474,0.990973,0.006627,0.006856,0.023681,0.001303,0.002203,-0.002063,-0.255256,0.073738,-0.964058,-0.2581131888649188
-0.036976,-0.12865,0.001811,0.990999,0.006236,0.03165,0.034445,0.002384,0.002072,-0.004703,-0.25485,0.073752,-0.964164,-0.25769269757491203
-0.036952,-0.128366,0.001992,0.991036,0.003866,0.025765,0.021724,0.001369,0.0021,-0.001046,-0.254284,0.073752,-0.964313,-0.25710671442226124
-0.036927,-0.128083,0.002174,0.991073,0.001496,0.019881,0.009003,0.000355,0.002129,0.00261,-0.253719,0.073752,-0.964462,-0.25652277338804774
-0.03692,-0.127881,0.002232,0.9911,0.001734,0.010223,0.006094,0.001002,0.001261,0.001715,-0.25332,0.073754,-0.964567,-0.25611160023954965
-0.036969,-0.12779,0.002337,0.991109,-0.008172,0.011801,0.020018,0.002071,0.006186,0.000871,-0.253134,0.073879,-0.964606,-0.2559192693260386
-0.037143,-0.127602,0.002484,0.991126,-0.017253,0.014542,0.009677,0.002026,0.004128,0.00141,-0.252756,0.074261,-0.964676,-0.25552644305654293
-0.037326,-0.127479,0.002527,0.991135,-0.01622,0.009337,0.001611,0.001623,0.005105,0.001377,-0.252509,0.074634,-0.964712,-0.2552725663627256
-0.037488,-0.127374,0.002532,0.991143,-0.013959,0.011359,0.00387,0.00201,0.006931,0.001939,-0.252302,0.074956,-0.964741,-0.255058335918197
-0.037608,-0.127295,0.002526,0.991148,-0.007334,0.008417,0.001891,0.001048,0.006982,0.002472,-0.252146,0.075193,-0.964763,-0.2548976569536423
-0.037667,-0.12721,0.00255,0.991157,-0.000467,0.005998,0.004864,0.00209,0.007196,0.000989,-0.251979,0.075317,-0.964797,-0.2547237295528215
-0.0377,-0.12714,0.002594,0.991165,0.001762,0.007666,0.003089,0.00419,0.005375,0.001129,-0.251838,0.075394,-0.964828,-0.25457884351147125
-0.037675,-0.127062,0.002674,0.991175,0.002672,0.012612,0.019027,0.002974,0.00803,0.000764,-0.251681,0.075365,-0.964871,-0.2544156068580387
-0.037636,-0.126938,0.002888,0.991192,0.009802,0.004066,0.011761,0.002042,0.004885,0.001732,-0.251422,0.075343,-0.964941,-0.2541496599234163
-0.037597,-0.126814,0.003101,0.991209,0.016932,-0.004479,0.004496,0.00111,0.001739,0.0027,-0.251164,0.07532,-0.96501,-0.25388383482282584
-0.037422,-0.126804,0.003175,0.991216,0.017623,-0.003243,0.000776,0.002915,0.00365,0.001268,-0.251143,0.074991,-0.965041,-0.25386058765507163
-0.03724,-0.126846,0.00319,0.991218,0.016475,0.00229,-0.002633,0.003024,0.00401,0.002192,-0.251226,0.074635,-0.965047,-0.25394717163424857
-0.037096,-0.126873,0.0032,0.99122,0.018307,-0.015987,-0.00072,3.2e-05,0.001374,0.004374,-0.251281,0.074352,-0.965054,-0.2540031783202186
-0.036844,-0.126969,0.003205,0.991217,0.022897,-0.008297,-0.002908,0.00112,-0.000627,0.001639,-0.251472,0.073854,-0.965043,-0.2542003049435649
-0.036592,-0.127066,0.003211,0.991214,0.027487,-0.000607,-0.005097,0.002209,-0.002628,-0.001096,-0.251664,0.073356,-0.965031,-0.25439941841788466
-0.036306,-0.127039,0.003284,0.991228,0.024253,0.008039,0.01146,0.001932,0.000935,-0.001769,-0.25161,0.07281,-0.965086,-0.2543442094309023
-0.036145,-0.126939,0.003454,0.991246,0.015649,0.004588,0.01053,0.001844,-0.000384,6e-06,-0.251406,0.072535,-0.96516,-0.25413249629269447
-0.036005,-0.126946,0.003486,0.99125,0.012826,-0.005347,0.001055,0.001099,-0.001582,0.002597,-0.251419,0.072264,-0.965177,-0.25414650196702704
-0.035928,-0.126986,0.003502,0.991247,0.003401,-0.001288,0.000418,0.003355,0.001825,0.001359,-0.251498,0.072117,-0.965167,-0.25422701420938465
-0.035877,-0.127065,0.003479,0.991239,0.004606,-0.005306,-0.002657,0.001685,-0.00015,0.002801,-0.251655,0.072009,-0.965134,-0.25438880945860926
-0.035807,-0.127108,0.00345,0.991236,0.005958,-0.008773,-0.005174,0.001037,0.000961,0.002873,-0.251741,0.071864,-0.965123,-0.25447875287188393
-0.035695,-0.127169,0.003417,0.991233,0.006344,-0.008067,-0.004347,0.001505,0.002188,0.001708,-0.251865,0.071634,-0.965108,-0.2546061543736502
-0.035656,-0.127236,0.00337,0.991226,0.002605,-0.002929,-0.003857,0.002855,4.1e-05,4.6e-05,-0.251998,0.071544,-0.965079,-0.25474530477222396
-0.035582,-0.127268,0.003302,0.991224,0.009922,-0.002314,-0.007435,0.002758,-0.000788,0.000411,-0.252068,0.07138,-0.965073,-0.2548158493525858
-0.03544,-0.127328,0.003206,0.991222,0.011499,-0.008748,-0.013572,0.001951,-0.000634,0.000324,-0.252193,0.071074,-0.965063,-0.2549462417163633
-0.0353,-0.127367,0.003052,0.991223,0.013331,-0.007608,-0.009358,0.003818,-5e-06,0.000585,-0.252282,0.070757,-0.965063,-0.25503856717041534
-0.035254,-0.127412,0.003102,0.991218,0.000435,0.000709,0.009517,0.005287,0.002846,-0.001162,-0.252368,0.070679,-0.965047,-0.2551260905396449
-0.035231,-0.127434,0.003124,0.991216,0.005656,-0.006869,-0.002494,0.002979,0.000218,0.002052,-0.25241,0.070639,-0.965038,-0.2551691819634826
-0.035145,-0.127588,0.003075,0.9912,0.00695,-0.011861,-0.00493,0.002988,0.0017,0.004251,-0.252714,0.070457,-0.964972,-0.25548460084666397
-0.035082,-0.127707,0.003096,0.991187,0.002792,-0.011047,0.001409,0.002938,0.003183,0.001992,-0.252945,0.070337,-0.96492,-0.2557238738840027
-0.035062,-0.127848,0.003108,0.991169,0.002759,-0.013673,0.004853,0.002026,0.003025,0.000979,-0.253221,0.070299,-0.964851,-0.2560072953437632
-0.035058,-0.12801,0.003195,0.991148,-0.001414,-0.013885,0.008324,0.002202,0.003555,0.000257,-0.253529,0.070314,-0.964769,-0.2563274289985911
-0.035098,-0.128149,0.003295,0.991128,-0.002847,-0.014889,0.01235,0.001229,0.003947,0.00124,-0.253793,0.070418,-0.964692,-0.2565994644153381
-0.035125,-0.128303,0.003413,0.991107,-0.00102,-0.015667,0.010673,0.001051,0.000787,0.000884,-0.254083,0.070502,-0.964609,-0.25690075177649957
-0.035168,-0.128493,0.003495,0.991081,0.001355,-0.017765,0.004699,0.001605,0.001533,-0.000367,-0.254448,0.070606,-0.964506,-0.25727699524662695
-0.035165,-0.128651,0.003552,0.99106,0.000566,-0.016348,0.002542,0.002007,0.000851,0.001453,-0.254753,0.070616,-0.964424,-0.25759113777410153
-0.035145,-0.128841,0.003509,0.991036,0.001602,-0.016558,-0.004998,0.002527,0.00127,-0.000173,-0.255126,0.070563,-0.964329,-0.2579774868061345
-0.035098,-0.129043,0.003433,0.991012,0.005743,-0.017919,-0.01014,0.002293,0.000759,0.000263,-0.255526,0.070451,-0.964232,-0.2583910432882185
-0.035025,-0.129254,0.003332,0.990987,0.004153,-0.017389,-0.008502,0.00184,0.002157,0.00017,-0.255946,0.070279,-0.964133,-0.2588247872462376
-0.035009,-0.129372,0.003239,0.990973,0.002271,-0.011515,-0.008891,0.00145,0.003072,-0.001822,-0.256182,0.070223,-0.964074,-0.25906982562324826
-0.034951,-0.129497,0.003104,0.990959,0.00081,-0.010502,-0.011673,0.000741,0.002725,0.001058,-0.256435,0.070073,-0.964018,-0.25933253112090965
-0.034895,-0.129631,0.003003,0.990944,0.001081,-0.007909,-0.009472,0.000672,0.002692,0.001337,-0.256705,0.069936,-0.963956,-0.25961093503160493
-0.034882,-0.129688,0.002932,0.990937,0.002592,-0.006843,-0.005268,0.001598,0.003037,0.002125,-0.256821,0.069893,-0.963928,-0.25973114855686485
-0.034838,-0.129772,0.002899,0.990927,0.006928,-0.010792,-0.004031,0.001581,0.002442,0.001577,-0.256987,0.069796,-0.963891,-0.25990336807071784
-0.034784,-0.129899,0.002885,0.990913,0.005405,-0.009016,-0.001663,0.001789,0.003039,0.001552,-0.257237,0.069686,-0.963832,-0.26016138759093627
-0.03473,-0.130027,0.002872,0.990898,0.003882,-0.00724,0.000704,0.001997,0.003637,0.001527,-0.257487,0.069576,-0.963774,-0.2604211242843388
-0.034713,-0.130117,0.002904,0.990886,0.001766,-0.011762,0.0034,0.001281,0.004599,0.002007,-0.257661,0.06955,-0.963729,-0.2606002842477292
-0.034681,-0.130222,0.002957,0.990874,0.001797,-0.010877,0.00488,0.001012,0.003415,0.000794,-0.257861,0.0695,-0.963679,-0.26080880071034224
-0.034666,-0.13031,0.002994,0.990863,0.002604,-0.008392,0.005005,0.0005,0.002809,0.002576,-0.258031,0.069479,-0.963635,-0.26098377232483955
-0.034657,-0.13046,0.003047,0.990843,0.002038,-0.01201,0.001236,0.001093,0.001207,0.001602,-0.258319,0.069475,-0.963558,-0.26128231422103787
-0.034636,-0.130597,0.003022,0.990826,-0.000405,-0.010137,-0.003414,0.001033,0.000445,0.000896,-0.258588,0.069427,-0.96349,-0.2615606826474067
-0.034591,-0.130687,0.002992,0.990816,0.003791,-0.010103,-0.006978,-1.3e-05,0.000734,0.001962,-0.258767,0.069329,-0.963449,-0.2617450398576398
-0.034537,-0.130765,0.002923,0.990807,0.004698,-0.008946,-0.008503,0.001805,0.000125,0.001062,-0.258924,0.069204,-0.963415,-0.261907892848311
-0.034458,-0.13085,0.002828,0.990799,0.007958,-0.011287,-0.009303,0.000229,0.000651,0.000708,-0.259098,0.069022,-0.963382,-0.26208737004185706
-0.034359,-0.130954,0.002749,0.990789,0.00519,-0.007731,-0.007388,0.000938,0.003134,0.000687,-0.259307,0.068805,-0.963341,-0.2623042376726755
-0.034302,-0.131033,0.002676,0.990781,0.002008,-0.003772,-0.005288,0.000469,0.001426,4.5e-05,-0.259466,0.068672,-0.963308,-0.26246966942028094
-0.03423,-0.131072,0.002643,0.990778,0.00635,-0.006405,-0.002999,4.6e-05,0.001445,0.002564,-0.259547,0.068521,-0.963297,-0.26255161579037595
-0.034132,-0.131118,0.002591,0.990775,0.007874,-0.008372,0.009273,0.000628,0.002615,0.001437,-0.259641,0.068314,-0.963286,-0.2626494006585302
-0.034185,-0.13111,0.002796,0.990774,0.004825,-0.008811,0.006782,0.000691,0.001907,0.001688,-0.259609,0.068472,-0.963283,-0.2626179159170502
-0.034237,-0.131101,0.003001,0.990773,0.001776,-0.00925,0.00429,0.000753,0.001199,0.001938,-0.259578,0.068629,-0.963281,-0.262584340807483
-0.034289,-0.131093,0.003206,0.990772,-0.001273,-0.009689,0.001799,0.000816,0.00049,0.002188,-0.259546,0.068787,-0.963278,-0.2625527737446445
-0.034323,-0.131148,0.003256,0.990763,-0.004413,0.006502,0.004392,0.001377,0.00304,-0.001832,-0.25965,0.068866,-0.963244,-0.26265940330344684
-0.034338,-0.131068,0.003224,0.990773,0.000807,0.00136,-0.00369,0.000646,0.000638,0.003311,-0.259496,0.068887,-0.963284,-0.26250014368136926
-0.034293,-0.131147,0.003194,0.990764,0.006373,-0.006222,-0.002888,4.6e-05,0.00141,0.002755,-0.259652,0.068791,-0.963249,-0.26266222866628974
-0.034247,-0.131177,0.003188,0.990762,0.007895,-0.001412,-0.000234,0.000639,0.002634,0.001425,-0.259712,0.068697,-0.963239,-0.2627239727963592
-0.034114,-0.131203,0.003195,0.990763,0.014984,-0.003554,0.001074,0.001013,0.000473,0.000862,-0.259763,0.068436,-0.963244,-0.2627779787720624
-0.033978,-0.131171,0.003228,0.990772,0.015734,0.008821,-0.00077,0.001229,0.000322,-0.000473,-0.259703,0.068175,-0.963279,-0.26271333910785966
-0.033786,-0.131034,0.003222,0.990797,0.018399,0.021056,-0.005072,0.001128,-0.000349,-0.001182,-0.259438,0.067795,-0.963377,-0.2624407200444754
-0.033613,-0.130817,0.003221,0.990831,0.014001,0.015934,-0.001575,0.000477,0.002656,0.002603,-0.259019,0.067451,-0.963514,-0.26200592884192403
-0.033541,-0.130619,0.003288,0.99086,0.000413,0.011764,0.010245,0.000787,0.004758,0.004713,-0.25863,0.067328,-0.963627,-0.2616033882066293
-0.033566,-0.130548,0.003338,0.990868,-0.00351,0.004324,0.004983,0.001465,0.003184,0.0036,-0.258487,0.067391,-0.963661,-0.2614562505199567
-0.033644,-0.130519,0.003409,0.990869,-0.005402,0.004714,0.004535,0.001372,0.002469,0.002904,-0.258425,0.067564,-0.963666,-0.2613915445183924
-0.033758,-0.130435,0.00357,0.990875,-0.015947,0.006764,0.034264,0.001068,0.006824,0.001254,-0.258249,0.067831,-0.963694,-0.2612087928985726
-0.034037,-0.130248,0.003939,0.990889,-0.021273,0.022775,0.036097,0.0014,0.003246,-0.001975,-0.257856,0.068479,-0.963754,-0.2608009272888823
-0.034176,-0.130096,0.004046,0.990904,-0.014955,0.017943,0.019292,0.001356,0.003585,-0.000992,-0.257548,0.068782,-0.963814,-0.2604845038616028
-0.034315,-0.129943,0.004154,0.990919,-0.008637,0.013111,0.002487,0.001312,0.003925,-1e-05,-0.257241,0.069085,-0.963875,-0.2601659142422887
-0.034403,-0.129761,0.004174,0.990939,-0.005648,0.016385,0.003897,0.001518,0.003863,-0.001342,-0.256884,0.069266,-0.963957,-0.2597958674782394
-0.034419,-0.129615,0.004162,0.990958,-0.000636,0.019107,-0.007924,0.001466,0.001715,0.000819,-0.2566,0.069294,-0.96403,-0.2595022904856503
-0.034421,-0.129393,0.004092,0.990987,0.004554,0.021755,-0.008769,0.002373,0.001391,0.000994,-0.256172,0.069281,-0.964145,-0.259059822527659
-0.034351,-0.129207,0.003991,0.991014,0.006265,0.013969,-0.009522,0.001261,0.00176,0.002198,-0.255817,0.069116,-0.964251,-0.2586934563266508
-0.034259,-0.129156,0.003859,0.991025,0.005591,0.009808,-0.013613,0.002169,0.001457,0.002359,-0.255728,0.068899,-0.96429,-0.2586019492264964
-0.034206,-0.129009,0.003715,0.991046,0.001969,0.013914,-0.008786,0.002663,0.004935,0.000163,-0.255455,0.068759,-0.964373,-0.2583167952155874
-0.034199,-0.129029,0.00366,0.991044,0.001136,0.004696,-0.003544,0.00188,0.004465,0.000767,-0.255497,0.068729,-0.964364,-0.2583612086710121
-0.034172,-0.129023,0.003643,0.991046,0.00276,0.008915,-0.001756,0.002389,0.002473,-0.001514,-0.255487,0.068673,-0.96437,-0.2583508478612593
-0.034155,-0.128894,0.003641,0.991063,0.004563,0.014346,-0.000175,0.002567,0.000769,-0.000518,-0.255236,0.068637,-0.96444,-0.2580911921919254
-0.03412,-0.12878,0.003641,0.991079,0.004392,0.010081,-0.000612,0.00185,0.000922,0.000508,-0.255014,0.06857,-0.964503,-0.2578620219973488
-0.034081,-0.128708,0.00365,0.99109,0.002178,0.005,-0.000304,0.001665,0.00204,0.002051,-0.254874,0.068494,-0.964546,-0.2577170171818921
-0.034084,-0.128688,0.003646,0.991093,-0.001575,0.004097,6.7e-05,0.001891,0.002492,0.000752,-0.254834,0.068498,-0.964556,-0.25767707765718706
-0.034146,-0.128644,0.003651,0.991096,-0.00249,0.002716,0.000293,0.001946,0.001914,0.001062,-0.254747,0.068624,-0.96457,-0.25758686230966027
-0.034209,-0.1286,0.003657,0.9911,-0.003406,0.001335,0.000518,0.002002,0.001335,0.001372,-0.25466,0.068749,-0.964584,-0.2574968349348454
-0.03424,-0.128578,0.00366,0.991101,-0.000876,-0.000345,-0.000276,0.001788,0.001865,0.001448,-0.254617,0.068812,-0.964591,-0.2574515590530723
-0.034252,-0.128533,0.003652,0.991107,0.00024,0.00255,0.001247,0.001567,0.00143,0.000795,-0.254529,0.068835,-0.964612,-0.25736139185492085
-0.034256,-0.128476,0.003639,0.991114,-0.000406,0.005859,0.000305,0.001622,0.001529,0.000127,-0.25442,0.068838,-0.964641,-0.2572473101294339
-0.034265,-0.128375,0.003627,0.991127,-0.002212,0.005775,-0.001013,0.002519,0.000919,-0.000391,-0.254223,0.068853,-0.964692,-0.2570445323282115
-0.0343,-0.128267,0.003605,0.99114,-0.004073,0.009016,-0.001975,0.003183,0.001283,-0.000646,-0.254013,0.068916,-0.964742,-0.2568279287177278
-0.034357,-0.128146,0.00357,0.991154,-0.006966,0.010533,-0.003461,0.003017,0.000515,0.000267,-0.253779,0.069021,-0.964796,-0.2565857180273354
-0.034435,-0.128039,0.003505,0.991165,-0.007806,0.008863,-0.006118,0.00247,0.000293,0.000637,-0.253574,0.069159,-0.96484,-0.2563734025112813
-0.034519,-0.127964,0.003392,0.991172,-0.008822,0.008987,-0.008278,0.002259,0.000535,0.001167,-0.253434,0.069296,-0.964867,-0.25622901519144625
-0.03462,-0.12787,0.00328,0.991181,-0.010817,0.007318,-0.010195,0.002437,0.001675,0.001777,-0.253257,0.069467,-0.964902,-0.25604607801927437
-0.034718,-0.127806,0.003165,0.991186,-0.011014,0.004745,-0.006635,0.002806,0.003255,0.002425,-0.253139,0.069633,-0.964921,-0.2559238441025594
-0.034837,-0.127762,0.003104,0.991188,-0.011655,0.00292,-0.0028,0.002099,0.003953,0.001536,-0.253056,0.069852,-0.964927,-0.25583782697186075
-0.034996,-0.127747,0.003191,0.991184,-0.016223,0.004163,0.021979,0.002836,0.0058,0.000834,-0.253019,0.07019,-0.964912,-0.25579872031494955
-0.035238,-0.127679,0.003467,0.991183,-0.01685,0.005732,0.032834,0.002768,0.003854,0.000567,-0.252863,0.070741,-0.964912,-0.25563742303424863
-0.035396,-0.127679,0.003705,0.991177,-0.014332,0.001384,0.027484,0.002513,0.003799,0.000893,-0.252842,0.071113,-0.96489,-0.2556172926794947
-0.035553,-0.127678,0.003943,0.99117,-0.011814,-0.002964,0.022135,0.002257,0.003745,0.001218,-0.252822,0.071485,-0.964868,-0.2555947022792161
-0.035687,-0.127694,0.004117,0.991163,-0.008217,-0.003612,0.01478,0.003263,0.002216,0.001264,-0.252838,0.071795,-0.964841,-0.25561170872629035
-0.035765,-0.127728,0.004201,0.991155,-0.004996,-0.005163,0.006446,0.003526,0.000798,0.001285,-0.252896,0.071971,-0.964813,-0.2556723853099238
-0.035826,-0.12779,0.004219,0.991145,-0.003948,-0.00574,-0.000572,0.002736,0.001547,-1e-06,-0.253014,0.072095,-0.964773,-0.2557949153985606
-0.035875,-0.12783,0.004196,0.991138,-0.002947,-0.007691,-0.003809,0.002778,0.002143,0.000515,-0.253094,0.072186,-0.964745,-0.25587630316087934
-0.035917,-0.127891,0.00414,0.991129,-0.003905,-0.006644,-0.005694,0.002018,0.003069,0.000251,-0.253215,0.072256,-0.964708,-0.25600270771575523
-0.035944,-0.127936,0.004069,0.991123,-0.002135,-0.006128,-0.006988,0.002126,0.003357,0.000204,-0.253307,0.07229,-0.964681,-0.2560983734999068
-0.035948,-0.127977,0.003978,0.991117,-9.5e-05,-0.004764,-0.006031,0.002178,0.003496,0.000182,-0.253395,0.072276,-0.964659,-0.2561875285877764
-0.035948,-0.128017,0.003987,0.991112,-0.002342,-0.002295,0.010578,0.002468,0.006125,0.000448,-0.253472,0.072278,-0.964639,-0.2562675015981292
-0.036015,-0.128008,0.00412,0.99111,-0.00095,-0.003204,0.008566,0.002334,0.004784,0.001804,-0.253443,0.072444,-0.964634,-0.25623807440195445
-0.036081,-0.127999,0.004253,0.991109,0.000442,-0.004113,0.006554,0.002199,0.003444,0.00316,-0.253415,0.07261,-0.964629,-0.25620888408969095
-0.03613,-0.128025,0.004339,0.991103,-0.000802,-0.003911,0.005265,0.002631,0.003019,0.001319,-0.253459,0.072728,-0.964608,-0.25625371804387775
-0.036167,-0.128033,0.004392,0.9911,-0.00084,-0.003236,0.00251,0.001793,0.001641,0.001068,-0.25347,0.072815,-0.964599,-0.25626502183270583
-0.036184,-0.128067,0.004405,0.991095,-0.000638,-0.002985,-0.000234,0.001621,0.001669,0.000948,-0.253535,0.072853,-0.964579,-0.25633224159042667
-0.036205,-0.128109,0.004393,0.991089,-0.000732,-0.003855,-0.002033,0.001568,0.001677,0.000911,-0.253616,0.07289,-0.964555,-0.2564174243200546
-0.036225,-0.12815,0.004382,0.991083,-0.000826,-0.004725,-0.003832,0.001514,0.001686,0.000874,-0.253697,0.072928,-0.964531,-0.2565004939010069
-0.036227,-0.12819,0.00432,0.991078,-0.000932,-0.003584,-0.007717,0.001429,0.001328,0.000497,-0.253779,0.072915,-0.96451,-0.25658576390114846
-0.036234,-0.128224,0.004245,0.991074,-0.000983,-0.003042,-0.009562,0.001328,0.000795,-4.1e-05,-0.253852,0.072909,-0.964491,-0.2566599349368965
-0.036242,-0.128287,0.004151,0.991066,-0.001909,-0.004022,-0.007564,0.001652,0.000417,0.000504,-0.253982,0.072902,-0.964458,-0.2567938935722453
-0.036263,-0.128323,0.004052,0.991061,-0.002289,-0.002198,-0.008939,0.00084,0.000561,0.000598,-0.254058,0.072917,-0.964436,-0.25687358683571926
-0.036299,-0.128336,0.00394,0.991058,-0.003152,-0.002648,-0.008149,0.000687,0.001321,0.000644,-0.254091,0.07296,-0.964424,-0.25690753774772906
-0.036332,-0.128379,0.00382,0.991052,-0.00356,-0.00286,-0.007776,0.001039,0.001154,0.000386,-0.254183,0.072994,-0.964398,-0.2570028159776392
-0.036363,-0.128405,0.003708,0.991048,-0.00353,-0.003033,-0.009046,0.001639,0.001314,0.001432,-0.254242,0.073028,-0.96438,-0.2570632161513235
-0.036408,-0.12845,0.003599,0.991041,-0.004202,-0.004432,-0.008198,0.002638,0.001923,0.002007,-0.254336,0.073089,-0.96435,-0.25716144432114685
-0.036473,-0.128498,0.003505,0.991033,-0.00727,-0.006493,-0.007409,0.002075,0.002167,0.00175,-0.254436,0.073193,-0.964316,-0.257264301047672
-0.036585,-0.12856,0.00342,0.991021,-0.011,-0.007471,-0.006645,0.001436,0.002408,0.00082,-0.254561,0.073393,-0.964268,-0.25739380208729484
-0.036719,-0.128659,0.003327,0.991003,-0.012281,-0.006533,-0.006285,0.00206,0.002599,0.001641,-0.254758,0.073634,-0.964197,-0.25759803925247216
-0.036864,-0.128744,0.003242,0.990987,-0.011741,-0.008807,-0.00506,0.002403,0.002285,0.000933,-0.254929,0.073898,-0.964132,-0.25777348480718243
-0.03698,-0.128817,0.003181,0.990974,-0.01033,-0.007142,-0.005941,0.002736,0.002469,0.000239,-0.255073,0.074111,-0.964077,-0.2579235397734526
-0.037081,-0.128884,0.003132,0.990961,-0.00702,-0.009593,-0.002041,0.0023,0.003529,0.002021,-0.255205,0.0743,-0.964028,-0.25806050360336263
-0.037159,-0.129004,0.003118,0.990943,-0.005825,-0.011399,0.000504,0.001831,0.004113,0.001307,-0.25544,0.074449,-0.963954,-0.25830225457546535
-0.037226,-0.129118,0.003133,0.990925,-0.004903,-0.010021,0.003885,0.001205,0.003349,0.001339,-0.25566,0.074585,-0.963885,-0.2585295539883585
-0.037253,-0.129223,0.003183,0.99091,-0.000197,-0.010026,0.005391,0.000619,0.00192,0.000986,-0.255859,0.074652,-0.963827,-0.2587367689400912
-0.037235,-0.12927,0.003249,0.990905,0.00665,-0.002969,0.005701,0.001936,0.000728,0.000341,-0.255946,0.074633,-0.963806,-0.25882681982298067
-0.037175,-0.129222,0.00329,0.990913,0.007349,0.008182,0.00281,0.002893,0.000846,-0.000692,-0.255851,0.074526,-0.963839,-0.2587278051927084
-0.037125,-0.12912,0.003347,0.990928,0.004161,0.011349,0.011601,0.001691,0.00184,0.000419,-0.25565,0.074441,-0.963899,-0.25851867422172964
-0.037187,-0.128971,0.003546,0.990945,-0.009347,0.016026,0.026493,0.001434,0.003378,0.001301,-0.255342,0.074614,-0.963967,-0.25820203814832626
-0.037369,-0.128812,0.003769,0.990958,-0.016036,0.008119,0.016374,0.001431,0.002076,0.003717,-0.255013,0.075034,-0.964022,-0.2578610197299111
-0.037565,-0.128769,0.003856,0.990955,-0.020535,0.004178,0.006215,0.001748,0.002952,0.002529,-0.254919,0.075444,-0.964015,-0.25776379778985886
-0.037824,-0.128703,0.003866,0.990954,-0.027947,0.006523,0.001287,0.002801,0.004235,0.001701,-0.254785,0.075959,-0.96401,-0.25762541091239033
-0.038112,-0.128658,0.003828,0.990949,-0.027501,0.005526,-0.001039,0.002674,0.005025,0.001977,-0.254696,0.076519,-0.963989,-0.2575325444617203
