timestamp,quat_x,quat_y,quat_z,quat_w,rot_x,rot_y,rot_z,acc_x,acc_y,acc_z,grav_x,grav_y,grav_z
1760109579.838954,-0.048544,0.069241,-0.000000,0.996418,0.004099,0.007445,-0.058498,0.002574,-0.003773,0.001983,0.137986,0.096741,-0.985698
1760109579.868183,-0.048500,0.069193,-0.000368,0.996424,0.007366,-0.001230,-0.054832,0.002027,-0.001222,0.002226,0.137856,0.096705,-0.985720
1760109579.868595,-0.048457,0.069145,-0.000735,0.996429,0.010633,-0.009904,-0.051167,0.001480,0.001328,0.002470,0.137725,0.096669,-0.985742
1760109579.868904,-0.048413,0.069097,-0.001103,0.996434,0.013900,-0.018579,-0.047501,0.000933,0.003880,0.002714,0.137595,0.096632,-0.985764
1760109579.904471,-0.046899,0.069993,-0.001489,0.996443,0.003524,-0.024455,-0.019318,-0.001181,0.016024,-0.001307,0.139348,0.093674,-0.985803
1760109579.936289,-0.046971,0.070689,-0.001422,0.996391,-0.017159,-0.023417,0.018119,-0.006886,0.013218,-0.001017,0.140734,0.093804,-0.985594
1760109579.965938,-0.047906,0.070338,-0.001303,0.996371,-0.015776,-0.022901,0.019247,-0.004237,0.007930,-0.002224,0.140041,0.095647,-0.985515
1760109579.966257,-0.048841,0.069987,-0.001185,0.996351,-0.014393,-0.022385,0.020374,-0.001588,0.002642,-0.003435,0.139348,0.097491,-0.985433
1760109579.967664,-0.050850,0.069419,-0.000943,0.996290,-0.013715,-0.013614,0.018294,-0.000499,-0.005085,-0.002639,0.138227,0.101454,-0.985191
1760109580.011708,-0.051198,0.069278,-0.000900,0.996282,-0.012074,-0.015773,0.009317,-0.003079,-0.006731,-0.000780,0.137949,0.102140,-0.985159
1760109580.012051,-0.051546,0.069138,-0.000858,0.996274,-0.010434,-0.017932,0.000340,-0.005659,-0.008376,0.001078,0.137671,0.102826,-0.985126
1760109580.042082,-0.051574,0.068575,-0.001001,0.996311,-0.012112,-0.021715,-0.012837,-0.000639,-0.004050,-0.004188,0.136542,0.102904,-0.985275
1760109580.073359,-0.051187,0.068576,-0.001232,0.996331,-0.013036,0.003410,-0.030673,-0.000778,-0.003559,-0.004243,0.136522,0.102168,-0.985354
1760109580.073644,-0.051041,0.068392,-0.001448,0.996351,-0.020033,-0.003234,-0.036213,-0.001644,0.001725,-0.005599,0.136138,0.101907,-0.985435
1760109580.104044,-0.051039,0.068243,-0.001698,0.996361,-0.031516,-0.008023,-0.036399,-0.002658,0.008782,-0.005171,0.135816,0.101939,-0.985476
1760109580.137419,-0.051595,0.068066,-0.002186,0.996343,-0.080753,-0.010864,-0.037038,-0.004396,0.018943,-0.004418,0.135408,0.103111,-0.985410
1760109580.166065,-0.052223,0.067859,-0.002394,0.996324,-0.099275,-0.022975,-0.041128,-0.004314,0.017953,-0.004817,0.134969,0.104387,-0.985336
1760109580.166381,-0.052850,0.067652,-0.002602,0.996305,-0.117797,-0.035087,-0.045218,-0.004231,0.016963,-0.005217,0.134529,0.105662,-0.985260
1760109580.167018,-0.053478,0.067446,-0.002810,0.996285,-0.136320,-0.047198,-0.049308,-0.004148,0.015973,-0.005620,0.134089,0.106938,-0.985182
1760109580.197647,-0.056518,0.066777,-0.003498,0.996160,-0.192484,-0.025285,-0.055292,-0.002577,0.010930,-0.004856,0.132645,0.113069,-0.984693
1760109580.229399,-0.058048,0.066494,-0.003731,0.996090,-0.216004,-0.035671,-0.050544,-0.004651,0.007360,-0.000338,0.132034,0.116138,-0.984418
1760109580.229782,-0.059578,0.066211,-0.003964,0.996017,-0.239525,-0.046057,-0.045797,-0.006722,0.003793,0.004170,0.131422,0.119206,-0.984133
1760109580.258437,-0.063909,0.065091,-0.004453,0.995821,-0.271612,-0.074257,-0.044887,-0.004841,-0.002913,0.005628,0.129069,0.127864,-0.983357
1760109580.288973,-0.065595,0.064593,-0.004526,0.995743,-0.264145,-0.073893,-0.037381,-0.003418,-0.008331,0.002943,0.128043,0.131216,-0.983050
1760109580.289317,-0.067280,0.064095,-0.004600,0.995663,-0.256678,-0.073529,-0.029875,-0.001993,-0.013747,0.000246,0.127015,0.134566,-0.982730
1760109580.319365,-0.070402,0.062980,-0.004647,0.995518,-0.186448,-0.054116,-0.020386,-0.000276,-0.021387,-0.003512,0.124741,0.140758,-0.982154
1760109580.353128,-0.072134,0.062241,-0.004747,0.995440,-0.113636,-0.045731,-0.017760,0.000305,-0.015874,0.003535,0.123230,0.144201,-0.981845
1760109580.353395,-0.072501,0.061975,-0.004726,0.995430,-0.100755,-0.039067,-0.013240,0.000942,-0.012595,0.002032,0.122698,0.144925,-0.981805
1760109580.384994,-0.072730,0.061779,-0.004736,0.995425,-0.091215,-0.032772,-0.012935,0.000481,-0.010292,0.002269,0.122305,0.145380,-0.981787
1760109580.387272,-0.073131,0.061417,-0.004831,0.995418,-0.071972,-0.018730,-0.025451,0.001625,-0.006085,-0.002481,0.121565,0.146185,-0.981760
1760109580.416156,-0.073363,0.061329,-0.004948,0.995405,-0.067826,-0.006486,-0.029101,0.001982,-0.004963,-0.002783,0.121369,0.146659,-0.981713
1760109580.446576,-0.073585,0.061340,-0.005111,0.995388,-0.058879,-0.005189,-0.032167,-0.000339,-0.005286,-0.001838,0.121362,0.147118,-0.981645
1760109580.446957,-0.073807,0.061351,-0.005275,0.995370,-0.049933,-0.003892,-0.035232,-0.002660,-0.005608,-0.000893,0.121356,0.147577,-0.981577
1760109580.477863,-0.074148,0.061366,-0.005891,0.995340,-0.031069,0.005002,-0.039173,-0.001091,0.001778,-0.004892,0.121286,0.148328,-0.981473
1760109580.507279,-0.074235,0.061474,-0.006110,0.995325,-0.025075,0.016064,-0.029803,-0.000259,0.003271,-0.005635,0.121467,0.148528,-0.981420
1760109580.507511,-0.074322,0.061583,-0.006329,0.995311,-0.019081,0.027127,-0.020432,0.000573,0.004764,-0.006378,0.121647,0.148727,-0.981367
1760109580.545743,-0.074521,0.062168,-0.006454,0.995259,-0.034160,0.062045,0.004634,0.001050,0.009046,-0.006175,0.122784,0.149139,-0.981163
1760109580.546065,-0.074676,0.062484,-0.006456,0.995227,-0.045819,0.069111,0.013212,-0.000170,0.010246,-0.003360,0.123407,0.149446,-0.981038
1760109580.574417,-0.075722,0.063453,-0.006355,0.995088,-0.070040,0.053148,-0.007347,0.000085,0.003339,0.000285,0.125320,0.151506,-0.980480
1760109580.604254,-0.076259,0.063781,-0.006489,0.995025,-0.073751,0.056310,-0.019096,0.000187,0.003446,-0.000289,0.125939,0.152586,-0.980233
1760109580.606292,-0.077505,0.064541,-0.006877,0.994877,-0.068514,0.049351,-0.029233,0.001278,0.005289,0.002597,0.127356,0.155103,-0.979655
1760109580.635763,-0.077976,0.064888,-0.007053,0.994816,-0.058885,0.052666,-0.021834,0.003014,0.006215,0.002445,0.128003,0.156060,-0.979418
1760109580.674729,-0.078610,0.065531,-0.007352,0.994722,-0.031164,0.052644,-0.020003,0.002850,0.009239,0.001375,0.129214,0.157355,-0.979052
1760109580.704249,-0.078791,0.065807,-0.007528,0.994688,-0.032824,0.045857,-0.019449,0.003487,0.013430,0.001735,0.129729,0.157736,-0.978923
1760109580.704598,-0.078972,0.066084,-0.007704,0.994654,-0.034483,0.039070,-0.018894,0.004124,0.017621,0.002094,0.130244,0.158117,-0.978793
1760109580.735938,-0.079667,0.066725,-0.007956,0.994554,-0.046913,0.028753,0.001155,0.001245,0.017045,0.007734,0.131457,0.159528,-0.978402
1760109580.766882,-0.079922,0.066888,-0.008027,0.994522,-0.034874,0.026606,-0.003161,0.001881,0.014271,0.006403,0.131760,0.160042,-0.978277
1760109580.767148,-0.080176,0.067050,-0.008099,0.994490,-0.022835,0.024460,-0.007476,0.002517,0.011496,0.005071,0.132063,0.160555,-0.978152
1760109580.767487,-0.080431,0.067213,-0.008170,0.994458,-0.010797,0.022314,-0.011791,0.003154,0.008722,0.003739,0.132366,0.161069,-0.978027
1760109580.796761,-0.080751,0.067435,-0.008416,0.994415,0.014162,-0.005952,-0.011990,-0.000996,0.010937,0.008921,0.132757,0.161735,-0.977864
1760109580.829042,-0.080723,0.067371,-0.008488,0.994421,0.014988,-0.006982,-0.006586,0.000513,0.010900,0.005472,0.132619,0.161689,-0.977890
1760109580.829391,-0.080695,0.067307,-0.008560,0.994427,0.015813,-0.008012,-0.001183,0.002022,0.010863,0.002022,0.132481,0.161643,-0.977916
1760109580.862665,-0.080584,0.067218,-0.008497,0.994442,0.018059,-0.012009,0.005140,-0.002349,0.009707,0.003168,0.132320,0.161414,-0.977976
1760109580.866121,-0.080538,0.066946,-0.008369,0.994466,0.011344,-0.021634,0.014496,-0.000346,0.011533,-0.000289,0.131802,0.161305,-0.978064
1760109580.896346,-0.080602,0.066888,-0.008258,0.994465,0.003550,-0.013318,0.014339,-0.000719,0.009517,-0.001778,0.131703,0.161416,-0.978059
1760109580.927175,-0.080685,0.066823,-0.008147,0.994464,-0.001710,-0.010658,0.015782,-0.000427,0.007107,-0.002369,0.131591,0.161565,-0.978049
1760109580.927527,-0.080768,0.066758,-0.008037,0.994462,-0.006970,-0.007999,0.017225,-0.000135,0.004698,-0.002961,0.131478,0.161715,-0.978040
1760109580.955719,-0.081117,0.066630,-0.007830,0.994444,-0.008959,-0.006911,0.002316,-0.001222,0.002300,0.000676,0.131248,0.162376,-0.977961
1760109580.986865,-0.081233,0.066572,-0.007808,0.994439,-0.006825,-0.007071,0.001068,-0.001095,0.002741,0.000210,0.131135,0.162601,-0.977939
1760109580.987459,-0.081349,0.066515,-0.007786,0.994433,-0.004692,-0.007232,-0.000181,-0.000969,0.003181,-0.000255,0.131023,0.162827,-0.977916
1760109581.017110,-0.081440,0.066447,-0.007848,0.994430,0.006675,-0.004117,-0.005707,-0.000428,0.001915,0.000143,0.130876,0.163015,-0.977905
1760109581.024698,-0.081317,0.066360,-0.007991,0.994445,0.013445,-0.007363,-0.008663,-0.000516,0.004481,-0.000296,0.130682,0.162791,-0.977968
1760109581.053806,-0.081246,0.066303,-0.008048,0.994454,0.010895,-0.001609,-0.006570,0.000680,0.005109,-0.002040,0.130563,0.162658,-0.978006
1760109581.082492,-0.081199,0.066290,-0.008105,0.994458,0.008785,0.001868,-0.006367,0.000351,0.003559,-0.002123,0.130530,0.162572,-0.978025
1760109581.113729,-0.081107,0.066343,-0.008240,0.994461,0.010320,0.002390,-0.006928,-0.001392,0.001921,-0.000310,0.130615,0.162409,-0.978040
1760109581.145672,-0.081086,0.066365,-0.008312,0.994461,0.008148,0.003589,-0.007777,-0.000475,0.002799,0.000015,0.130646,0.162378,-0.978041
1760109581.146024,-0.081066,0.066386,-0.008384,0.994460,0.005977,0.004789,-0.008626,0.000443,0.003678,0.000340,0.130677,0.162346,-0.978042
1760109581.146402,-0.081045,0.066408,-0.008456,0.994460,0.003805,0.005989,-0.009475,0.001360,0.004557,0.000665,0.130709,0.162315,-0.978043
1760109581.214085,-0.081182,0.066572,-0.008732,0.994435,-0.010753,0.012337,-0.010660,0.002167,0.005104,-0.002720,0.130986,0.162623,-0.977955
1760109581.246784,-0.081302,0.066524,-0.008807,0.994428,-0.010757,0.005306,-0.009635,0.001684,0.004562,-0.002429,0.130875,0.162869,-0.977929
1760109581.247132,-0.081421,0.066476,-0.008882,0.994421,-0.010760,-0.001724,-0.008609,0.001202,0.004019,-0.002138,0.130764,0.163115,-0.977903
1760109581.247469,-0.081541,0.066428,-0.008958,0.994413,-0.010764,-0.008755,-0.007583,0.000720,0.003477,-0.001848,0.130653,0.163360,-0.977877
1760109581.247857,-0.081660,0.066380,-0.009033,0.994406,-0.010768,-0.015785,-0.006557,0.000237,0.002934,-0.001557,0.130542,0.163606,-0.977851
1760109581.290200,-0.081874,0.066322,-0.009022,0.994392,-0.010750,0.002857,0.005436,0.002544,0.003525,-0.004292,0.130424,0.164027,-0.977796
1760109581.290535,-0.081940,0.066359,-0.009010,0.994385,-0.011749,0.009184,0.006888,0.001934,0.003727,-0.003115,0.130496,0.164156,-0.977765
1760109581.320428,-0.082270,0.066594,-0.008783,0.994344,-0.029298,0.017966,0.018706,-0.000951,0.003398,-0.002428,0.130989,0.164779,-0.977594
1760109581.353848,-0.082765,0.066737,-0.008582,0.994295,-0.026817,0.000213,-0.001330,-0.000646,-0.001242,0.001362,0.131291,0.165732,-0.977392
1760109581.383222,-0.082967,0.066730,-0.008608,0.994278,-0.023824,-0.000781,-0.004547,-0.000862,-0.001656,0.001815,0.131268,0.166134,-0.977327
1760109581.383573,-0.083169,0.066724,-0.008635,0.994262,-0.020831,-0.001776,-0.007764,-0.001077,-0.002069,0.002269,0.131246,0.166536,-0.977262
1760109581.383883,-0.083371,0.066718,-0.008661,0.994245,-0.017838,-0.002770,-0.010981,-0.001292,-0.002483,0.002722,0.131223,0.166938,-0.977196
1760109581.417310,-0.083539,0.066491,-0.008802,0.994245,-0.005091,-0.013664,-0.007712,-0.003506,0.003691,0.002611,0.130745,0.167287,-0.977200
1760109581.446918,-0.083583,0.066406,-0.008821,0.994247,-0.008747,-0.010740,-0.003643,-0.003090,0.007408,-0.000645,0.130573,0.167376,-0.977208
1760109581.447170,-0.083627,0.066321,-0.008840,0.994248,-0.012403,-0.007817,0.000426,-0.002675,0.011125,-0.003901,0.130402,0.167464,-0.977216
1760109581.475872,-0.083925,0.066178,-0.008616,0.994235,-0.017864,-0.014625,0.016521,-0.003216,0.005170,-0.000839,0.130146,0.168023,-0.977154
1760109581.483203,-0.084191,0.065963,-0.008427,0.994228,-0.003852,-0.003184,0.003849,0.001985,0.001544,-0.008812,0.129745,0.168523,-0.977121
1760109581.514112,-0.084260,0.065966,-0.008346,0.994223,-0.006248,0.002391,0.013137,-0.000135,0.004604,-0.006147,0.129764,0.168647,-0.977098
1760109581.541980,-0.084360,0.066007,-0.008241,0.994213,-0.006091,0.002918,0.015178,-0.002801,0.002770,-0.001630,0.129860,0.168831,-0.977053
1760109581.543169,-0.084486,0.065963,-0.008039,0.994206,0.006018,-0.010681,0.004349,-0.001664,-0.000159,0.003218,0.129802,0.169054,-0.977022
1760109581.574136,-0.084447,0.065895,-0.008026,0.994214,0.005527,-0.005847,0.001256,0.001224,0.000754,0.000015,0.129671,0.168974,-0.977053
1760109581.603375,-0.084400,0.065906,-0.008074,0.994217,0.008286,0.001022,-0.005676,0.001789,0.000351,-0.000854,0.129686,0.168887,-0.977066
1760109581.603692,-0.084352,0.065916,-0.008122,0.994220,0.011045,0.007890,-0.012607,0.002355,-0.000053,-0.001723,0.129701,0.168800,-0.977079
1760109581.637086,-0.084201,0.065980,-0.008392,0.994227,0.014774,0.011195,-0.015078,0.001071,0.002556,-0.001276,0.129784,0.168537,-0.977114
1760109581.669347,-0.083953,0.066097,-0.008657,0.994237,0.019783,0.006660,-0.015087,0.001350,0.002533,-0.002389,0.129979,0.168084,-0.977166
1760109581.669663,-0.083813,0.066148,-0.008788,0.994245,0.022175,0.006862,-0.011834,0.001771,0.002892,0.000071,0.130061,0.167825,-0.977200
1760109581.699977,-0.083676,0.066178,-0.008881,0.994253,0.022521,0.004551,-0.008905,0.001121,0.003191,0.001879,0.130109,0.167565,-0.977238
1760109581.735151,-0.083365,0.066188,-0.009069,0.994277,0.024804,-0.009724,-0.005499,-0.000213,0.005886,0.006668,0.130106,0.166977,-0.977339
1760109581.743720,-0.083178,0.066012,-0.009064,0.994305,0.022300,-0.014536,-0.000223,0.000893,0.005874,0.003113,0.129763,0.166605,-0.977448
1760109581.744042,-0.082990,0.065836,-0.009059,0.994332,0.019796,-0.019348,0.005053,0.002000,0.005862,-0.000444,0.129421,0.166232,-0.977557
1760109581.773405,-0.082898,0.065672,-0.008996,0.994351,0.016719,-0.023221,0.007686,0.001559,0.004625,-0.000156,0.129111,0.166040,-0.977630
1760109581.803610,-0.082828,0.065522,-0.008930,0.994367,0.015570,-0.024875,0.009061,0.001338,0.004322,0.000582,0.128827,0.165893,-0.977693
1760109581.803948,-0.082758,0.065372,-0.008864,0.994384,0.014420,-0.026529,0.010436,0.001116,0.004018,0.001320,0.128543,0.165745,-0.977755
1760109581.831831,-0.082611,0.064996,-0.008673,0.994422,0.013799,-0.023540,0.007555,0.000307,0.001603,-0.000749,0.127834,0.165427,-0.977902
1760109581.862709,-0.082557,0.064842,-0.008635,0.994437,0.012520,-0.022389,0.005191,-0.000271,0.002034,-0.001543,0.127536,0.165315,-0.977960
1760109581.863057,-0.082503,0.064687,-0.008597,0.994452,0.011241,-0.021239,0.002827,-0.000848,0.002465,-0.002338,0.127239,0.165203,-0.978017
1760109581.895903,-0.082435,0.064375,-0.008538,0.994478,0.002551,-0.020611,0.002415,-0.000548,0.001737,0.003130,0.126631,0.165059,-0.978121
1760109581.927182,-0.082453,0.064205,-0.008509,0.994488,-0.000886,-0.024958,-0.000848,-0.000056,0.001854,0.002034,0.126298,0.165089,-0.978159
1760109581.927513,-0.082471,0.064035,-0.008480,0.994498,-0.004322,-0.029305,-0.004111,0.000437,0.001972,0.000939,0.125966,0.165120,-0.978196
1760109581.956032,-0.082709,0.063717,-0.008468,0.994499,-0.013556,-0.016324,-0.000091,-0.000237,0.002187,-0.000771,0.125332,0.165587,-0.978199
1760109581.963498,-0.082930,0.063426,-0.008480,0.994499,-0.010489,-0.031984,-0.003897,0.000201,0.001425,0.001240,0.124747,0.166024,-0.978199
1760109581.993692,-0.083028,0.063258,-0.008482,0.994501,-0.012080,-0.019950,-0.000475,0.001203,0.001070,-0.001193,0.124412,0.166216,-0.978210
1760109582.023754,-0.083095,0.063187,-0.008488,0.994500,-0.006583,-0.012322,-0.002221,0.002010,0.000095,-0.003755,0.124268,0.166348,-0.978205
1760109582.024057,-0.083162,0.063116,-0.008495,0.994499,-0.001086,-0.004694,-0.003967,0.002816,-0.000879,-0.006318,0.124125,0.166481,-0.978201
1760109582.052433,-0.083255,0.063249,-0.008516,0.994483,-0.012544,0.014883,0.007255,0.000842,0.006956,-0.003558,0.124383,0.166668,-0.978136
1760109582.082623,-0.083354,0.063354,-0.008445,0.994468,-0.012559,0.010306,0.003254,-0.000747,0.003535,-0.000934,0.124599,0.166855,-0.978077
1760109582.083422,-0.083453,0.063458,-0.008375,0.994454,-0.012575,0.005728,-0.000747,-0.002335,0.000114,0.001689,0.124815,0.167043,-0.978017
1760109582.113921,-0.083542,0.063358,-0.008302,0.994453,-0.005427,-0.012755,0.004784,-0.001092,0.004602,0.004534,0.124625,0.167209,-0.978013
1760109582.147728,-0.083596,0.063280,-0.008263,0.994454,-0.004759,-0.011690,0.003869,-0.001156,0.002430,0.002763,0.124477,0.167311,-0.978015
1760109582.148029,-0.083650,0.063203,-0.008224,0.994455,-0.004091,-0.010625,0.002954,-0.001221,0.000257,0.000992,0.124330,0.167413,-0.978016
1760109582.162415,-0.083537,0.062650,-0.008202,0.994499,0.013857,-0.022103,-0.002329,-0.000924,0.003911,-0.005179,0.123241,0.167182,-0.978193
1760109582.192154,-0.083537,0.062599,-0.008174,0.994503,0.002294,-0.012411,0.002861,-0.001658,0.005154,-0.002588,0.123143,0.167180,-0.978206
1760109582.222683,-0.083581,0.062486,-0.008132,0.994507,-0.005341,-0.014927,0.004348,-0.003531,0.004581,-0.002858,0.122925,0.167259,-0.978220
1760109582.223035,-0.083624,0.062373,-0.008089,0.994511,-0.012976,-0.017442,0.005835,-0.005404,0.004009,-0.003128,0.122707,0.167339,-0.978233
1760109582.250991,-0.083860,0.062058,-0.008064,0.994511,-0.012771,-0.004151,-0.001328,0.000835,0.000234,-0.004445,0.122082,0.167799,-0.978233
1760109582.281418,-0.083984,0.062031,-0.008075,0.994502,-0.016835,0.002242,0.001084,-0.000333,0.001851,-0.003804,0.122024,0.168045,-0.978198
1760109582.283747,-0.084280,0.062053,-0.008039,0.994476,-0.005648,-0.002408,-0.001765,-0.004505,-0.000395,0.002299,0.122065,0.168627,-0.978093
1760109582.315505,-0.084276,0.062014,-0.008048,0.994478,-0.001290,-0.002156,-0.001337,-0.002921,0.001968,0.000638,0.121987,0.168620,-0.978104
1760109582.352636,-0.084208,0.061985,-0.008019,0.994486,0.009101,0.005690,0.006709,-0.002516,0.002294,0.000898,0.121936,0.168481,-0.978134
1760109582.381901,-0.084142,0.061982,-0.007984,0.994492,0.007280,0.003378,0.004673,-0.001829,0.003771,-0.000240,0.121937,0.168346,-0.978157
1760109582.382253,-0.084076,0.061978,-0.007949,0.994498,0.005459,0.001065,0.002636,-0.001142,0.005248,-0.001379,0.121938,0.168211,-0.978180
1760109582.383880,-0.084052,0.061998,-0.007916,0.994499,-0.004529,0.001765,-0.000622,0.000121,0.006365,-0.001020,0.121983,0.168162,-0.978183
1760109582.413973,-0.084134,0.062003,-0.007958,0.994492,-0.009902,0.000656,-0.005895,0.000558,0.004939,-0.002189,0.121985,0.168328,-0.978154
1760109582.444053,-0.084272,0.062009,-0.008047,0.994479,-0.015231,0.004410,-0.012187,0.001302,0.003980,-0.001391,0.121977,0.168610,-0.978106
1760109582.444355,-0.084409,0.062014,-0.008136,0.994466,-0.020560,0.008164,-0.018480,0.002045,0.003022,-0.000593,0.121969,0.168893,-0.978059
1760109582.500722,-0.084682,0.062028,-0.008499,0.994439,-0.008235,0.005239,-0.018975,0.000055,0.003053,0.001410,0.121926,0.169476,-0.977963
1760109582.501019,-0.084744,0.062023,-0.008658,0.994433,-0.000810,0.002229,-0.015147,0.000552,0.003942,0.002457,0.121888,0.169619,-0.977943
1760109582.531457,-0.084696,0.061993,-0.008889,0.994437,0.017512,-0.005988,-0.002465,0.000879,0.004145,0.002654,0.121790,0.169552,-0.977967
1760109582.531793,-0.084572,0.061934,-0.008932,0.994451,0.020228,-0.008782,-0.000097,0.000705,0.005147,0.001672,0.121670,0.169312,-0.978023
1760109582.574621,-0.084422,0.061840,-0.008937,0.994469,0.018946,-0.007577,-0.000031,0.001440,0.003959,-0.000993,0.121487,0.169015,-0.978097
1760109582.574945,-0.084271,0.061746,-0.008942,0.994488,0.017665,-0.006371,0.000034,0.002175,0.002771,-0.003659,0.121304,0.168718,-0.978172
1760109582.616402,-0.084032,0.061710,-0.008954,0.994510,0.023159,0.001008,0.000708,0.002152,0.000010,-0.000370,0.121238,0.168246,-0.978261
1760109582.621271,-0.083673,0.061748,-0.009046,0.994537,0.041408,0.000028,-0.004145,0.001077,-0.001821,0.002358,0.121307,0.167548,-0.978372
1760109582.649545,-0.083295,0.061751,-0.009170,0.994568,0.048659,0.000335,-0.007987,0.001191,-0.000646,0.001444,0.121304,0.166818,-0.978497
1760109582.649871,-0.082918,0.061755,-0.009295,0.994598,0.055910,0.000642,-0.011829,0.001305,0.000529,0.000528,0.121300,0.166087,-0.978622
1760109582.691623,-0.082467,0.061580,-0.009518,0.994644,0.049682,-0.011910,-0.022991,0.001975,0.002532,0.000112,0.120930,0.165222,-0.978814
1760109582.691911,-0.082015,0.061405,-0.009742,0.994690,0.043453,-0.024462,-0.034154,0.002645,0.004535,-0.000305,0.120561,0.164356,-0.979006
1760109582.720463,-0.081740,0.061189,-0.009953,0.994724,0.034744,-0.025369,-0.028272,0.003441,0.004479,-0.002073,0.120106,0.163836,-0.979149
1760109582.724678,-0.081301,0.060797,-0.010264,0.994781,0.031171,-0.019858,-0.011249,0.001866,0.002069,-0.005542,0.119291,0.163002,-0.979388
1760109582.753365,-0.081078,0.060692,-0.010331,0.994805,0.033083,-0.012723,-0.002368,0.001972,0.002635,-0.005912,0.119079,0.162567,-0.979486
1760109582.783925,-0.080888,0.060663,-0.010302,0.994822,0.026931,-0.006465,0.007413,0.001454,0.004343,-0.005519,0.119032,0.162188,-0.979554
1760109582.784338,-0.080698,0.060634,-0.010274,0.994840,0.020778,-0.000208,0.017195,0.000936,0.006052,-0.005125,0.118984,0.161809,-0.979623
1760109582.821238,-0.080595,0.060717,-0.009744,0.994848,-0.000023,-0.002241,0.007995,-0.000764,-0.002638,-0.000685,0.119238,0.161543,-0.979636
1760109582.849649,-0.080558,0.060703,-0.009764,0.994852,0.008099,-0.003455,-0.001489,-0.001480,-0.003861,0.001121,0.119208,0.161472,-0.979651
1760109582.880329,-0.080413,0.060647,-0.009842,0.994866,0.021844,-0.004634,-0.005751,-0.002570,-0.002541,0.001978,0.119088,0.161195,-0.979711
1760109582.882654,-0.080146,0.060554,-0.009931,0.994893,0.032274,-0.006970,-0.004336,-0.005118,0.000570,-0.000062,0.118897,0.160675,-0.979820
1760109582.917994,-0.079786,0.060473,-0.009989,0.994926,0.032803,-0.004832,0.002992,-0.003856,0.004307,-0.003818,0.118738,0.159970,-0.979954
1760109582.921128,-0.079478,0.060473,-0.009930,0.994951,0.025857,0.003107,0.012391,-0.004513,0.003484,-0.002802,0.118757,0.159354,-0.980052
1760109582.949507,-0.079219,0.060508,-0.009804,0.994971,0.022168,0.005240,0.014402,-0.006004,0.001201,-0.003026,0.118853,0.158828,-0.980126
1760109582.980383,-0.078968,0.060522,-0.009682,0.994991,0.028134,0.007457,0.008604,-0.002008,-0.001540,-0.004654,0.118909,0.158316,-0.980202
1760109582.982304,-0.078695,0.060637,-0.009657,0.995006,0.029054,0.016359,0.004239,-0.001531,0.000274,-0.003112,0.119149,0.157774,-0.980261
1760109583.021493,-0.078478,0.060850,-0.009637,0.995010,0.021673,0.027723,0.006839,-0.003024,0.001419,-0.000064,0.119580,0.157345,-0.980277
1760109583.022611,-0.078255,0.061010,-0.009631,0.995018,0.025002,0.014849,-0.000952,-0.004912,0.001766,0.004962,0.119904,0.156905,-0.980308
1760109583.052352,-0.077983,0.061090,-0.009642,0.995035,0.026018,0.007709,-0.000539,-0.001268,0.002921,0.000135,0.120070,0.156369,-0.980373
1760109583.082843,-0.077722,0.061162,-0.009658,0.995050,0.025030,0.015649,0.002660,0.001399,0.003792,-0.005017,0.120216,0.155856,-0.980437
1760109583.084998,-0.077471,0.061330,-0.009640,0.995060,0.024068,0.015480,0.010365,0.000579,0.004138,-0.000802,0.120561,0.155359,-0.980474
1760109583.113665,-0.077226,0.061429,-0.009554,0.995073,0.025926,0.012730,0.011432,0.000844,0.002596,-0.001643,0.120778,0.154866,-0.980525
1760109583.116452,-0.076994,0.061519,-0.009459,0.995087,0.026581,0.007870,0.011984,0.001331,0.001470,-0.001346,0.120976,0.154396,-0.980575
1760109583.145961,-0.076755,0.061592,-0.009347,0.995102,0.025758,0.003680,0.013085,0.001967,0.000946,-0.000218,0.121145,0.153910,-0.980630
1760109583.162969,-0.076543,0.061658,-0.009269,0.995115,0.024788,0.008525,0.013020,0.002573,0.000147,0.000714,0.121295,0.153481,-0.980679
1760109583.216813,-0.076307,0.061743,-0.009198,0.995128,0.024404,0.007151,0.009684,0.001528,0.000087,0.000424,0.121480,0.153005,-0.980730
1760109583.217123,-0.076070,0.061828,-0.009127,0.995142,0.024020,0.005778,0.006347,0.000483,0.000028,0.000134,0.121666,0.152530,-0.980781
1760109583.218537,-0.075859,0.061898,-0.009062,0.995154,0.019909,0.002683,0.006726,0.000374,0.000434,-0.000424,0.121821,0.152104,-0.980828
1760109583.247204,-0.075682,0.061980,-0.008997,0.995163,0.014404,0.002111,0.007139,0.001359,-0.001275,-0.001791,0.121999,0.151748,-0.980861
1760109583.278030,-0.075558,0.062028,-0.008955,0.995170,0.008432,0.000348,0.003813,0.002677,-0.000648,-0.001644,0.122104,0.151498,-0.980887
1760109583.282258,-0.075543,0.062019,-0.008940,0.995172,-0.004114,0.001355,0.001054,0.002905,0.000614,-0.002643,0.122088,0.151465,-0.980894
1760109583.312659,-0.075688,0.062065,-0.008914,0.995158,-0.018698,0.005226,0.002236,0.003449,-0.000154,-0.003789,0.122179,0.151750,-0.980839
1760109583.319765,-0.075951,0.062125,-0.008866,0.995135,-0.029179,0.006400,0.003625,0.002015,-0.002374,-0.002842,0.122299,0.152265,-0.980744
1760109583.355236,-0.076237,0.062246,-0.008788,0.995106,-0.030981,0.014346,0.001962,0.003655,-0.004766,-0.001176,0.122543,0.152822,-0.980627
1760109583.356358,-0.076508,0.062392,-0.008743,0.995076,-0.025008,0.009574,-0.000097,0.001587,-0.006160,0.000430,0.122833,0.153354,-0.980507
1760109583.385930,-0.076741,0.062539,-0.008737,0.995049,-0.020081,0.013143,-0.000507,0.000872,-0.007067,0.000450,0.123117,0.153815,-0.980399
1760109583.419184,-0.076872,0.062661,-0.008734,0.995032,-0.009850,0.008290,-0.003863,-0.000394,-0.006488,-0.000235,0.123356,0.154075,-0.980329
1760109583.421143,-0.076906,0.062760,-0.008791,0.995022,-0.004182,0.005960,-0.004452,-0.000383,-0.003910,0.001936,0.123543,0.154149,-0.980293
1760109583.449665,-0.076903,0.062829,-0.008824,0.995018,-0.004934,0.004040,-0.001042,-0.000116,-0.001180,0.000584,0.123674,0.154149,-0.980277
1760109583.480370,-0.076917,0.062924,-0.008808,0.995011,-0.004874,0.011503,0.005503,0.000631,-0.000063,-0.003162,0.123866,0.154174,-0.980249
1760109583.481612,-0.076919,0.063105,-0.008714,0.995000,-0.009668,0.025547,0.015949,0.002670,0.001199,-0.004547,0.124238,0.154169,-0.980202
1760109583.516911,-0.077028,0.063418,-0.008511,0.994973,-0.015998,0.030362,0.023209,0.000489,-0.000563,-0.001356,0.124888,0.154362,-0.980089
1760109583.519180,-0.077151,0.063654,-0.008299,0.994951,-0.017077,0.020279,0.015253,0.002250,-0.002916,-0.000926,0.125385,0.154579,-0.979992
1760109583.551467,-0.077326,0.063832,-0.008191,0.994927,-0.020187,0.013096,0.003799,0.003242,-0.001722,0.000165,0.125749,0.154914,-0.979892
1760109583.580706,-0.077547,0.063991,-0.008152,0.994900,-0.024390,0.012070,-0.004100,0.001978,-0.002906,0.002300,0.126065,0.155347,-0.979783
1760109583.581037,-0.077753,0.064046,-0.008214,0.994879,-0.019910,0.000600,-0.009939,0.000016,-0.002727,0.004638,0.126158,0.155761,-0.979705
1760109583.609507,-0.077903,0.064006,-0.008321,0.994869,-0.009688,-0.006770,-0.011076,-0.000035,-0.002331,0.002910,0.126058,0.156072,-0.979669
1760109583.617031,-0.077934,0.063899,-0.008419,0.994873,-0.001129,-0.012852,-0.008371,0.000569,0.002232,-0.001197,0.125830,0.156145,-0.979686
1760109583.647184,-0.077914,0.063869,-0.008408,0.994877,-0.000896,-0.001465,0.005337,0.002086,0.002074,-0.000122,0.125773,0.156103,-0.979701
1760109583.676160,-0.077849,0.063809,-0.008295,0.994886,0.004440,-0.004074,0.010410,0.000357,-0.000875,-0.001494,0.125674,0.155960,-0.979736
1760109583.676399,-0.077696,0.063755,-0.008200,0.994903,0.024819,-0.013184,0.007197,0.000390,-0.003982,-0.000696,0.125585,0.155646,-0.979797
1760109583.706680,-0.077404,0.063698,-0.008257,0.994929,0.034548,-0.000428,-0.003896,0.002059,-0.002824,-0.001815,0.125472,0.155076,-0.979902
1760109583.738478,-0.077075,0.063704,-0.008317,0.994953,0.032883,0.002604,0.000297,0.001129,0.000581,-0.001002,0.125483,0.154433,-0.980002
1760109583.740041,-0.076760,0.063702,-0.008377,0.994977,0.035993,-0.001900,-0.003714,-0.001770,-0.001229,0.000469,0.125478,0.153816,-0.980100
1760109583.774274,-0.076380,0.063647,-0.008424,0.995010,0.034714,-0.006648,0.001025,-0.000252,0.001140,0.001604,0.125372,0.153069,-0.980230
1760109583.775656,-0.076025,0.063618,-0.008411,0.995039,0.032899,-0.006456,0.005083,-0.000317,-0.001169,-0.001025,0.125327,0.152366,-0.980346
1760109583.819128,-0.075703,0.063572,-0.008378,0.995067,0.032168,-0.003176,0.005017,0.000132,-0.000921,-0.002745,0.125247,0.151723,-0.980456
1760109583.819436,-0.075418,0.063538,-0.008338,0.995091,0.025907,-0.001294,0.007053,0.000106,-0.000803,-0.002240,0.125194,0.151154,-0.980550
1760109583.850352,-0.075194,0.063574,-0.008282,0.995106,0.017711,0.002437,0.007480,-0.000136,-0.001219,-0.001606,0.125280,0.150705,-0.980608
1760109583.857232,-0.075031,0.063588,-0.008245,0.995118,0.013927,0.000813,0.002424,-0.000008,-0.002457,-0.000331,0.125318,0.150378,-0.980654
1760109583.887281,-0.074874,0.063563,-0.008241,0.995131,0.017536,-0.005407,-0.002026,-0.001604,-0.002255,0.001773,0.125273,0.150067,-0.980707
1760109583.916485,-0.074704,0.063503,-0.008302,0.995147,0.018832,-0.007214,-0.005231,0.000115,0.000789,-0.000010,0.125149,0.149737,-0.980773
1760109583.918494,-0.074528,0.063453,-0.008341,0.995163,0.016242,-0.004612,-0.000597,0.000639,0.004255,-0.000111,0.125049,0.149393,-0.980839
1760109583.946941,-0.074359,0.063459,-0.008303,0.995176,0.013394,0.002116,0.007181,0.000379,0.003738,-0.000638,0.125072,0.149054,-0.980887
1760109583.977894,-0.074223,0.063445,-0.008212,0.995188,0.010647,0.002467,0.009055,0.000059,0.002086,-0.002278,0.125059,0.148773,-0.980932
1760109583.979730,-0.074105,0.063494,-0.008152,0.995194,0.012275,0.007111,0.004572,-0.000081,-0.001006,-0.003108,0.125168,0.148534,-0.980954
1760109584.009089,-0.074011,0.063599,-0.008158,0.995194,0.012598,0.008404,-0.004863,0.000162,-0.002465,-0.001716,0.125379,0.148349,-0.980955
1760109584.038832,-0.073885,0.063647,-0.008253,0.995199,0.015681,0.007750,-0.008925,0.000715,-0.000877,-0.000340,0.125464,0.148112,-0.980980
1760109584.041023,-0.073784,0.063743,-0.008372,0.995200,0.009849,0.007646,-0.006905,0.000202,0.000834,0.001921,0.125639,0.147928,-0.980985
1760109584.069623,-0.073715,0.063791,-0.008421,0.995201,0.003225,0.003937,-0.001806,0.000812,0.000502,0.001122,0.125728,0.147797,-0.980994
1760109584.075759,-0.073671,0.063849,-0.008394,0.995201,0.001346,0.004083,0.002558,0.001987,-0.002075,-0.000877,0.125849,0.147706,-0.980992
1760109584.116781,-0.073622,0.063876,-0.008376,0.995203,0.001024,0.005142,0.004708,0.001701,-0.002011,-0.001008,0.125906,0.147608,-0.980999
1760109584.119553,-0.073602,0.063878,-0.008285,0.995205,0.003044,-0.009338,0.009441,-0.000575,-0.005045,0.001368,0.125923,0.147556,-0.981005
1760109584.148295,-0.073562,0.063778,-0.008187,0.995216,0.002686,-0.011700,0.009419,0.001259,-0.007174,-0.001220,0.125741,0.147464,-0.981042
1760109584.163985,-0.073528,0.063687,-0.008060,0.995225,-0.001383,-0.005557,0.009508,0.003235,-0.009303,-0.004702,0.125581,0.147380,-0.981075
1760109584.193986,-0.073504,0.063689,-0.007927,0.995228,-0.001804,0.004494,0.013379,0.004252,-0.011104,-0.006494,0.125605,0.147316,-0.981082
1760109584.195291,-0.073516,0.063835,-0.007825,0.995218,-0.010204,0.012000,0.008658,0.004555,-0.012668,-0.004795,0.125909,0.147328,-0.981041
1760109584.223868,-0.073678,0.064022,-0.007722,0.995195,-0.029458,0.023974,0.008524,0.005789,-0.016177,-0.003509,0.126290,0.147636,-0.980946
1760109584.256684,-0.073957,0.064240,-0.007643,0.995161,-0.034803,0.015145,-0.002548,0.004432,-0.022518,0.000506,0.126729,0.148179,-0.980807
1760109584.256968,-0.074232,0.064277,-0.007741,0.995137,-0.037536,0.002472,-0.017631,0.005623,-0.021870,-0.003101,0.126779,0.148738,-0.980716
1760109584.284713,-0.074599,0.064304,-0.007923,0.995107,-0.055178,-0.000500,-0.022937,0.005257,-0.019299,-0.000003,0.126797,0.149486,-0.980600
1760109584.313807,-0.075119,0.064262,-0.008070,0.995069,-0.071602,-0.014803,-0.016974,0.003256,-0.020778,0.003215,0.126678,0.150534,-0.980455
1760109584.318632,-0.075735,0.064118,-0.008217,0.995030,-0.079379,-0.022553,-0.029629,0.001846,-0.024686,0.002454,0.126353,0.151772,-0.980306
1760109584.356373,-0.076412,0.063849,-0.008461,0.994994,-0.090223,-0.030280,-0.038041,0.002364,-0.022063,-0.000429,0.125766,0.153140,-0.980169
1760109584.358556,-0.077262,0.063577,-0.008661,0.994944,-0.108591,-0.022508,-0.021737,0.001391,-0.021615,0.000306,0.125174,0.154845,-0.979977
1760109584.416784,-0.078086,0.063235,-0.008556,0.994902,-0.091262,-0.034383,-0.002496,0.001231,-0.029727,-0.002213,0.124489,0.156459,-0.979808
1760109584.417038,-0.078910,0.062892,-0.008452,0.994860,-0.073932,-0.046258,0.016745,0.001070,-0.037839,-0.004735,0.123804,0.158073,-0.979635
1760109584.418455,-0.079360,0.062600,-0.008269,0.994844,-0.045274,-0.021687,0.015182,0.005267,-0.043957,-0.010353,0.123242,0.158937,-0.979566
1760109584.447196,-0.079540,0.062510,-0.008086,0.994837,-0.030338,-0.000764,0.015310,0.002748,-0.043685,-0.006422,0.123089,0.159269,-0.979532
1760109584.477930,-0.079616,0.062539,-0.007924,0.994830,-0.022200,-0.008536,0.010249,-0.003802,-0.040534,0.007376,0.123169,0.159399,-0.979501
1760109584.478850,-0.079645,0.062341,-0.007802,0.994841,-0.035326,-0.022112,0.008419,-0.002877,-0.040050,0.005083,0.122796,0.159441,-0.979541
1760109584.508550,-0.079762,0.062137,-0.007657,0.994846,-0.041073,-0.024378,0.016148,0.002278,-0.042140,-0.000502,0.122412,0.159652,-0.979554
1760109584.519743,-0.079919,0.062061,-0.007479,0.994839,-0.044392,0.004969,0.003192,0.005895,-0.049034,-0.009729,0.122286,0.159941,-0.979523
1760109584.549817,-0.080014,0.062198,-0.007500,0.994823,-0.032687,0.022183,-0.014600,0.001235,-0.047105,-0.005839,0.122552,0.160132,-0.979458
1760109584.578410,-0.080101,0.062448,-0.007690,0.994799,-0.037342,0.037579,-0.029015,-0.002502,-0.036766,0.001723,0.123015,0.160330,-0.979368
1760109584.579491,-0.080320,0.062749,-0.007971,0.994760,-0.058289,0.017209,-0.028717,-0.006635,-0.022614,0.012649,0.123560,0.160799,-0.979222
1760109584.610330,-0.080728,0.062836,-0.008225,0.994720,-0.086819,0.000209,-0.027339,-0.003588,-0.013395,0.008348,0.123681,0.161637,-0.979069
1760109584.612701,-0.081351,0.062717,-0.008273,0.994676,-0.102433,-0.013009,-0.000749,0.000858,-0.010890,0.005221,0.123420,0.162874,-0.978897
1760109584.642254,-0.082117,0.062623,-0.008030,0.994621,-0.108337,-0.004939,0.031510,0.004953,-0.015341,0.000343,0.123253,0.164357,-0.978670
1760109584.672714,-0.082921,0.062633,-0.007559,0.994557,-0.086712,-0.000573,0.043100,0.004555,-0.027842,0.003471,0.123331,0.165886,-0.978402
1760109584.674088,-0.083499,0.062631,-0.007096,0.994512,-0.058527,-0.007431,0.036478,0.003392,-0.027940,0.006050,0.123390,0.166970,-0.978211
1760109584.716336,-0.083857,0.062610,-0.006736,0.994486,-0.037850,-0.008042,0.018567,0.001191,-0.021029,0.007612,0.123399,0.167632,-0.978096
1760109584.718442,-0.084087,0.062520,-0.006462,0.994474,-0.047854,-0.012519,0.023702,-0.000927,-0.004687,0.013005,0.123262,0.168053,-0.978041
1760109584.748519,-0.084569,0.062408,-0.006006,0.994443,-0.079597,-0.034607,0.051070,-0.004198,-0.001416,0.030272,0.123107,0.168947,-0.977907
1760109584.754794,-0.085218,0.062030,-0.005280,0.994416,-0.085364,-0.059186,0.070178,0.001702,-0.014411,0.031220,0.122468,0.170139,-0.977780
1760109584.784713,-0.085702,0.061440,-0.004533,0.994414,-0.043161,-0.068464,0.053415,0.000855,-0.021629,0.025236,0.121417,0.171004,-0.977760
1760109584.814952,-0.085866,0.060764,-0.003983,0.994444,-0.010228,-0.076128,0.042802,-0.001037,-0.011035,0.028660,0.120169,0.171262,-0.977870
1760109584.815266,-0.085958,0.060060,-0.003552,0.994480,-0.019508,-0.080426,0.032701,-0.006128,0.004867,0.035188,0.118846,0.171393,-0.978008
1760109584.843320,-0.086183,0.059122,-0.003035,0.994519,-0.034784,-0.125529,0.041905,-0.007295,0.018058,0.017653,0.117073,0.171780,-0.978154
1760109584.873937,-0.086630,0.058073,-0.002395,0.994544,-0.074784,-0.089979,0.064895,0.000215,0.030397,-0.012556,0.115097,0.172594,-0.978245
1760109584.876022,-0.087421,0.057439,-0.001418,0.994513,-0.104801,-0.060368,0.095262,-0.001846,0.026532,-0.015010,0.114001,0.174046,-0.978116
1760109584.912745,-0.088514,0.057146,-0.000322,0.994434,-0.115445,-0.023729,0.100262,-0.003772,0.011668,0.000086,0.113599,0.176079,-0.977799
1760109584.914052,-0.089716,0.057105,0.000669,0.994329,-0.111873,0.000405,0.081096,-0.007322,-0.004293,0.025711,0.113682,0.178338,-0.977380
1760109584.947146,-0.090838,0.056991,0.001387,0.994233,-0.096353,-0.033645,0.042154,-0.009829,-0.009787,0.036813,0.113577,0.180469,-0.977001
1760109584.977557,-0.091893,0.056540,0.001544,0.994161,-0.090847,-0.053977,-0.026416,-0.003944,0.009315,0.016432,0.112704,0.182537,-0.976718
1760109584.977865,-0.093046,0.056002,0.001315,0.994085,-0.136575,-0.041167,-0.028614,0.001483,0.040419,-0.003492,0.111587,0.184844,-0.976412
1760109585.024300,-0.094937,0.055781,0.001429,0.993918,-0.180534,-0.032003,-0.008936,-0.000140,0.040563,0.001092,0.111156,0.188559,-0.975751
1760109585.024630,-0.096827,0.055561,0.001542,0.993748,-0.224494,-0.022839,0.010742,-0.001764,0.040709,0.005663,0.110725,0.192272,-0.975075
1760109585.055357,-0.099051,0.055337,0.001796,0.993541,-0.233348,-0.013834,0.011770,0.002296,0.031004,0.006553,0.110315,0.196624,-0.974253
1760109585.057274,-0.101375,0.055125,0.001903,0.993318,-0.207047,-0.035643,-0.018994,0.001976,0.029535,0.008813,0.109900,0.201186,-0.973369
1760109585.086339,-0.103678,0.054674,0.001670,0.993106,-0.213413,-0.041852,-0.052597,0.007552,0.045813,-0.016390,0.108941,0.205744,-0.972523
1760109585.093471,-0.106262,0.054424,0.001314,0.992847,-0.264477,-0.001397,-0.044548,0.009586,0.061570,-0.016963,0.108349,0.210861,-0.971493
1760109585.135482,-0.109150,0.054354,0.001035,0.992538,-0.289463,0.004084,-0.045375,0.006594,0.061992,-0.007154,0.108122,0.216559,-0.970264
1760109585.137510,-0.112100,0.054336,0.000720,0.992210,-0.278691,0.003572,-0.058019,0.004900,0.056473,0.000470,0.107987,0.222374,-0.968963
1760109585.167951,-0.114826,0.054215,0.000227,0.991905,-0.239538,-0.014903,-0.073214,0.008024,0.053742,-0.001571,0.107604,0.227769,-0.967751
1760109585.172578,-0.117275,0.054090,-0.000535,0.991625,-0.210206,0.004365,-0.102428,0.011026,0.054853,-0.013164,0.107148,0.232644,-0.966642
1760109585.200754,-0.119519,0.054065,-0.001470,0.991358,-0.194748,0.015148,-0.102912,0.002712,0.062818,-0.023886,0.106844,0.237132,-0.965584
1760109585.231500,-0.121617,0.054155,-0.002494,0.991096,-0.172256,0.012858,-0.115952,-0.006810,0.068102,-0.021408,0.106739,0.241338,-0.964553
1760109585.232870,-0.123400,0.054052,-0.003557,0.990878,-0.145870,0.002530,-0.107302,-0.007436,0.072302,-0.025625,0.106241,0.244933,-0.963702
1760109585.262998,-0.124950,0.054117,-0.004497,0.990676,-0.120094,0.019050,-0.093010,-0.006652,0.067881,-0.021306,0.106101,0.248057,-0.962918
1760109585.316031,-0.126082,0.054295,-0.005257,0.990519,-0.099278,0.031631,-0.077956,-0.005200,0.062703,-0.018863,0.106234,0.250345,-0.962311
1760109585.316344,-0.127214,0.054472,-0.006016,0.990360,-0.078462,0.044213,-0.062901,-0.003745,0.057526,-0.016425,0.106363,0.252631,-0.961699
1760109585.317692,-0.128253,0.054870,-0.006641,0.990200,-0.079050,0.052501,-0.044958,-0.007767,0.056245,-0.002035,0.106962,0.254721,-0.961081
1760109585.357565,-0.129294,0.055248,-0.007013,0.990041,-0.079608,0.035699,-0.023593,-0.010911,0.049536,0.007305,0.107582,0.256788,-0.960461
1760109585.358981,-0.130295,0.055492,-0.007129,0.989895,-0.076684,0.024605,-0.002797,-0.009372,0.043485,0.007625,0.108005,0.258747,-0.959888
1760109585.388872,-0.131253,0.055675,-0.007072,0.989759,-0.069157,0.015559,0.006701,-0.008794,0.030758,0.013609,0.108354,0.260605,-0.959346
1760109585.390252,-0.132119,0.055743,-0.006972,0.989641,-0.051482,0.008628,0.003940,-0.005083,0.019552,0.011447,0.108488,0.262278,-0.958875
1760109585.420561,-0.132826,0.055653,-0.006947,0.989551,-0.033338,-0.011114,0.000886,-0.006417,0.020280,0.006552,0.108297,0.263649,-0.958520
1760109585.449673,-0.133413,0.055467,-0.006902,0.989483,-0.031555,-0.005214,0.003358,-0.003885,0.020725,-0.004465,0.107925,0.264786,-0.958249
1760109585.451435,-0.133950,0.055385,-0.006844,0.989415,-0.032346,-0.003960,0.010678,-0.006256,0.019234,0.001804,0.107765,0.265823,-0.957980
1760109585.480883,-0.134397,0.055288,-0.006719,0.989361,-0.028613,-0.002580,0.012322,-0.003766,0.016825,-0.002644,0.107594,0.266678,-0.957761
1760109585.511659,-0.134780,0.055282,-0.006639,0.989310,-0.017150,0.000201,0.005770,-0.004134,0.011124,0.001013,0.107593,0.267412,-0.957557
1760109585.514184,-0.135029,0.055293,-0.006621,0.989275,-0.008984,0.008404,0.003014,-0.002269,0.009641,-0.000508,0.107613,0.267895,-0.957419
1760109585.543804,-0.135170,0.055330,-0.006665,0.989254,0.005084,0.011551,-0.006284,-0.000510,0.004570,-0.003253,0.107669,0.268172,-0.957336
1760109585.580293,-0.135223,0.055461,-0.006792,0.989238,0.007628,0.026826,-0.013089,0.001168,0.000863,-0.002083,0.107892,0.268288,-0.957278
1760109585.581632,-0.135235,0.055681,-0.007017,0.989223,0.009336,0.024811,-0.019656,-0.000376,0.000297,0.003223,0.108264,0.268336,-0.957222
1760109585.619209,-0.135195,0.055855,-0.007290,0.989217,0.012955,0.023415,-0.032056,0.000868,-0.002148,0.001300,0.108534,0.268288,-0.957205
1760109585.620032,-0.135122,0.056008,-0.007671,0.989215,0.007346,0.020222,-0.024908,0.000610,0.002680,0.003124,0.108734,0.268189,-0.957210
1760109585.650033,-0.135168,0.056136,-0.007876,0.989200,-0.004448,0.003296,-0.012695,-0.002339,-0.000722,0.001919,0.108929,0.268300,-0.957157
1760109585.652280,-0.135206,0.056073,-0.008001,0.989197,-0.003203,0.002574,-0.003409,0.001341,-0.002536,-0.003614,0.108771,0.268389,-0.957150
1760109585.691370,-0.135150,0.056055,-0.008071,0.989205,0.013186,-0.005459,-0.006577,0.004286,-0.008657,-0.003682,0.108717,0.268286,-0.957185
1760109585.692488,-0.134970,0.055996,-0.008169,0.989233,0.027908,-0.003097,-0.010107,0.006281,-0.010623,-0.010086,0.108581,0.267947,-0.957295
1760109585.721803,-0.134743,0.056031,-0.008310,0.989260,0.021328,0.010204,-0.010074,0.004691,-0.005180,-0.010262,0.108620,0.267522,-0.957410
1760109585.753969,-0.134583,0.056195,-0.008406,0.989272,0.002463,0.016631,-0.002062,0.002570,-0.001936,-0.010095,0.108922,0.267222,-0.957459
1760109585.756162,-0.134584,0.056386,-0.008338,0.989261,-0.009051,0.011543,0.008872,0.001721,-0.001982,-0.002170,0.109317,0.267217,-0.957416
1760109585.784430,-0.134600,0.056528,-0.008248,0.989252,-0.005984,0.001743,0.008914,0.002238,-0.005401,0.004607,0.109620,0.267238,-0.957375
1760109585.792176,-0.134521,0.056566,-0.008172,0.989261,0.004147,0.001142,0.006693,0.003727,-0.006295,0.006907,0.109718,0.267078,-0.957409
1760109585.822002,-0.134377,0.056501,-0.008080,0.989285,0.016127,-0.011512,0.005004,0.001621,-0.007567,0.007507,0.109620,0.266787,-0.957501
1760109585.852329,-0.134179,0.056340,-0.008070,0.989321,0.022761,-0.014744,0.003219,0.000275,-0.004771,0.003550,0.109311,0.266401,-0.957644
1760109585.852660,-0.133924,0.056197,-0.008091,0.989364,0.025288,-0.019565,-0.005175,0.001027,-0.000873,-0.000667,0.109032,0.265908,-0.957813
1760109585.880620,-0.133720,0.056056,-0.008147,0.989399,0.010367,0.000480,-0.007009,0.001772,0.000002,-0.004174,0.108745,0.265519,-0.957953
1760109585.918399,-0.133577,0.056006,-0.008226,0.989420,0.010338,-0.014674,-0.007340,-0.003248,0.001148,0.000202,0.108630,0.265250,-0.958041
1760109585.918785,-0.133455,0.055770,-0.008301,0.989450,0.016797,-0.023681,-0.016004,-0.000674,0.000243,-0.008772,0.108148,0.265020,-0.958159
1760109585.952757,-0.133316,0.055699,-0.008469,0.989471,0.008410,0.005715,-0.013594,0.001220,0.003509,-0.007158,0.107968,0.264768,-0.958249
1760109585.953043,-0.133257,0.055753,-0.008560,0.989475,-0.001768,0.014524,-0.002510,-0.001467,0.006124,-0.007544,0.108051,0.264664,-0.958268
1760109585.980857,-0.133361,0.055966,-0.008555,0.989449,-0.013159,0.014957,0.003363,-0.002990,0.001567,0.001263,0.108470,0.264865,-0.958165
1760109586.013408,-0.133444,0.056005,-0.008605,0.989435,-0.011673,0.007568,-0.004086,-0.000828,0.000990,-0.000629,0.108529,0.265033,-0.958112
1760109586.013651,-0.133661,0.056145,-0.008642,0.989398,-0.022605,0.007902,-0.004050,-0.000700,0.001616,0.001032,0.108789,0.265458,-0.957965
1760109586.045457,-0.133966,0.056243,-0.008691,0.989350,-0.036367,0.021397,-0.002869,0.000329,0.001339,0.000099,0.108959,0.266055,-0.957780
1760109586.052341,-0.134366,0.056395,-0.008757,0.989287,-0.032993,0.005270,-0.008787,-0.003549,0.003293,0.005014,0.109228,0.266840,-0.957531
1760109586.082320,-0.134758,0.056386,-0.008820,0.989234,-0.047264,0.002013,-0.005125,-0.001313,0.006586,0.001896,0.109181,0.267608,-0.957322
1760109586.113476,-0.135279,0.056383,-0.008772,0.989163,-0.054217,0.000938,0.004579,0.000731,0.004947,-0.001833,0.109171,0.268615,-0.957041
1760109586.113780,-0.135781,0.056371,-0.008626,0.989096,-0.044698,-0.005207,0.012410,0.001452,0.003956,-0.001399,0.109170,0.269574,-0.956772
1760109586.142681,-0.136112,0.056297,-0.008440,0.989057,-0.024898,-0.002745,0.019695,0.001898,0.003745,-0.003859,0.109064,0.270196,-0.956608
1760109586.172926,-0.136246,0.056358,-0.008226,0.989036,0.003413,0.004608,0.024043,0.001727,0.002463,-0.005320,0.109238,0.270431,-0.956522
1760109586.174813,-0.136136,0.056495,-0.007984,0.989046,0.021961,0.015870,0.028934,0.000837,0.001974,-0.001050,0.109578,0.270192,-0.956551
1760109586.216591,-0.135857,0.056649,-0.007729,0.989077,0.034027,0.007872,0.028814,-0.001202,0.003259,0.002149,0.109961,0.269622,-0.956667
1760109586.218670,-0.135491,0.056764,-0.007473,0.989123,0.040990,0.003904,0.020843,0.000014,0.000883,0.000793,0.110267,0.268882,-0.956840
1760109586.247247,-0.135052,0.056864,-0.007274,0.989179,0.048432,0.008039,0.022376,0.000848,-0.000218,0.000202,0.110532,0.268008,-0.957055
1760109586.248070,-0.134524,0.057005,-0.007156,0.989243,0.060755,0.013897,0.009727,-0.000008,-0.003373,-0.000478,0.110858,0.266971,-0.957307
1760109586.280969,-0.133904,0.057154,-0.007265,0.989318,0.065813,0.019717,-0.005130,-0.000195,-0.000169,0.001236,0.111142,0.265779,-0.957606
1760109586.311591,-0.133293,0.057321,-0.007408,0.989390,0.060658,0.011097,-0.014386,-0.001295,0.003131,0.002340,0.111451,0.264606,-0.957895
1760109586.311888,-0.132807,0.057392,-0.007637,0.989449,0.044489,0.013082,-0.020180,0.001535,0.003751,-0.002395,0.111545,0.263689,-0.958137
1760109586.345130,-0.132472,0.057510,-0.007814,0.989486,0.024834,0.016672,-0.007844,-0.000655,0.001166,0.000345,0.111741,0.263057,-0.958288
1760109586.374377,-0.132269,0.057584,-0.007962,0.989508,0.024979,-0.002704,-0.019033,-0.002797,0.002354,0.003428,0.111854,0.262679,-0.958378
1760109586.375611,-0.132119,0.057484,-0.008138,0.989532,0.009777,-0.009781,-0.011204,0.001074,0.003839,0.000203,0.111614,0.262407,-0.958481
1760109586.416490,-0.132082,0.057417,-0.008165,0.989541,0.004719,-0.003318,0.004120,0.000365,0.000800,-0.000632,0.111476,0.262338,-0.958515
1760109586.418561,-0.132040,0.057418,-0.008113,0.989547,0.007748,0.006964,0.004987,0.003447,-0.003851,-0.004610,0.111492,0.262251,-0.958537
1760109586.447248,-0.131955,0.057569,-0.008082,0.989550,0.004397,0.016969,0.009333,0.002417,-0.000251,-0.001880,0.111802,0.262083,-0.958547
1760109586.451751,-0.131974,0.057762,-0.007994,0.989537,0.000746,0.018643,0.008963,0.000642,0.001889,0.000559,0.112205,0.262110,-0.958493
1760109586.480707,-0.131962,0.057909,-0.007958,0.989530,-0.000259,0.005131,-0.001175,-0.000972,0.003890,0.001683,0.112505,0.262082,-0.958465
1760109586.516691,-0.132015,0.057955,-0.007974,0.989520,-0.010901,0.003858,0.000769,0.003120,0.006076,-0.001072,0.112590,0.262186,-0.958427
1760109586.518679,-0.132186,0.057990,-0.007951,0.989495,-0.023343,0.003612,0.000367,0.003153,0.008316,-0.001994,0.112660,0.262517,-0.958328
1760109586.548409,-0.132448,0.058027,-0.007941,0.989458,-0.021706,0.002884,-0.001970,0.005098,0.002865,-0.000785,0.112728,0.263026,-0.958180
1760109586.551126,-0.132608,0.058032,-0.007991,0.989436,-0.007886,-0.000326,-0.006526,0.004132,0.000192,0.000572,0.112718,0.263341,-0.958095
1760109586.581569,-0.132704,0.057983,-0.008120,0.989425,-0.000012,-0.011309,-0.023928,0.003525,0.000987,-0.000185,0.112585,0.263542,-0.958055
1760109586.610660,-0.132763,0.057858,-0.008362,0.989422,-0.004933,-0.012783,-0.019864,0.002467,0.009103,0.003963,0.112272,0.263685,-0.958053
1760109586.612790,-0.132914,0.057672,-0.008490,0.989412,-0.013984,-0.026827,-0.006829,-0.002537,0.008908,0.002680,0.111867,0.263994,-0.958015
1760109586.642250,-0.133041,0.057301,-0.008496,0.989416,-0.010658,-0.036939,-0.010841,0.004908,0.004253,-0.003442,0.111129,0.264240,-0.958033
1760109586.672592,-0.133178,0.057116,-0.008541,0.989408,-0.007608,-0.018349,-0.003259,0.005211,-0.000170,-0.000656,0.110748,0.264510,-0.958003
1760109586.674606,-0.133250,0.056937,-0.008553,0.989409,0.001771,-0.012450,0.000825,0.004530,-0.000050,-0.002069,0.110389,0.264652,-0.958005
1760109586.703229,-0.133248,0.056800,-0.008510,0.989417,0.015758,-0.016902,-0.004961,-0.001807,-0.003651,0.003960,0.110129,0.264642,-0.958038
1760109586.710897,-0.133095,0.056607,-0.008528,0.989449,0.017508,-0.023205,-0.001797,0.000718,-0.001751,0.004392,0.109749,0.264347,-0.958163
1760109586.743263,-0.132979,0.056435,-0.008546,0.989474,0.003662,-0.021556,-0.001204,0.000011,-0.000027,0.000068,0.109409,0.264123,-0.958263
1760109586.749144,-0.133023,0.056204,-0.008479,0.989482,-0.007601,-0.026475,0.005640,-0.000678,0.001661,0.001195,0.108971,0.264201,-0.958292
1760109586.778152,-0.133111,0.055920,-0.008368,0.989487,-0.014493,-0.030047,0.002101,-0.001305,-0.003871,0.000007,0.108436,0.264359,-0.958309
1760109586.817742,-0.133323,0.055574,-0.008328,0.989478,-0.026609,-0.043391,-0.001897,-0.002899,-0.001957,0.001040,0.107757,0.264766,-0.958273
1760109586.818961,-0.133623,0.055067,-0.008318,0.989466,-0.033749,-0.051271,-0.012361,-0.003102,-0.002594,-0.005208,0.106750,0.265347,-0.958225
1760109586.848025,-0.134082,0.054649,-0.008306,0.989427,-0.055903,-0.033784,-0.006927,0.002590,0.000587,-0.008015,0.105915,0.266236,-0.958071
1760109586.849201,-0.134704,0.054410,-0.008236,0.989357,-0.071020,-0.017083,0.003930,0.000765,-0.003884,-0.005985,0.105442,0.267437,-0.957789
1760109586.915071,-0.135340,0.054265,-0.008227,0.989278,-0.055229,-0.009221,-0.012216,-0.001840,-0.010301,-0.003266,0.105140,0.268670,-0.957477
1760109586.916449,-0.135727,0.054238,-0.008465,0.989224,-0.039580,0.000171,-0.024307,-0.001669,-0.009265,-0.002239,0.105009,0.269446,-0.957273
1760109586.947412,-0.136004,0.054264,-0.008798,0.989182,-0.024581,0.008315,-0.035032,-0.001823,-0.007937,-0.001804,0.104961,0.270020,-0.957117
1760109586.949484,-0.136134,0.054307,-0.009209,0.989158,-0.009902,0.012170,-0.039968,-0.002208,-0.004612,-0.000712,0.104929,0.270316,-0.957037
1760109586.981407,-0.136127,0.054390,-0.009625,0.989150,-0.000063,0.017636,-0.037991,-0.001903,-0.001290,0.000176,0.104979,0.270347,-0.957022
1760109587.036567,-0.136022,0.054529,-0.009960,0.989154,0.003503,0.018848,-0.032100,-0.001406,0.000411,-0.000671,0.105166,0.270180,-0.957049
1760109587.036811,-0.135917,0.054669,-0.010295,0.989157,0.007068,0.020060,-0.026209,-0.000910,0.002113,-0.001519,0.105353,0.270012,-0.957076
1760109587.037582,-0.135805,0.054849,-0.010526,0.989160,0.007357,0.021143,-0.013644,-0.000682,0.002592,0.000549,0.105650,0.269821,-0.957097
1760109587.070129,-0.135707,0.055006,-0.010654,0.989164,0.007485,0.016526,-0.005040,-0.001089,0.002635,0.001150,0.105928,0.269645,-0.957116
1760109587.070429,-0.135612,0.055120,-0.010731,0.989169,0.011703,0.004745,-0.000379,-0.001097,0.002222,0.002561,0.106136,0.269470,-0.957142
1760109587.116641,-0.135529,0.055146,-0.010749,0.989179,0.010827,0.006553,0.003217,0.001111,0.000178,-0.000921,0.106185,0.269311,-0.957181
1760109587.119302,-0.135437,0.055217,-0.010762,0.989188,0.012807,0.012560,0.000845,0.003564,-0.000545,-0.003865,0.106325,0.269134,-0.957216
1760109587.148256,-0.135338,0.055401,-0.010785,0.989191,0.008645,0.024631,0.004123,0.003096,0.001506,-0.003205,0.106685,0.268945,-0.957229
1760109587.149457,-0.135335,0.055688,-0.010732,0.989175,-0.003779,0.034027,0.011092,0.001849,0.001372,-0.002266,0.107265,0.268935,-0.957167
1760109587.180462,-0.135352,0.055990,-0.010662,0.989157,-0.001175,0.019423,0.006831,0.000199,-0.000208,0.001320,0.107879,0.268963,-0.957090
1760109587.209645,-0.135352,0.056153,-0.010668,0.989147,-0.001239,0.011965,-0.000450,0.000602,0.001587,0.000997,0.108199,0.268965,-0.957053
1760109587.211416,-0.135369,0.056252,-0.010691,0.989139,-0.002749,0.008056,-0.002089,0.001129,0.003102,0.000142,0.108388,0.269000,-0.957022
1760109587.249051,-0.135400,0.056343,-0.010702,0.989130,-0.002162,0.004951,-0.000481,0.000258,0.002729,0.001038,0.108563,0.269063,-0.956984
1760109587.250199,-0.135436,0.056399,-0.010708,0.989122,-0.001600,0.001848,0.001860,0.000310,0.003131,0.002953,0.108671,0.269133,-0.956952
1760109587.282845,-0.135449,0.056410,-0.010680,0.989119,0.001919,-0.000747,0.000685,0.000317,0.001843,0.001089,0.108699,0.269156,-0.956943
1760109587.287966,-0.135459,0.056446,-0.010667,0.989116,-0.000304,0.006032,0.001261,0.001024,0.002474,0.001662,0.108773,0.269174,-0.956929
1760109587.315975,-0.135478,0.056511,-0.010622,0.989110,0.000223,0.006543,0.005526,-0.000051,0.000633,0.002910,0.108912,0.269206,-0.956904
1760109587.360250,-0.135464,0.056569,-0.010630,0.989109,-0.001233,0.010727,-0.000694,0.001095,-0.000701,0.001435,0.109026,0.269180,-0.956899
1760109587.360556,-0.135450,0.056627,-0.010637,0.989107,-0.002688,0.014911,-0.006914,0.002241,-0.002036,-0.000040,0.109139,0.269154,-0.956893
1760109587.416677,-0.135607,0.056694,-0.010823,0.989080,-0.007605,0.010407,-0.014164,0.002350,-0.002670,-0.000046,0.109214,0.269480,-0.956793
1760109587.416978,-0.135764,0.056761,-0.011010,0.989053,-0.012523,0.005902,-0.021414,0.002459,-0.003305,-0.000052,0.109289,0.269805,-0.956693
1760109587.417393,-0.135921,0.056827,-0.011196,0.989025,-0.017441,0.001397,-0.028665,0.002568,-0.003939,-0.000058,0.109364,0.270131,-0.956592
1760109587.445932,-0.136097,0.056823,-0.011453,0.988998,-0.021080,0.000394,-0.028792,0.002343,-0.002641,-0.001634,0.109279,0.270502,-0.956497
1760109587.447743,-0.136295,0.056801,-0.011703,0.988969,-0.022773,-0.001625,-0.025862,0.001601,-0.001429,-0.000705,0.109159,0.270912,-0.956395
1760109587.477144,-0.136490,0.056743,-0.011910,0.988943,-0.022103,-0.001587,-0.018456,0.001609,0.000928,-0.002108,0.108981,0.271313,-0.956302
1760109587.507996,-0.136689,0.056721,-0.012016,0.988916,-0.023605,-0.000968,-0.009380,0.001563,0.002455,-0.001718,0.108899,0.271710,-0.956198
1760109587.509768,-0.136919,0.056697,-0.012061,0.988885,-0.026646,-0.004449,-0.005190,0.000677,0.003095,0.000165,0.108831,0.272163,-0.956077
1760109587.546196,-0.137200,0.056633,-0.012075,0.988849,-0.031305,-0.005811,-0.002958,0.001286,0.003819,-0.000985,0.108689,0.272709,-0.955938
1760109587.546534,-0.137513,0.056573,-0.012054,0.988810,-0.030787,-0.008140,-0.002114,0.000842,0.002508,-0.000469,0.108565,0.273312,-0.955779
1760109587.582871,-0.137812,0.056480,-0.012036,0.988773,-0.024959,-0.008830,-0.001608,0.000761,0.000315,-0.000856,0.108374,0.273890,-0.955636
1760109587.587509,-0.138055,0.056377,-0.012032,0.988746,-0.018066,-0.008238,-0.004446,-0.000117,0.000310,-0.000489,0.108162,0.274358,-0.955525
1760109587.617868,-0.138227,0.056285,-0.012057,0.988726,-0.012480,-0.011014,-0.006026,-0.000348,0.004064,-0.000473,0.107967,0.274695,-0.955451
1760109587.646895,-0.138371,0.056190,-0.012076,0.988711,-0.012487,-0.005332,-0.003128,-0.000659,0.006302,-0.001621,0.107770,0.274974,-0.955392
1760109587.648113,-0.138481,0.056129,-0.012062,0.988700,-0.011587,-0.005234,0.000726,-0.000415,0.005702,-0.001287,0.107650,0.275187,-0.955345
1760109587.719210,-0.138526,0.056111,-0.012058,0.988694,-0.004972,-0.003979,-0.002131,-0.000303,0.004609,-0.000256,0.107613,0.275273,-0.955324
1760109587.719552,-0.138570,0.056093,-0.012054,0.988689,0.001644,-0.002723,-0.004988,-0.000192,0.003516,0.000776,0.107577,0.275358,-0.955304
1760109587.719877,-0.138615,0.056075,-0.012050,0.988684,0.008259,-0.001467,-0.007845,-0.000081,0.002423,0.001807,0.107540,0.275444,-0.955283
1760109587.728325,-0.138569,0.056064,-0.012122,0.988690,0.011264,-0.001603,-0.009917,-0.000059,0.002689,0.000771,0.107500,0.275363,-0.955311
1760109587.758653,-0.138510,0.056053,-0.012189,0.988698,0.007578,-0.000743,-0.005057,-0.001784,0.003006,0.001117,0.107462,0.275255,-0.955346
1760109587.787932,-0.138466,0.056013,-0.012230,0.988706,0.005180,-0.006292,-0.004055,-0.003111,0.002168,0.002364,0.107374,0.275174,-0.955380
1760109587.788254,-0.138448,0.055900,-0.012235,0.988715,0.000272,-0.012283,-0.001024,-0.001855,0.002696,0.000221,0.107150,0.275139,-0.955415
1760109587.816851,-0.138479,0.055798,-0.012214,0.988717,-0.000904,-0.007733,0.001693,-0.000999,-0.000239,-0.002073,0.106954,0.275197,-0.955420
1760109587.847530,-0.138531,0.055797,-0.012194,0.988710,-0.002945,0.006526,0.002877,0.000546,0.000332,-0.006050,0.106955,0.275295,-0.955392
1760109587.849628,-0.138636,0.055954,-0.012166,0.988687,-0.012845,0.024720,0.006705,0.000913,0.002268,-0.005812,0.107268,0.275497,-0.955298
1760109587.878103,-0.138811,0.056256,-0.012105,0.988646,-0.018183,0.030354,0.007035,0.000020,0.000026,-0.002346,0.107873,0.275831,-0.955134
1760109587.924226,-0.138936,0.056432,-0.012175,0.988617,-0.016215,0.021236,-0.001040,0.000397,0.001411,-0.001051,0.108195,0.276083,-0.955025
1760109587.924518,-0.139061,0.056608,-0.012245,0.988589,-0.014246,0.012118,-0.009116,0.000774,0.002796,0.000244,0.108518,0.276335,-0.954915
1760109587.927300,-0.139207,0.056708,-0.012338,0.988561,-0.015721,0.010227,-0.007358,0.001001,0.003035,-0.000250,0.108684,0.276628,-0.954811
1760109587.956062,-0.139309,0.056754,-0.012401,0.988543,-0.006647,0.003742,-0.002510,0.000505,0.001388,0.002896,0.108753,0.276834,-0.954744
1760109588.016866,-0.139267,0.056755,-0.012382,0.988550,-0.004439,0.003364,-0.000363,0.000349,0.001224,0.002675,0.108761,0.276750,-0.954767
1760109588.017188,-0.139225,0.056756,-0.012362,0.988556,-0.002231,0.002985,0.001785,0.000194,0.001061,0.002455,0.108770,0.276666,-0.954791
1760109588.017490,-0.139182,0.056756,-0.012343,0.988562,-0.000023,0.002606,0.003932,0.000038,0.000897,0.002234,0.108778,0.276582,-0.954814
1760109588.032107,-0.139128,0.056716,-0.012292,0.988572,0.004866,-0.002789,0.005023,-0.000742,-0.001300,0.002130,0.108716,0.276471,-0.954853
1760109588.062388,-0.138988,0.056627,-0.012259,0.988598,0.018298,-0.007418,-0.004749,0.001987,-0.003730,-0.002288,0.108556,0.276194,-0.954951
1760109588.065834,-0.138849,0.056607,-0.012311,0.988618,0.012800,0.005374,-0.004212,0.002530,-0.001853,-0.004201,0.108506,0.275931,-0.955033
1760109588.096625,-0.138756,0.056705,-0.012339,0.988625,0.004927,0.011449,0.001270,0.001159,-0.000849,-0.001924,0.108695,0.275754,-0.955063
1760109588.154138,-0.138682,0.056795,-0.012406,0.988629,0.004171,0.008638,-0.002531,0.000791,-0.000308,-0.001008,0.108857,0.275619,-0.955083
1760109588.154457,-0.138608,0.056885,-0.012474,0.988634,0.003415,0.005826,-0.006331,0.000424,0.000233,-0.000091,0.109019,0.275483,-0.955104
1760109588.154694,-0.138590,0.056987,-0.012548,0.988629,-0.000657,0.007361,-0.007267,0.000607,0.001155,-0.000410,0.109200,0.275458,-0.955091
1760109588.181826,-0.138600,0.057039,-0.012635,0.988624,-0.003947,0.003789,-0.007700,0.000990,0.002664,-0.000184,0.109279,0.275488,-0.955073
1760109588.183071,-0.138671,0.057085,-0.012705,0.988610,-0.010989,0.004792,-0.003548,0.002067,0.003451,-0.001852,0.109346,0.275634,-0.955023
1760109588.214064,-0.138795,0.057132,-0.012745,0.988590,-0.014925,0.002318,-0.003145,0.001531,0.002961,-0.001584,0.109421,0.275879,-0.954944
1760109588.250451,-0.138953,0.057148,-0.012760,0.988566,-0.015198,-0.000906,-0.002623,0.001671,0.002608,-0.000632,0.109442,0.276187,-0.954852
1760109588.252232,-0.139098,0.057113,-0.012784,0.988548,-0.013093,-0.003113,-0.003536,0.002141,0.002713,-0.002063,0.109361,0.276469,-0.954780
1760109588.316573,-0.139221,0.057135,-0.012802,0.988529,-0.010624,-0.001979,-0.002774,0.001471,0.002039,-0.000809,0.109394,0.276711,-0.954706
1760109588.316917,-0.139345,0.057157,-0.012820,0.988510,-0.008156,-0.000845,-0.002012,0.000801,0.001364,0.000444,0.109427,0.276953,-0.954632
1760109588.317407,-0.139468,0.057179,-0.012839,0.988491,-0.005687,0.000289,-0.001249,0.000132,0.000690,0.001697,0.109460,0.277195,-0.954558
1760109588.346853,-0.139525,0.057173,-0.012878,0.988483,0.001166,0.000489,-0.001546,0.002625,-0.000945,0.000067,0.109436,0.277310,-0.954528
1760109588.348108,-0.139498,0.057178,-0.012909,0.988486,0.009225,0.000527,-0.003995,0.001779,-0.001028,0.002077,0.109437,0.277259,-0.954542
1760109588.379021,-0.139407,0.057141,-0.012935,0.988501,0.010820,-0.004398,-0.002849,0.000683,-0.000424,0.001684,0.109361,0.277085,-0.954602
1760109588.385203,-0.139313,0.057089,-0.012937,0.988517,0.008870,-0.008941,0.002005,-0.000251,0.000396,0.001798,0.109262,0.276904,-0.954665
1760109588.413810,-0.139232,0.056991,-0.012893,0.988534,0.004962,-0.009968,0.003667,-0.000060,-0.000241,-0.000327,0.109086,0.276742,-0.954733
1760109588.444087,-0.139202,0.056898,-0.012828,0.988545,0.001082,-0.008913,0.006331,0.000026,-0.000527,-0.001278,0.108921,0.276674,-0.954771
1760109588.445036,-0.139214,0.056834,-0.012722,0.988548,-0.005111,-0.004534,0.007419,0.000329,-0.001550,-0.001618,0.108823,0.276686,-0.954779
1760109588.476627,-0.139287,0.056800,-0.012650,0.988541,-0.003416,-0.002444,0.002372,-0.000602,-0.003272,0.002011,0.108775,0.276818,-0.954746
1760109588.506181,-0.139317,0.056737,-0.012649,0.988540,-0.001665,-0.003459,-0.002737,0.000559,-0.002942,-0.000071,0.108648,0.276875,-0.954744
1760109588.509629,-0.139349,0.056714,-0.012703,0.988536,-0.003093,-0.000742,-0.006286,0.001000,-0.000746,0.000056,0.108587,0.276943,-0.954731
1760109588.540040,-0.139373,0.056699,-0.012769,0.988533,-0.002769,-0.002292,-0.005239,-0.001203,0.000218,0.000524,0.108537,0.276998,-0.954721
1760109588.545906,-0.139396,0.056630,-0.012851,0.988533,-0.003704,-0.011551,-0.008415,-0.002382,0.001931,0.001027,0.108378,0.277050,-0.954724
1760109588.583822,-0.139446,0.056499,-0.012893,0.988533,-0.006588,-0.011583,-0.001023,0.000033,0.002934,-0.001829,0.108106,0.277150,-0.954726
1760109588.619083,-0.139508,0.056561,-0.012885,0.988520,-0.009363,0.007359,0.001334,0.001675,0.002901,-0.004486,0.108228,0.277271,-0.954677
1760109588.619403,-0.139571,0.056623,-0.012878,0.988508,-0.012138,0.026302,0.003691,0.003317,0.002869,-0.007143,0.108350,0.277392,-0.954628
1760109588.626217,-0.139730,0.056891,-0.012824,0.988471,-0.020584,0.036229,0.009035,0.002000,0.002304,-0.004281,0.108885,0.277698,-0.954478
1760109588.658933,-0.139961,0.057222,-0.012791,0.988419,-0.020112,0.024483,0.003398,-0.000653,0.000287,0.002249,0.109537,0.278144,-0.954273
1760109588.663735,-0.140140,0.057384,-0.012852,0.988384,-0.017863,0.010468,-0.007765,0.000217,0.002414,0.002521,0.109833,0.278500,-0.954135
1760109588.696377,-0.140307,0.057441,-0.012940,0.988356,-0.015161,0.004572,-0.008462,0.000146,0.003905,0.002937,0.109912,0.278833,-0.954029
1760109588.729029,-0.140458,0.057456,-0.012998,0.988333,-0.009400,0.001280,-0.002502,-0.000496,0.003117,0.003886,0.109919,0.279133,-0.953941
1760109588.729341,-0.140511,0.057433,-0.012979,0.988327,0.001555,-0.005444,0.002449,-0.001658,0.002244,0.004981,0.109878,0.279232,-0.953916
1760109588.758370,-0.140444,0.057345,-0.012915,0.988342,0.012298,-0.010368,0.007205,-0.000720,0.000974,0.002163,0.109726,0.279094,-0.953974
1760109588.764819,-0.140350,0.057277,-0.012834,0.988360,0.010853,-0.000566,0.006153,0.000475,0.001401,-0.001765,0.109617,0.278904,-0.954042
1760109588.793776,-0.140268,0.057256,-0.012800,0.988374,0.010296,-0.004592,0.002945,-0.000832,0.000952,-0.000940,0.109590,0.278741,-0.954093
1760109588.822077,-0.140225,0.057221,-0.012807,0.988382,0.011203,-0.007543,-0.000593,-0.000618,-0.001155,-0.001957,0.109520,0.278657,-0.954126
1760109588.823895,-0.140135,0.057188,-0.012923,0.988395,0.010713,0.008055,-0.012651,0.001489,-0.001077,-0.005321,0.109426,0.278496,-0.954183
1760109588.853541,-0.140030,0.057283,-0.013079,0.988402,0.008397,0.016309,-0.009488,0.000986,0.001911,-0.003152,0.109574,0.278311,-0.954220
1760109588.927806,-0.139872,0.057334,-0.013184,0.988420,0.012216,0.008386,-0.010327,0.000338,0.006193,-0.003729,0.109651,0.278016,-0.954298
1760109588.928136,-0.139713,0.057385,-0.013289,0.988439,0.016036,0.000463,-0.011166,-0.000310,0.010475,-0.004306,0.109729,0.277720,-0.954375
1760109588.928443,-0.139554,0.057436,-0.013395,0.988457,0.019855,-0.007459,-0.012005,-0.000958,0.014757,-0.004883,0.109806,0.277425,-0.954452
1760109588.930383,-0.139412,0.057361,-0.013528,0.988479,0.009248,-0.013439,-0.015718,-0.001072,0.027813,-0.015685,0.109629,0.277164,-0.954548
1760109588.944602,-0.139441,0.057205,-0.013690,0.988482,-0.006414,-0.014786,-0.019878,-0.001183,0.043447,-0.024829,0.109274,0.277236,-0.954568
1760109588.974818,-0.139630,0.057003,-0.013804,0.988465,-0.019311,-0.017486,-0.010443,-0.000889,0.060049,-0.032390,0.108835,0.277613,-0.954508
1760109589.004293,-0.139923,0.056827,-0.013819,0.988434,-0.022789,-0.016804,-0.000571,-0.003333,0.073843,-0.035536,0.108472,0.278179,-0.954385
1760109589.004627,-0.140197,0.056557,-0.013780,0.988411,-0.012820,-0.033753,0.001408,-0.007091,0.090266,-0.039027,0.107939,0.278703,-0.954292
1760109589.036448,-0.140412,0.056217,-0.013651,0.988402,-0.012115,-0.025508,0.017888,-0.006516,0.104495,-0.042556,0.107296,0.279102,-0.954248
1760109589.065894,-0.140611,0.056023,-0.013297,0.988389,-0.004397,-0.020306,0.041282,-0.005266,0.107645,-0.030818,0.107006,0.279447,-0.954180
1760109589.066823,-0.140700,0.055889,-0.012830,0.988390,0.013547,-0.019629,0.047025,-0.005724,0.103396,-0.016823,0.106869,0.279568,-0.954160
1760109589.097826,-0.140640,0.055693,-0.012394,0.988415,0.026090,-0.027739,0.039280,-0.006811,0.101899,-0.008639,0.106609,0.279401,-0.954238
1760109589.101631,-0.140520,0.055352,-0.011989,0.988457,0.029725,-0.047502,0.034959,-0.006221,0.102192,-0.009543,0.106056,0.279123,-0.954381
1760109589.142836,-0.140496,0.054851,-0.011591,0.988493,0.018011,-0.051391,0.034141,-0.002928,0.101729,-0.014711,0.105182,0.279030,-0.954505
1760109589.143165,-0.140564,0.054366,-0.011105,0.988515,0.015317,-0.051245,0.052777,-0.001832,0.097387,-0.012644,0.104362,0.279106,-0.954572
1760109589.176555,-0.140536,0.053996,-0.010421,0.988547,0.042779,-0.040370,0.070951,-0.000449,0.078704,-0.003865,0.103827,0.278979,-0.954668
1760109589.183376,-0.140096,0.053709,-0.009691,0.988633,0.095130,-0.025663,0.072880,0.001074,0.056559,0.001889,0.103481,0.278048,-0.954977
1760109589.219899,-0.139169,0.053703,-0.009007,0.988770,0.154167,0.003787,0.079870,0.000761,0.036138,0.016558,0.103692,0.276180,-0.955496
1760109589.254142,-0.137709,0.053849,-0.008470,0.988972,0.218735,0.008697,0.055712,-0.003981,0.024053,0.031961,0.104178,0.273292,-0.956273
1760109589.254412,-0.135799,0.053957,-0.008125,0.989233,0.250816,0.011529,0.052191,-0.004772,0.025476,0.033298,0.104545,0.269550,-0.957295
1760109589.282406,-0.133685,0.054174,-0.007673,0.989512,0.258789,0.016156,0.074380,-0.004244,0.019786,0.041689,0.105159,0.265397,-0.958387
1760109589.284994,-0.131392,0.054461,-0.007079,0.989808,0.273996,0.022660,0.080221,-0.003693,0.004059,0.042178,0.105952,0.260877,-0.959540
1760109589.313282,-0.128783,0.054781,-0.006529,0.990137,0.303550,0.023591,0.072292,-0.001666,-0.009030,0.040517,0.106800,0.255741,-0.960828
1760109589.344132,-0.125855,0.055101,-0.006146,0.990498,0.336043,0.027521,0.050522,-0.001381,-0.016374,0.032012,0.107608,0.249996,-0.962249
1760109589.346171,-0.122651,0.055382,-0.006011,0.990885,0.347818,0.031403,0.026351,-0.000699,-0.009677,0.015316,0.108281,0.243732,-0.963779
1760109589.376297,-0.119460,0.055833,-0.005947,0.991250,0.322695,0.059312,0.041135,-0.000771,-0.002942,0.011112,0.109268,0.237493,-0.965224
1760109589.383342,-0.116435,0.056529,-0.005684,0.991572,0.309129,0.062323,0.064499,-0.004805,-0.011372,0.025489,0.110782,0.231550,-0.966495
1760109589.414105,-0.113313,0.057119,-0.005204,0.991902,0.325034,0.056391,0.079350,-0.002854,-0.027660,0.021353,0.112134,0.225386,-0.967795
1760109589.447765,-0.109919,0.057807,-0.004620,0.992247,0.363018,0.071995,0.088508,0.000584,-0.045550,0.014822,0.113702,0.218668,-0.969152
1760109589.449636,-0.106157,0.058688,-0.004040,0.992608,0.403176,0.089149,0.092159,-0.000069,-0.052140,0.010989,0.115650,0.211218,-0.970573
1760109589.478345,-0.102101,0.059773,-0.003385,0.992971,0.414055,0.122167,0.118175,-0.003242,-0.051242,0.007979,0.118015,0.203170,-0.972005
1760109589.481913,-0.097937,0.061143,-0.002515,0.993309,0.418964,0.131022,0.131515,-0.012114,-0.054876,0.017898,0.120975,0.194871,-0.973340
1760109589.518151,-0.093605,0.062391,-0.001609,0.993651,0.422448,0.105406,0.129399,-0.013845,-0.054793,0.025039,0.123688,0.186222,-0.974691
1760109589.520460,-0.089253,0.063401,-0.000683,0.993989,0.414082,0.085269,0.130046,-0.006223,-0.056223,0.023827,0.125917,0.177520,-0.976028
1760109589.549499,-0.084992,0.064238,0.000230,0.994309,0.409058,0.065526,0.117221,0.000737,-0.062017,0.019587,0.127784,0.168988,-0.977300
1760109589.585146,-0.080814,0.064827,0.000992,0.994618,0.391200,0.055043,0.097176,0.006728,-0.061024,0.005616,0.129116,0.160630,-0.978533
1760109589.586449,-0.076947,0.065390,0.001610,0.994887,0.348058,0.053233,0.084344,0.005304,-0.057603,0.002642,0.130358,0.152897,-0.979607
1760109589.615518,-0.073556,0.065765,0.002092,0.995118,0.293378,0.020338,0.059075,0.002232,-0.049701,-0.000525,0.131196,0.146119,-0.980529
1760109589.623278,-0.070788,0.065854,0.002426,0.995312,0.216228,-0.008526,0.040445,0.002040,-0.045134,-0.005078,0.131433,0.140592,-0.981305
1760109589.653358,-0.068808,0.065784,0.002678,0.995455,0.134031,-0.022928,0.027806,0.003961,-0.045301,-0.007748,0.131339,0.136639,-0.981876
1760109589.683630,-0.067525,0.065611,0.002820,0.995554,0.067000,-0.024229,0.003788,0.007301,-0.045790,-0.006290,0.131019,0.134080,-0.982271
1760109589.683941,-0.066856,0.065362,0.002756,0.995616,0.012489,-0.022473,-0.015221,0.010652,-0.044020,-0.006344,0.130519,0.132765,-0.982516
1760109589.712111,-0.066789,0.065181,0.002618,0.995632,-0.046181,-0.021748,-0.019990,0.007405,-0.038718,-0.000106,0.130142,0.132653,-0.982581
1760109589.743966,-0.067184,0.064884,0.002425,0.995626,-0.086237,-0.035224,-0.039029,0.007359,-0.042764,0.001589,0.129526,0.133466,-0.982553
1760109589.745948,-0.067878,0.064461,0.002115,0.995607,-0.111518,-0.053286,-0.045666,0.009725,-0.048254,0.006638,0.128642,0.134886,-0.982475
1760109589.774363,-0.068680,0.063928,0.001795,0.995587,-0.107308,-0.066898,-0.047481,0.012977,-0.058269,0.009375,0.127539,0.136523,-0.982393
1760109589.816424,-0.069142,0.063151,0.001458,0.995605,-0.077238,-0.078817,-0.045156,0.012693,-0.055120,0.008807,0.125949,0.137492,-0.982463
1760109589.816759,-0.069604,0.062374,0.001121,0.995622,-0.047168,-0.090736,-0.042832,0.012410,-0.051971,0.008236,0.124358,0.138459,-0.982529
1760109589.820352,-0.069684,0.061464,0.000839,0.995673,-0.022512,-0.111258,-0.036590,0.011515,-0.043369,0.008378,0.122512,0.138663,-0.982733
1760109589.852729,-0.069492,0.060507,0.000676,0.995746,-0.015901,-0.104048,-0.016565,0.011621,-0.028587,0.001948,0.120593,0.138311,-0.983020
1760109589.882630,-0.069221,0.059640,0.000725,0.995817,-0.011137,-0.095750,0.004140,0.010159,-0.023661,-0.004599,0.118882,0.137777,-0.983303
1760109589.882953,-0.068860,0.058896,0.000943,0.995886,0.006118,-0.080718,0.019962,0.010588,-0.027883,-0.006254,0.117437,0.137041,-0.983579
1760109589.919019,-0.068281,0.058339,0.001257,0.995958,0.050048,-0.056029,0.024858,0.010668,-0.039769,-0.007686,0.116379,0.135864,-0.983868
1760109589.921281,-0.067224,0.057988,0.001506,0.996050,0.121040,-0.043005,0.017665,0.006828,-0.050244,-0.000797,0.115721,0.133743,-0.984237
1760109589.951375,-0.065498,0.057710,0.001504,0.996181,0.194488,-0.035387,-0.009181,0.005716,-0.045889,0.001069,0.115177,0.130321,-0.984759
1760109589.980846,-0.063226,0.057456,0.001301,0.996343,0.223870,-0.025656,-0.012773,0.006075,-0.028756,-0.002744,0.114655,0.125840,-0.985403
1760109589.982465,-0.060858,0.057390,0.001079,0.996495,0.213210,-0.011014,-0.007695,0.001479,-0.014761,0.000312,0.114509,0.121166,-0.986005
1760109590.012035,-0.058629,0.057366,0.000935,0.996630,0.185190,-0.010933,-0.004823,0.001957,-0.009691,-0.004651,0.114454,0.116756,-0.986544
1760109590.042762,-0.056631,0.057358,0.000844,0.996746,0.165559,0.000188,0.002150,0.005140,-0.013264,-0.008413,0.114438,0.112796,-0.987006
1760109590.043761,-0.054853,0.057496,0.000742,0.996837,0.166481,0.021508,-0.003437,0.008165,-0.019293,-0.010638,0.114710,0.109274,-0.987371
1760109590.073916,-0.053132,0.057812,0.000556,0.996912,0.172200,0.035969,-0.009400,0.004556,-0.020003,-0.007076,0.115327,0.105871,-0.987669
1760109590.116683,-0.051369,0.058198,0.000256,0.996983,0.172781,0.032341,-0.015396,0.001748,-0.013926,-0.003625,0.116070,0.102398,-0.987949
1760109590.116972,-0.049606,0.058583,-0.000043,0.997049,0.173363,0.028713,-0.021392,-0.001061,-0.007849,-0.000187,0.116815,0.098924,-0.988215
1760109590.119222,-0.047887,0.058931,-0.000341,0.997113,0.156480,0.030314,-0.016819,-0.002253,-0.003237,-0.001210,0.117490,0.095538,-0.988468
1760109590.148495,-0.046339,0.059254,-0.000615,0.997167,0.140626,0.029535,-0.015614,-0.001999,-0.001736,-0.002352,0.118115,0.092487,-0.988683
1760109590.174911,-0.044981,0.059601,-0.000847,0.997208,0.122909,0.036817,-0.015595,-0.002989,-0.001264,-0.004257,0.118793,0.089811,-0.988849
1760109590.204959,-0.043809,0.059926,-0.001055,0.997240,0.105409,0.036769,-0.010975,-0.004427,0.002923,-0.006212,0.119429,0.087502,-0.988979
1760109590.214722,-0.042865,0.060239,-0.001167,0.997262,0.086103,0.030939,0.000504,-0.004867,0.003081,-0.006418,0.120048,0.085635,-0.989068
1760109590.252876,-0.042212,0.060520,-0.001182,0.997273,0.070789,0.030989,0.003551,-0.006174,0.002393,-0.005531,0.120611,0.084337,-0.989111
1760109590.253214,-0.041560,0.060802,-0.001198,0.997283,0.055475,0.031039,0.006597,-0.007481,0.001705,-0.004647,0.121173,0.083040,-0.989152
1760109590.284911,-0.041124,0.061070,-0.001164,0.997285,0.039653,0.029833,0.010655,-0.007014,0.000671,-0.003692,0.121712,0.082168,-0.989159
1760109590.285262,-0.040811,0.061353,-0.001097,0.997281,0.022337,0.037835,0.010850,-0.005493,0.001691,-0.008519,0.122283,0.081534,-0.989141
1760109590.315349,-0.040725,0.061752,-0.000982,0.997260,-0.004300,0.048449,0.020736,-0.007847,0.003493,-0.005930,0.123086,0.081348,-0.989056
1760109590.322098,-0.040856,0.062120,-0.000800,0.997232,-0.018980,0.032716,0.014803,-0.010956,0.000732,0.001511,0.123830,0.081584,-0.988944
1760109590.352122,-0.041094,0.062291,-0.000682,0.997211,-0.032217,0.022198,0.002762,-0.008492,0.000376,0.003858,0.124179,0.082045,-0.988862
1760109590.381653,-0.041481,0.062313,-0.000639,0.997194,-0.043799,0.000212,-0.005322,-0.006214,0.003500,0.002979,0.124223,0.082810,-0.988793
1760109590.381972,-0.041998,0.062259,-0.000690,0.997176,-0.054702,0.002830,-0.010708,-0.004877,0.006328,-0.000919,0.124109,0.083845,-0.988720
1760109590.417782,-0.042620,0.062186,-0.000784,0.997154,-0.061840,0.001121,-0.014805,-0.004612,0.006031,-0.003640,0.123952,0.085094,-0.988633
1760109590.420185,-0.043225,0.062137,-0.000886,0.997131,-0.060955,0.003078,-0.015882,-0.003686,0.005178,-0.003114,0.123840,0.086313,-0.988541
1760109590.449532,-0.043810,0.062091,-0.001005,0.997108,-0.053968,0.009027,-0.013712,-0.002033,0.005363,-0.001849,0.123735,0.087491,-0.988451
1760109590.480145,-0.044326,0.062104,-0.001112,0.997084,-0.044480,0.006022,-0.008908,-0.004255,0.006832,0.002148,0.123746,0.088532,-0.988357
1760109590.482186,-0.044765,0.062119,-0.001181,0.997064,-0.032791,-0.001570,-0.005590,-0.004450,0.008093,0.005435,0.123768,0.089414,-0.988275
1760109590.510949,-0.045062,0.062054,-0.001230,0.997054,-0.019782,0.001221,-0.006029,0.000649,0.007767,-0.001578,0.123632,0.090012,-0.988237
1760109590.542354,-0.045218,0.062131,-0.001234,0.997042,-0.004291,0.019251,0.010892,0.002130,0.010584,-0.004271,0.123783,0.090321,-0.988190
1760109590.545852,-0.045168,0.062441,-0.001004,0.997026,0.021920,0.039422,0.041104,-0.003207,0.011177,0.000679,0.124419,0.090192,-0.988122
1760109590.576006,-0.044767,0.062902,-0.000488,0.997015,0.062631,0.051131,0.074518,-0.007230,0.012091,0.008412,0.125384,0.089328,-0.988079
1760109590.606278,-0.043944,0.063392,0.000346,0.997021,0.101791,0.050741,0.106677,-0.007982,0.011254,0.004946,0.126437,0.087583,-0.988101
1760109590.606531,-0.042831,0.064052,0.001425,0.997026,0.122481,0.070996,0.125306,-0.007080,0.006312,0.003685,0.127846,0.085224,-0.988126
1760109590.634297,-0.041567,0.064757,0.002548,0.997032,0.133116,0.064668,0.117545,-0.005062,0.000218,0.004633,0.129341,0.082558,-0.988157
1760109590.641371,-0.040380,0.065326,0.003437,0.997041,0.114059,0.053003,0.086265,-0.001142,0.000347,-0.001497,0.130543,0.080072,-0.988204
1760109590.672661,-0.039562,0.065827,0.004031,0.997038,0.064338,0.062392,0.050718,0.005137,-0.000282,-0.013811,0.131584,0.078360,-0.988203
1760109590.720113,-0.039623,0.066547,0.003997,0.996988,0.013140,0.073399,0.004416,0.006822,-0.004282,-0.016427,0.133011,0.078476,-0.988003
1760109590.720497,-0.039684,0.067267,0.003963,0.996938,-0.038057,0.084406,-0.041885,0.008508,-0.008283,-0.019045,0.134437,0.078591,-0.987801
1760109590.722785,-0.040234,0.068126,0.003461,0.996859,-0.068023,0.101880,-0.071460,0.008877,-0.010071,-0.019501,0.136103,0.079743,-0.987480
1760109590.752076,-0.041025,0.069175,0.002682,0.996757,-0.076714,0.113106,-0.089008,0.007729,-0.011709,-0.010145,0.138121,0.081414,-0.987064
1760109590.782585,-0.041794,0.070298,0.001708,0.996649,-0.077360,0.110439,-0.105400,0.006430,-0.008625,0.001497,0.140267,0.083068,-0.986623
1760109590.784628,-0.042555,0.071272,0.000648,0.996549,-0.080386,0.098934,-0.107217,0.007643,-0.005245,0.008385,0.142106,0.084725,-0.986219
1760109590.813217,-0.043342,0.072161,-0.000413,0.996451,-0.082894,0.082996,-0.106540,0.008144,-0.002682,0.012987,0.143774,0.086436,-0.985829
1760109590.823389,-0.044115,0.072837,-0.001431,0.996367,-0.080382,0.063929,-0.104186,0.008302,-0.002769,0.012745,0.145019,0.088118,-0.985497
1760109590.853205,-0.044816,0.073351,-0.002422,0.996296,-0.067173,0.044661,-0.103634,0.007168,-0.001915,0.009190,0.145942,0.089655,-0.985222
1760109590.882865,-0.045394,0.073664,-0.003394,0.996244,-0.048739,0.024785,-0.097848,0.007770,-0.000982,0.003464,0.146465,0.090946,-0.985026
1760109590.883252,-0.045798,0.073844,-0.004264,0.996208,-0.027703,0.007319,-0.081919,0.006881,0.002600,0.002136,0.146738,0.091879,-0.984899
1760109590.922440,-0.046025,0.073900,-0.004950,0.996191,-0.013356,-0.004876,-0.058362,0.006238,0.006827,0.001487,0.146780,0.092430,-0.984841
1760109590.923963,-0.046115,0.073787,-0.005419,0.996193,-0.006109,-0.019505,-0.036514,0.005602,0.010810,0.000610,0.146511,0.092679,-0.984858
1760109590.952224,-0.046163,0.073611,-0.005647,0.996202,-0.005576,-0.025720,-0.012622,0.005749,0.010069,0.002347,0.146141,0.092807,-0.984901
1760109590.983189,-0.046196,0.073350,-0.005660,0.996220,0.000046,-0.041309,0.002442,0.002088,0.007154,0.007171,0.145622,0.092873,-0.984971
1760109590.985059,-0.046197,0.072886,-0.005584,0.996254,0.005188,-0.059287,0.012324,0.002602,0.006106,0.006691,0.144709,0.092862,-0.985107
1760109591.017849,-0.046184,0.072231,-0.005382,0.996304,0.013857,-0.079289,0.021116,0.002287,0.002497,0.007091,0.143430,0.092804,-0.985300
1760109591.019868,-0.046064,0.071432,-0.005117,0.996368,0.024789,-0.094440,0.025674,0.000827,-0.001175,0.006197,0.141874,0.092525,-0.985551
1760109591.048271,-0.045790,0.070500,-0.004825,0.996449,0.038694,-0.099908,0.031607,0.001066,-0.001632,0.003148,0.140058,0.091935,-0.985866
1760109591.078845,-0.045404,0.069642,-0.004467,0.996528,0.047444,-0.091303,0.037451,0.002881,-0.001866,0.000061,0.138394,0.091115,-0.986177
1760109591.080164,-0.044902,0.068862,-0.004084,0.996607,0.054274,-0.077029,0.038444,0.004616,-0.001332,-0.006475,0.136890,0.090061,-0.986484
1760109591.110310,-0.044378,0.068271,-0.003698,0.996672,0.054517,-0.059911,0.041631,0.002906,0.000581,-0.004289,0.135760,0.088966,-0.986739
1760109591.119529,-0.043781,0.067709,-0.003263,0.996739,0.064328,-0.067514,0.042911,-0.002934,0.002949,0.005964,0.134691,0.087717,-0.986997
1760109591.148111,-0.043062,0.066918,-0.002850,0.996825,0.077478,-0.100012,0.033990,-0.002872,0.006038,0.006590,0.133166,0.086232,-0.987335
1760109591.177978,-0.042319,0.065851,-0.002554,0.996928,0.071947,-0.123043,0.030264,-0.001716,0.014582,0.006589,0.131081,0.084715,-0.987745
1760109591.178808,-0.041720,0.064646,-0.002217,0.997033,0.051932,-0.126307,0.035613,-0.000077,0.019877,-0.000026,0.128723,0.083480,-0.988161
1760109591.209070,-0.041342,0.063452,-0.001736,0.997127,0.031265,-0.117626,0.056627,-0.002156,0.017455,-0.003281,0.126395,0.082666,-0.988529
1760109591.238329,-0.041084,0.062351,-0.001089,0.997208,0.028545,-0.113158,0.060919,-0.005367,0.011066,-0.008735,0.124264,0.082075,-0.988849
1760109591.242284,-0.040923,0.061408,-0.000416,0.997273,0.016825,-0.086162,0.067006,-0.004878,0.007048,-0.010608,0.122448,0.081674,-0.989109
1760109591.272279,-0.040927,0.060730,0.000253,0.997315,0.002580,-0.066132,0.060958,-0.006419,-0.001153,-0.010631,0.121155,0.081602,-0.989274
1760109591.316466,-0.041057,0.060366,0.000626,0.997331,-0.000835,-0.041320,0.030689,-0.004534,-0.006966,-0.011800,0.120460,0.081820,-0.989341
1760109591.316894,-0.041188,0.060001,0.000999,0.997348,-0.004250,-0.016507,0.000421,-0.002649,-0.012778,-0.012970,0.119766,0.082038,-0.989407
1760109591.319168,-0.041361,0.059946,0.000950,0.997344,-0.016092,0.014929,-0.017631,-0.003130,-0.010217,-0.006953,0.119653,0.082389,-0.989391
1760109591.350187,-0.041586,0.060056,0.000688,0.997328,-0.022922,0.013651,-0.034787,-0.009123,-0.005971,0.002076,0.119848,0.082868,-0.989328
1760109591.380747,-0.041762,0.060014,0.000283,0.997323,-0.023459,-0.000390,-0.042063,-0.006746,-0.000512,0.000934,0.119731,0.083267,-0.989308
1760109591.381080,-0.041977,0.059948,-0.000056,0.997319,-0.031513,0.002964,-0.025479,-0.002169,0.003932,-0.003824,0.119570,0.083735,-0.989288
1760109591.411938,-0.042246,0.060012,-0.000201,0.997303,-0.032334,0.009510,-0.010695,-0.002305,0.003774,-0.003491,0.119684,0.084289,-0.989228
1760109591.478451,-0.042421,0.060072,-0.000125,0.997292,-0.025017,0.009136,-0.004756,-0.001666,0.002473,-0.002672,0.119807,0.084627,-0.989184
1760109591.478759,-0.042595,0.060131,-0.000049,0.997281,-0.017700,0.008762,0.001182,-0.001027,0.001171,-0.001853,0.119930,0.084965,-0.989140
1760109591.479080,-0.042770,0.060190,0.000026,0.997270,-0.010382,0.008388,0.007121,-0.000388,-0.000131,-0.001034,0.120053,0.085302,-0.989096
1760109591.479474,-0.042899,0.060258,0.000135,0.997261,-0.010668,0.012171,0.005389,0.001140,-0.002494,-0.003916,0.120198,0.085547,-0.989057
1760109591.498499,-0.043008,0.060392,0.000196,0.997248,-0.013162,0.015129,0.005392,-0.000060,-0.003162,-0.003563,0.120469,0.085756,-0.989006
1760109591.532302,-0.043106,0.060556,0.000215,0.997234,-0.006512,0.016628,-0.002360,-0.000377,-0.004402,-0.001431,0.120795,0.085948,-0.988950
1760109591.538550,-0.043126,0.060740,0.000174,0.997222,-0.002342,0.026593,0.001114,0.000857,-0.003673,-0.002127,0.121156,0.085991,-0.988902
1760109591.566566,-0.043095,0.060990,0.000193,0.997208,0.004570,0.024563,0.002275,-0.000176,-0.004022,0.000443,0.121656,0.085926,-0.988846
1760109591.595564,-0.043044,0.061271,0.000201,0.997193,0.003801,0.027992,0.000995,0.001567,-0.003775,-0.001471,0.122215,0.085822,-0.988786
1760109591.596651,-0.042999,0.061575,0.000193,0.997176,-0.002285,0.033017,-0.000480,0.001268,-0.004462,-0.003110,0.122818,0.085731,-0.988719
1760109591.626735,-0.043042,0.061924,0.000144,0.997152,-0.011361,0.031761,-0.006861,0.001194,-0.003636,-0.001652,0.123508,0.085820,-0.988626
1760109591.657573,-0.043223,0.062282,0.000009,0.997122,-0.025249,0.041373,-0.018899,0.002528,-0.005397,-0.004401,0.124207,0.086196,-0.988505
1760109591.659662,-0.043481,0.062668,-0.000231,0.997087,-0.030625,0.040470,-0.030380,0.001475,-0.004393,-0.002504,0.124951,0.086737,-0.988364
1760109591.700236,-0.043797,0.063087,-0.000584,0.997046,-0.036011,0.044612,-0.037492,0.001728,-0.001694,-0.000495,0.125750,0.087409,-0.988204
1760109591.701493,-0.044165,0.063505,-0.000980,0.997003,-0.037719,0.044815,-0.040509,0.002044,0.000559,0.001546,0.126542,0.088191,-0.988033
1760109591.733521,-0.044526,0.063893,-0.001361,0.996962,-0.036128,0.040002,-0.036800,0.000906,0.002133,0.002394,0.127277,0.088955,-0.987870
1760109591.735331,-0.044820,0.064263,-0.001729,0.996925,-0.030184,0.040982,-0.037027,0.002385,0.003552,-0.001653,0.127976,0.089586,-0.987723
1760109591.774054,-0.045069,0.064652,-0.002096,0.996887,-0.024579,0.032619,-0.033041,-0.001304,0.005839,0.003013,0.128713,0.090129,-0.987578
1760109591.775132,-0.045296,0.064807,-0.002399,0.996866,-0.020705,0.006429,-0.030376,-0.001439,0.007752,0.005914,0.128991,0.090620,-0.987497
1760109591.810211,-0.045523,0.064831,-0.002625,0.996854,-0.020743,-0.002655,-0.017603,0.000818,0.008573,0.007066,0.129016,0.091101,-0.987449
1760109591.817059,-0.045669,0.064680,-0.002661,0.996857,-0.004518,-0.025360,0.001595,0.000816,0.006908,0.007384,0.128711,0.091395,-0.987462
1760109591.846856,-0.045639,0.064378,-0.002568,0.996878,0.016014,-0.029641,0.014351,0.006401,0.006173,0.000746,0.128120,0.091324,-0.987545
1760109591.877315,-0.045455,0.064072,-0.002336,0.996907,0.020499,-0.028330,0.029748,0.006822,0.008986,-0.001919,0.127536,0.090929,-0.987657
1760109591.877627,-0.045313,0.063826,-0.001907,0.996930,0.018108,-0.027835,0.046638,0.005529,0.007051,0.000318,0.127087,0.090591,-0.987746
1760109591.905568,-0.045132,0.063563,-0.001510,0.996956,0.027915,-0.037527,0.032983,0.005747,0.002088,0.002257,0.126603,0.090180,-0.987846
1760109591.938000,-0.044833,0.063186,-0.001297,0.996993,0.036169,-0.040945,0.012811,0.008598,0.001930,0.002134,0.125876,0.089560,-0.987995
1760109591.938294,-0.044508,0.062838,-0.001249,0.997030,0.039796,-0.041262,0.000371,0.006907,0.002706,0.004749,0.125192,0.088909,-0.988141
1760109591.968797,-0.044193,0.062420,-0.001313,0.997070,0.040780,-0.049867,-0.010752,0.002629,0.003123,0.005882,0.124358,0.088291,-0.988302
1760109591.998938,-0.043848,0.061899,-0.001449,0.997118,0.038786,-0.059964,-0.015747,0.001996,0.005737,0.003574,0.123313,0.087622,-0.988492
1760109591.999964,-0.043529,0.061358,-0.001574,0.997165,0.030496,-0.056877,-0.005193,0.001012,0.008858,-0.005513,0.122232,0.087005,-0.988681
1760109592.033771,-0.043319,0.060954,-0.001508,0.997199,0.018776,-0.038968,0.014866,-0.000761,0.006436,-0.005421,0.121436,0.086578,-0.988816
1760109592.035842,-0.043170,0.060615,-0.001317,0.997226,0.013041,-0.037653,0.019931,-0.005204,0.003898,-0.003849,0.120779,0.086261,-0.988924
1760109592.072079,-0.043053,0.060196,-0.001046,0.997257,0.016154,-0.039929,0.025204,-0.001542,0.001626,-0.007783,0.119971,0.085995,-0.989046
1760109592.072834,-0.043005,0.059953,-0.000814,0.997274,0.004709,-0.018105,0.024617,-0.000417,0.002052,-0.007801,0.119509,0.085873,-0.989112
1760109592.104323,-0.043085,0.059885,-0.000530,0.997275,-0.015829,0.005307,0.026072,-0.002848,-0.000710,-0.006524,0.119398,0.085999,-0.989115
1760109592.144972,-0.043285,0.059914,-0.000300,0.997265,-0.013296,0.005514,0.014427,-0.003445,-0.006310,-0.002305,0.119475,0.086368,-0.989074
1760109592.146795,-0.043461,0.059991,-0.000204,0.997252,-0.011938,0.008594,0.004096,-0.003795,-0.009315,0.001432,0.119635,0.086708,-0.989024
1760109592.199289,-0.043541,0.060113,-0.000253,0.997241,-0.005431,0.016036,-0.012545,-0.003063,-0.008719,-0.004339,0.119873,0.086873,-0.988981
1760109592.199442,-0.043579,0.060279,-0.000429,0.997230,-0.001503,0.023703,-0.018809,-0.002607,-0.005941,-0.002236,0.120187,0.086968,-0.988935
1760109592.210920,-0.043562,0.060477,-0.000655,0.997218,-0.001505,0.021616,-0.022441,-0.001595,-0.002811,-0.002212,0.120560,0.086961,-0.988890
1760109592.216593,-0.043580,0.060708,-0.000877,0.997203,-0.007683,0.027518,-0.020425,-0.000825,-0.003287,-0.003113,0.121000,0.087023,-0.988831
1760109592.246716,-0.043656,0.060952,-0.001124,0.997185,-0.016131,0.029115,-0.025193,0.000742,-0.003865,-0.003104,0.121463,0.087204,-0.988758
1760109592.258875,-0.043865,0.061251,-0.001486,0.997157,-0.024434,0.032694,-0.039081,-0.001681,-0.001429,0.000025,0.122024,0.087663,-0.988648
1760109592.289149,-0.044179,0.061534,-0.001973,0.997125,-0.036498,0.040230,-0.053886,-0.001319,-0.000044,-0.003315,0.122541,0.088346,-0.988524
1760109592.318893,-0.044565,0.061895,-0.002505,0.997084,-0.036553,0.040014,-0.060148,-0.000738,-0.001522,-0.001326,0.123205,0.089180,-0.988366
1760109592.319240,-0.044887,0.062162,-0.003109,0.997051,-0.026662,0.031144,-0.062897,-0.001478,0.000616,-0.000040,0.123679,0.089896,-0.988242
1760109592.372726,-0.045052,0.062443,-0.003570,0.997025,-0.014529,0.028189,-0.045221,-0.003098,0.004562,0.000327,0.124193,0.090281,-0.988142
1760109592.373102,-0.045216,0.062724,-0.004031,0.996998,-0.002396,0.025234,-0.027545,-0.004716,0.008507,0.000694,0.124707,0.090667,-0.988042
1760109592.374536,-0.045189,0.062943,-0.004197,0.996985,0.007775,0.026506,0.003295,-0.002203,0.009599,-0.001978,0.125126,0.090634,-0.987992
1760109592.406094,-0.045034,0.063191,-0.004063,0.996977,0.020675,0.022185,0.024236,-0.000743,0.006790,0.000341,0.125633,0.090310,-0.987958
1760109592.436362,-0.044781,0.063378,-0.003815,0.996977,0.032031,0.026202,0.018453,0.003469,-0.000729,-0.002454,0.126031,0.089776,-0.987956
1760109592.436780,-0.044440,0.063575,-0.003770,0.996980,0.047529,0.013966,0.000419,0.004461,-0.000838,0.004845,0.126431,0.089090,-0.987967
1760109592.465020,-0.044020,0.063673,-0.003907,0.996992,0.048055,0.011032,-0.013943,0.004194,0.000984,0.003699,0.126619,0.088274,-0.988016
1760109592.495480,-0.043615,0.063747,-0.004130,0.997004,0.046708,0.015321,-0.017757,0.001976,0.003251,0.000857,0.126752,0.087496,-0.988068
1760109592.497354,-0.043148,0.063816,-0.004288,0.997019,0.051232,-0.006640,-0.007045,-0.003411,0.005396,0.003685,0.126881,0.086587,-0.988132
1760109592.527946,-0.042694,0.063760,-0.004319,0.997042,0.045241,-0.012724,0.006273,-0.002149,0.007868,0.002998,0.126775,0.085687,-0.988224
1760109592.557352,-0.042282,0.063590,-0.004179,0.997071,0.036775,-0.016275,0.027816,-0.000887,0.005293,0.000441,0.126455,0.084847,-0.988337
1760109592.558848,-0.041973,0.063507,-0.003831,0.997091,0.031161,-0.010210,0.039379,0.001455,0.000075,-0.002303,0.126323,0.084188,-0.988410
1760109592.588611,-0.041667,0.063459,-0.003408,0.997108,0.028026,0.000826,0.043385,0.000844,-0.002415,-0.003573,0.126266,0.083526,-0.988474
1760109592.594781,-0.041448,0.063512,-0.002950,0.997116,0.016884,0.007905,0.047892,0.000633,-0.002382,-0.002264,0.126413,0.083032,-0.988497
1760109592.624909,-0.041371,0.063604,-0.002521,0.997114,0.007610,0.002675,0.037276,-0.001565,-0.005633,-0.000505,0.126632,0.082824,-0.988486
1760109592.675636,-0.041409,0.063637,-0.002345,0.997111,-0.004952,0.003299,0.019399,-0.000115,-0.005650,-0.001578,0.126712,0.082876,-0.988471
1760109592.676296,-0.041446,0.063670,-0.002170,0.997108,-0.017514,0.003923,0.001523,0.001335,-0.005667,-0.002650,0.126792,0.082929,-0.988457
1760109592.676570,-0.041615,0.063741,-0.002212,0.997096,-0.022128,0.004697,-0.009269,-0.001084,-0.005332,-0.000576,0.126928,0.083270,-0.988410
1760109592.703747,-0.041822,0.063768,-0.002361,0.997085,-0.018359,-0.000148,-0.020515,-0.001936,-0.005153,0.002015,0.126968,0.083701,-0.988369
1760109592.735695,-0.041963,0.063707,-0.002566,0.997083,-0.015955,-0.008607,-0.017900,-0.000500,-0.001636,-0.000110,0.126827,0.084008,-0.988361
1760109592.738016,-0.042139,0.063673,-0.002720,0.997077,-0.027904,0.006381,-0.007947,0.001469,0.004308,-0.004983,0.126745,0.084377,-0.988340
1760109592.767391,-0.042420,0.063739,-0.002736,0.997061,-0.038676,0.004223,0.003111,-0.001140,0.001384,-0.001288,0.126872,0.084939,-0.988276
1760109592.774971,-0.042763,0.063777,-0.002656,0.997044,-0.033201,0.000044,0.001256,-0.002210,-0.004251,0.002428,0.126950,0.085612,-0.988208
1760109592.810955,-0.042998,0.063790,-0.002689,0.997033,-0.024024,0.008069,-0.009449,0.003313,-0.004438,-0.004299,0.126970,0.086084,-0.988164
1760109592.811649,-0.043246,0.063927,-0.002777,0.997013,-0.025411,0.017762,-0.005882,0.001904,-0.001312,-0.004009,0.127232,0.086590,-0.988086
1760109592.843097,-0.043541,0.064148,-0.002846,0.996986,-0.027000,0.019025,-0.008663,-0.000343,-0.000022,-0.000936,0.127662,0.087184,-0.987978
1760109592.872428,-0.043750,0.064301,-0.002961,0.996967,-0.019864,0.015633,-0.011254,0.000236,-0.000690,0.001569,0.127954,0.087615,-0.987903
1760109592.873897,-0.043882,0.064447,-0.003090,0.996951,-0.011623,0.011511,-0.009439,0.002288,0.000865,-0.001073,0.128229,0.087895,-0.987842
1760109592.903715,-0.043919,0.064613,-0.003198,0.996938,0.000683,0.017642,-0.008910,0.002730,-0.001171,-0.001479,0.128549,0.087982,-0.987793
1760109592.934646,-0.043864,0.064772,-0.003292,0.996930,0.007598,0.012682,-0.007809,0.001147,0.001323,-0.000836,0.128858,0.087884,-0.987761
1760109592.937311,-0.043764,0.064897,-0.003352,0.996926,0.011045,0.009832,-0.003798,0.002140,0.001376,0.000639,0.129102,0.087695,-0.987746
1760109592.974239,-0.043651,0.064967,-0.003404,0.996926,0.011165,0.005940,-0.006322,0.000780,0.002490,0.002327,0.129236,0.087477,-0.987748
1760109592.976086,-0.043549,0.065041,-0.003470,0.996926,0.005271,0.007163,-0.007817,0.000654,0.005017,0.001427,0.129381,0.087281,-0.987746
1760109593.004764,-0.043550,0.065040,-0.003512,0.996926,-0.000418,-0.002890,-0.001487,0.000892,0.006004,0.000703,0.129373,0.087290,-0.987746
1760109593.036851,-0.043617,0.065022,-0.003483,0.996924,-0.004964,-0.002467,0.004748,0.000150,0.004678,0.002225,0.129340,0.087419,-0.987739
1760109593.037717,-0.043711,0.064956,-0.003421,0.996924,-0.005228,-0.006138,0.005060,-0.000268,0.002746,0.000844,0.129214,0.087598,-0.987740
1760109593.068077,-0.043782,0.064910,-0.003356,0.996925,-0.003600,-0.006197,0.006486,0.000043,0.001069,0.000712,0.129127,0.087731,-0.987740
1760109593.072659,-0.043823,0.064834,-0.003260,0.996928,-0.000496,-0.008332,0.006143,-0.000256,-0.000312,0.000687,0.128984,0.087799,-0.987752
1760109593.101329,-0.043845,0.064775,-0.003224,0.996931,-0.000090,-0.001509,0.001112,0.000032,-0.000677,-0.001551,0.128870,0.087838,-0.987764
1760109593.156847,-0.043900,0.064788,-0.003287,0.996928,-0.002615,0.003974,-0.002548,0.000060,-0.000713,-0.001774,0.128889,0.087956,-0.987751
1760109593.157211,-0.043955,0.064801,-0.003350,0.996924,-0.005139,0.009457,-0.006209,0.000089,-0.000749,-0.001998,0.128909,0.088073,-0.987738
1760109593.157702,-0.044003,0.064916,-0.003442,0.996914,-0.001673,0.018733,-0.013590,0.000488,-0.002087,-0.001911,0.129128,0.088181,-0.987699
1760109593.188114,-0.044014,0.065150,-0.003611,0.996898,0.004252,0.022212,-0.022254,0.001140,-0.002519,-0.000641,0.129578,0.088225,-0.987637
1760109593.192682,-0.043979,0.065435,-0.003910,0.996880,0.003165,0.033176,-0.031556,0.002309,-0.001735,-0.004931,0.130118,0.088195,-0.987568
1760109593.220763,-0.043954,0.065796,-0.004250,0.996855,0.007649,0.039547,-0.031509,-0.001357,-0.002731,-0.000409,0.130805,0.088191,-0.987478
1760109593.275337,-0.043856,0.066139,-0.004690,0.996835,0.011203,0.037123,-0.039136,-0.001987,-0.001074,-0.000435,0.131449,0.088055,-0.987404
1760109593.275677,-0.043758,0.066482,-0.005130,0.996814,0.014756,0.034699,-0.046764,-0.002617,0.000583,-0.000462,0.132092,0.087919,-0.987331
1760109593.275922,-0.043648,0.066883,-0.005565,0.996790,0.011116,0.045417,-0.042243,-0.001880,-0.000026,-0.002043,0.132850,0.087760,-0.987243
1760109593.307808,-0.043529,0.067303,-0.006033,0.996764,0.009622,0.046270,-0.038074,-0.001330,0.003992,-0.001861,0.133646,0.087588,-0.987151
1760109593.312498,-0.043549,0.067724,-0.006301,0.996733,-0.007730,0.047197,-0.007229,0.001933,0.008474,-0.002707,0.134457,0.087667,-0.987034
1760109593.347004,-0.043728,0.068249,-0.006267,0.996690,-0.029070,0.053504,0.015774,0.000689,0.006735,-0.002406,0.135498,0.088021,-0.986860
1760109593.377337,-0.044037,0.068731,-0.006108,0.996644,-0.031494,0.043164,0.011944,0.000913,-0.001652,-0.000122,0.136463,0.088617,-0.986674
1760109593.377655,-0.044382,0.069044,-0.006052,0.996608,-0.033447,0.029784,-0.002478,0.004226,-0.002851,0.001917,0.137081,0.089298,-0.986527
1760109593.405509,-0.044771,0.069284,-0.006157,0.996573,-0.037907,0.025394,-0.015906,0.007064,-0.003813,0.002632,0.137542,0.090089,-0.986391
1760109593.413310,-0.045184,0.069508,-0.006351,0.996537,-0.034560,0.017209,-0.025289,0.005908,-0.005282,0.004341,0.137960,0.090937,-0.986254
1760109593.443516,-0.045508,0.069605,-0.006627,0.996514,-0.022594,0.005959,-0.030407,0.003128,-0.005257,0.004784,0.138121,0.091621,-0.986168
1760109593.481431,-0.045668,0.069575,-0.006906,0.996507,-0.012765,-0.010813,-0.024439,0.002492,0.000396,0.001561,0.138033,0.091978,-0.986148
1760109593.481709,-0.045793,0.069542,-0.007039,0.996503,-0.020549,-0.009022,-0.002522,0.002979,0.004767,0.004570,0.137952,0.092244,-0.986134
1760109593.512852,-0.045955,0.069414,-0.006992,0.996504,-0.020062,-0.020510,0.009922,-0.000608,0.001660,0.003446,0.137700,0.092559,-0.986140
1760109593.513645,-0.046055,0.069122,-0.006802,0.996521,-0.010621,-0.034046,0.017362,0.003680,-0.000392,-0.001889,0.137137,0.092729,-0.986202
1760109593.572674,-0.046160,0.068932,-0.006620,0.996531,-0.012818,-0.025372,0.020238,0.002172,-0.000273,-0.002276,0.136774,0.092912,-0.986235
1760109593.573072,-0.046265,0.068742,-0.006438,0.996540,-0.015016,-0.016698,0.023115,0.000664,-0.000155,-0.002664,0.136412,0.093095,-0.986268
1760109593.573673,-0.046367,0.068544,-0.006231,0.996551,-0.001892,-0.026214,0.008032,-0.001725,-0.005695,0.004459,0.136037,0.093269,-0.986304
1760109593.606358,-0.046341,0.068238,-0.006177,0.996573,0.007595,-0.033857,0.001396,0.001379,-0.003830,0.001008,0.135435,0.093207,-0.986392
1760109593.611087,-0.046252,0.067993,-0.006168,0.996594,0.005052,-0.015972,-0.003467,0.001702,-0.001015,-0.004450,0.134951,0.093028,-0.986475
1760109593.639370,-0.046230,0.067854,-0.006164,0.996605,-0.002727,-0.011090,0.001894,-0.000800,0.001473,-0.002041,0.134678,0.092982,-0.986517
1760109593.670341,-0.046237,0.067736,-0.006142,0.996612,-0.006308,-0.013387,0.001146,-0.001414,0.001263,-0.001129,0.134445,0.092992,-0.986548
1760109593.672288,-0.046271,0.067603,-0.006148,0.996620,-0.006713,-0.012429,-0.007538,0.000282,0.000644,-0.001926,0.134180,0.093060,-0.986578
1760109593.706595,-0.046371,0.067526,-0.006190,0.996620,-0.011229,-0.003190,-0.007355,0.000966,0.001047,-0.003815,0.134022,0.093265,-0.986580
1760109593.711806,-0.046523,0.067510,-0.006287,0.996614,-0.014072,0.000020,-0.011455,0.000403,0.000674,-0.001072,0.133978,0.093579,-0.986556
1760109593.744635,-0.046695,0.067519,-0.006407,0.996604,-0.016798,-0.001341,-0.012244,-0.000653,0.000955,0.000331,0.133982,0.093938,-0.986521
1760109593.752125,-0.046857,0.067491,-0.006563,0.996597,-0.017167,-0.004051,-0.017138,-0.001386,0.002469,0.001566,0.133907,0.094281,-0.986499
1760109593.781460,-0.047027,0.067422,-0.006740,0.996593,-0.019761,-0.004816,-0.014403,-0.000100,0.003478,0.000654,0.133750,0.094642,-0.986486
1760109593.812005,-0.047231,0.067394,-0.006866,0.996584,-0.019668,-0.002473,-0.011666,0.000423,0.003478,-0.001863,0.133679,0.095065,-0.986454
1760109593.812898,-0.047417,0.067390,-0.006954,0.996575,-0.016459,0.004459,-0.006234,0.000198,0.002929,-0.001556,0.133658,0.095446,-0.986421
1760109593.875348,-0.047548,0.067420,-0.007016,0.996566,-0.008229,0.001520,-0.007793,-0.000227,0.001662,-0.001538,0.133710,0.095715,-0.986387
1760109593.875918,-0.047679,0.067451,-0.007077,0.996558,0.000001,-0.001419,-0.009351,-0.000652,0.000395,-0.001521,0.133762,0.095984,-0.986354
1760109593.876303,-0.047703,0.067461,-0.007188,0.996555,-0.002212,0.005783,-0.009134,0.001369,0.002810,-0.003199,0.133772,0.096047,-0.986347
1760109593.906348,-0.047754,0.067570,-0.007252,0.996545,-0.002624,0.007922,-0.005456,-0.000670,0.000573,-0.000481,0.133981,0.096158,-0.986308
1760109593.911264,-0.047772,0.067667,-0.007314,0.996537,0.001388,0.009403,-0.004501,-0.000938,-0.001607,0.001778,0.134166,0.096203,-0.986278
1760109593.941135,-0.047751,0.067738,-0.007377,0.996532,0.002258,0.004188,-0.006574,-0.000248,-0.002729,0.001543,0.134302,0.096170,-0.986263
1760109593.970752,-0.047726,0.067807,-0.007440,0.996528,0.001622,0.013055,-0.006111,0.000061,-0.000956,-0.001684,0.134433,0.096129,-0.986249
1760109593.983088,-0.047736,0.067899,-0.007502,0.996521,0.000915,0.001045,-0.005519,-0.003340,-0.000948,0.001254,0.134610,0.096158,-0.986222
1760109594.013911,-0.047732,0.067897,-0.007596,0.996521,-0.001670,0.003325,-0.006019,-0.001597,0.000337,-0.002623,0.134596,0.096163,-0.986223
1760109594.015873,-0.047768,0.067921,-0.007603,0.996518,-0.009301,0.006003,-0.002258,0.000710,0.000409,-0.004568,0.134642,0.096235,-0.986210
1760109594.044840,-0.047871,0.068032,-0.007583,0.996505,-0.008199,0.014888,0.004296,0.001729,-0.005795,-0.004954,0.134862,0.096439,-0.986160
1760109594.051985,-0.047896,0.068275,-0.007624,0.996487,-0.002084,0.033583,-0.006515,0.006326,-0.005222,-0.006901,0.135340,0.096496,-0.986089
1760109594.090196,-0.047948,0.068622,-0.007708,0.996460,-0.011499,0.041256,-0.004224,0.004031,-0.000288,-0.003911,0.136019,0.096614,-0.985984
1760109594.091397,-0.048120,0.069039,-0.007754,0.996423,-0.018595,0.036054,-0.012358,0.003099,-0.002275,0.001475,0.136837,0.096966,-0.985836
1760109594.120614,-0.048265,0.069309,-0.007954,0.996395,-0.014595,0.020746,-0.024424,0.004344,-0.002221,0.000212,0.137350,0.097285,-0.985734
1760109594.172885,-0.048426,0.069536,-0.008192,0.996370,-0.015858,0.017756,-0.021038,0.003978,-0.000686,0.002697,0.137774,0.097640,-0.985639
1760109594.173232,-0.048587,0.069764,-0.008431,0.996344,-0.017122,0.014767,-0.017653,0.003613,0.000849,0.005181,0.138198,0.097995,-0.985545
1760109594.174627,-0.048722,0.069837,-0.008605,0.996331,-0.006954,0.000357,-0.015098,0.002337,0.000045,0.005235,0.138323,0.098288,-0.985498
1760109594.203718,-0.048742,0.069850,-0.008726,0.996328,-0.001999,-0.008891,-0.009975,0.001443,0.002269,0.003064,0.138336,0.098345,-0.985491
1760109594.233017,-0.048762,0.069776,-0.008767,0.996332,-0.002440,-0.001238,0.000241,0.003261,0.005189,-0.002782,0.138185,0.098390,-0.985507
1760109594.234579,-0.048817,0.069700,-0.008655,0.996335,-0.005427,-0.021339,0.011965,0.001610,0.003286,0.003116,0.138044,0.098483,-0.985518
1760109594.264538,-0.048902,0.069467,-0.008486,0.996349,-0.008185,-0.034129,0.016885,-0.001574,0.002142,0.002465,0.137597,0.098627,-0.985566
1760109594.270332,-0.048947,0.069142,-0.008313,0.996371,-0.006038,-0.024918,0.011859,0.005402,0.001711,-0.006248,0.136968,0.098688,-0.985647
1760109594.299169,-0.049065,0.069010,-0.008125,0.996376,-0.012029,-0.012738,0.024397,0.001967,0.003660,-0.002950,0.136722,0.098896,-0.985660
1760109594.331562,-0.049220,0.068990,-0.007772,0.996372,-0.013099,-0.007628,0.026201,-0.001644,-0.001232,0.001585,0.136715,0.099156,-0.985635
1760109594.333740,-0.049248,0.068823,-0.007596,0.996384,0.004817,-0.024238,0.014142,-0.002978,-0.003225,0.005070,0.136400,0.099186,-0.985676
1760109594.370037,-0.049193,0.068597,-0.007434,0.996403,0.001081,-0.015406,0.014820,0.000831,0.000855,-0.003558,0.135969,0.099052,-0.985749
1760109594.372070,-0.049182,0.068506,-0.007275,0.996411,0.002300,-0.011246,0.013577,0.000029,-0.001318,-0.002775,0.135805,0.099007,-0.985776
1760109594.400756,-0.049122,0.068354,-0.007154,0.996425,0.002549,-0.012447,0.009634,0.000596,-0.000264,-0.004020,0.135517,0.098870,-0.985829
1760109594.430491,-0.049141,0.068307,-0.007034,0.996429,-0.008645,-0.008777,0.012826,0.000714,0.004595,-0.000994,0.135434,0.098892,-0.985839
1760109594.431674,-0.049214,0.068180,-0.006887,0.996435,-0.015883,-0.010520,0.013393,0.001789,0.004489,-0.001988,0.135196,0.099016,-0.985859
1760109594.480249,-0.049412,0.068112,-0.006696,0.996431,-0.022485,-0.009913,0.016429,0.000609,0.002115,0.000560,0.135075,0.099382,-0.985839
1760109594.482132,-0.049612,0.067963,-0.006555,0.996432,-0.022210,-0.011462,0.010053,0.001210,0.000395,-0.000477,0.134790,0.099760,-0.985840
1760109594.510899,-0.049898,0.067822,-0.006429,0.996428,-0.018215,-0.018437,0.008046,-0.000094,-0.001336,0.004046,0.134517,0.100312,-0.985821
1760109594.512739,-0.050081,0.067638,-0.006366,0.996432,-0.010809,-0.012746,0.000713,0.002102,-0.002852,-0.000049,0.134155,0.100665,-0.985834
1760109594.545935,-0.050163,0.067525,-0.006373,0.996435,0.000386,-0.013332,-0.005980,0.000329,-0.001591,0.001465,0.133930,0.100829,-0.985848
1760109594.549862,-0.050139,0.067431,-0.006447,0.996443,0.003080,-0.007069,-0.007516,0.000010,-0.000049,0.000045,0.133736,0.100790,-0.985878
1760109594.578477,-0.050101,0.067377,-0.006507,0.996448,0.000979,-0.006150,-0.005216,0.000054,0.002105,-0.002135,0.133623,0.100723,-0.985900
1760109594.608651,-0.050079,0.067344,-0.006585,0.996451,-0.000898,-0.008346,-0.010770,-0.000575,0.000957,-0.000870,0.133550,0.100689,-0.985914
1760109594.610703,-0.050076,0.067232,-0.006696,0.996457,-0.000093,-0.005845,-0.010911,0.000356,0.002746,-0.002832,0.133317,0.100698,-0.985944
1760109594.639736,-0.050094,0.067223,-0.006774,0.996457,-0.000225,-0.001472,-0.001565,-0.000834,0.002479,-0.002364,0.133291,0.100744,-0.985943
1760109594.669901,-0.050120,0.067203,-0.006811,0.996456,-0.003595,0.001172,-0.000640,-0.000015,0.000046,-0.000043,0.133247,0.100800,-0.985943
1760109594.671273,-0.050097,0.067197,-0.006832,0.996458,0.004179,0.000039,-0.000738,-0.001273,-0.002444,0.002680,0.133233,0.100757,-0.985950
1760109594.702710,-0.050039,0.067224,-0.006857,0.996459,0.009905,-0.003280,-0.003855,-0.000655,-0.001258,0.001379,0.133286,0.100646,-0.985954
1760109594.731966,-0.049967,0.067206,-0.006920,0.996463,0.003834,0.003047,-0.003775,0.000520,0.000534,-0.002007,0.133246,0.100511,-0.985973
1760109594.734345,-0.049993,0.067186,-0.006956,0.996463,-0.004158,-0.005799,0.001004,-0.002811,0.001664,0.001550,0.133201,0.100566,-0.985974
1760109594.775562,-0.050030,0.067051,-0.006968,0.996470,-0.008270,-0.016092,-0.007415,-0.000016,0.000009,0.000009,0.132932,0.100642,-0.986002
1760109594.776070,-0.050144,0.066881,-0.007030,0.996475,-0.009853,-0.011284,-0.000971,0.000513,-0.000890,-0.004758,0.132586,0.100875,-0.986025
1760109594.814070,-0.050292,0.066865,-0.007018,0.996469,-0.016458,0.005488,-0.002801,-0.001542,-0.001660,-0.006449,0.132551,0.101168,-0.986000
1760109594.844298,-0.050469,0.066990,-0.007029,0.996452,-0.018223,0.019186,-0.002356,0.001484,0.000970,-0.006815,0.132796,0.101521,-0.985930
1760109594.851959,-0.050723,0.067351,-0.007015,0.996414,-0.022814,0.030206,-0.002910,0.000683,0.000138,-0.003741,0.133508,0.102028,-0.985782
1760109594.881981,-0.050953,0.067689,-0.007074,0.996379,-0.019079,0.027133,-0.012366,-0.000147,-0.000866,-0.000837,0.134167,0.102495,-0.985644
1760109594.912904,-0.051153,0.067976,-0.007230,0.996349,-0.017541,0.024976,-0.016398,0.000883,0.001079,0.000007,0.134716,0.102915,-0.985525
1760109594.913256,-0.051321,0.068217,-0.007413,0.996322,-0.013419,0.022048,-0.017093,0.000620,0.002304,0.002407,0.135171,0.103276,-0.985425
1760109594.941661,-0.051442,0.068381,-0.007602,0.996303,-0.005642,0.013542,-0.015504,0.000163,0.002288,0.004287,0.135474,0.103544,-0.985355
1760109594.972519,-0.051447,0.068426,-0.007757,0.996299,0.002494,0.002010,-0.010869,0.000935,0.002683,0.003237,0.135548,0.103575,-0.985342
1760109594.973914,-0.051394,0.068389,-0.007846,0.996303,0.006548,-0.002249,-0.005813,0.001836,0.004917,0.000573,0.135465,0.103481,-0.985363
1760109595.005527,-0.051343,0.068340,-0.007861,0.996309,0.005981,-0.012347,0.002357,0.001426,0.005567,0.003391,0.135368,0.103382,-0.985387
1760109595.012270,-0.051325,0.068195,-0.007784,0.996321,-0.000298,-0.020510,0.010597,-0.000108,0.003754,0.002207,0.135089,0.103333,-0.985430
1760109595.072949,-0.051380,0.067994,-0.007663,0.996332,-0.003389,-0.016955,0.010946,0.000410,0.002086,-0.000092,0.134701,0.103426,-0.985474
1760109595.073246,-0.051436,0.067792,-0.007541,0.996344,-0.006481,-0.013400,0.011295,0.000927,0.000418,-0.002390,0.134313,0.103518,-0.985517
1760109595.074516,-0.051545,0.067684,-0.007406,0.996347,-0.007347,-0.010385,0.010081,-0.000725,-0.001254,-0.000216,0.134111,0.103717,-0.985524
1760109595.106230,-0.051606,0.067559,-0.007356,0.996353,0.000611,-0.013912,0.000334,-0.001209,-0.001443,0.000161,0.133866,0.103830,-0.985545
                                                                                                                                             1760109595.106395,-0.051593,0.067426,-0.007361,0.996362,0.004712,-0.011254,-0.003218,-0.000107,-0.000495,-0.002354,0.133602,0.103804,-0.985584
1760109595.150292,-0.051530,0.067338,-0.007397,0.996371,0.007966,-0.005163,-0.002866,-0.000491,0.001021,-0.002354,0.133425,0.103682,-0.985620
1760109595.150615,-0.051423,0.067303,-0.007421,0.996379,0.011705,-0.004386,-0.000823,-0.001643,0.000967,-0.001389,0.133356,0.103472,-0.985652
1760109595.179529,-0.051270,0.067264,-0.007409,0.996390,0.013320,-0.003935,0.001572,-0.001407,0.001421,-0.001534,0.133282,0.103167,-0.985694
1760109595.210153,-0.051124,0.067245,-0.007389,0.996398,0.013737,-0.001352,0.003285,-0.000189,0.001647,-0.001795,0.133251,0.102873,-0.985729
1760109595.211478,-0.051001,0.067251,-0.007363,0.996405,0.009576,0.002113,0.002623,0.000485,0.000610,-0.001493,0.133267,0.102625,-0.985752
1760109595.241450,-0.050911,0.067268,-0.007364,0.996408,0.006923,0.003267,-0.001366,0.000540,-0.000180,-0.000296,0.133303,0.102447,-0.985766
1760109595.295259,-0.050881,0.067277,-0.007450,0.996408,0.004488,0.004168,-0.004821,0.000718,0.000258,-0.001586,0.133312,0.102399,-0.985770
1760109595.295585,-0.050851,0.067285,-0.007537,0.996409,0.002053,0.005070,-0.008276,0.000897,0.000695,-0.002876,0.133321,0.102351,-0.985774
1760109595.297053,-0.050845,0.067325,-0.007640,0.996405,0.002446,0.005729,-0.006111,0.000434,0.000336,-0.001391,0.133388,0.102353,-0.985764
1760109595.325409,-0.050829,0.067379,-0.007722,0.996402,0.004743,0.005346,-0.006150,0.000506,-0.001064,-0.001650,0.133488,0.102332,-0.985753
1760109595.328947,-0.050761,0.067434,-0.007788,0.996401,0.007017,0.004775,-0.007419,-0.000149,-0.001513,-0.000445,0.133593,0.102207,-0.985752
1760109595.375042,-0.050678,0.067448,-0.007863,0.996404,0.004545,0.001913,-0.004826,0.000737,-0.000243,-0.000839,0.133614,0.102053,-0.985765
1760109595.377093,-0.050638,0.067494,-0.007921,0.996402,0.002304,0.001635,-0.001613,0.001639,0.000211,-0.000949,0.133699,0.101980,-0.985761
1760109595.405648,-0.050606,0.067512,-0.007960,0.996402,0.002015,0.003509,-0.000771,0.000669,-0.000615,-0.001165,0.133733,0.101922,-0.985762
1760109595.407629,-0.050555,0.067557,-0.007983,0.996402,0.006517,0.002104,-0.000267,0.000797,-0.000454,-0.000478,0.133821,0.101825,-0.985761
1760109595.437177,-0.050471,0.067569,-0.007998,0.996405,0.011580,-0.002574,0.000621,0.001335,-0.000536,-0.000067,0.133845,0.101660,-0.985774
1760109595.467618,-0.050363,0.067555,-0.008000,0.996412,0.010091,-0.002753,0.002532,0.000816,0.000823,0.001037,0.133818,0.101445,-0.985800
1760109595.468696,-0.050272,0.067527,-0.007952,0.996418,0.007409,-0.004467,0.005419,0.000927,0.000593,0.000933,0.133770,0.101258,-0.985826
1760109595.498351,-0.050208,0.067474,-0.007878,0.996426,0.006049,-0.009068,0.006244,0.001839,-0.002088,0.000412,0.133675,0.101120,-0.985853
1760109595.529202,-0.050141,0.067362,-0.007832,0.996437,0.005339,-0.009715,0.003619,0.002303,-0.002231,-0.000989,0.133458,0.100980,-0.985897
1760109595.531583,-0.050110,0.067269,-0.007788,0.996445,0.001944,-0.012061,0.003469,0.000416,-0.002364,0.000959,0.133279,0.100912,-0.985928
1760109595.562736,-0.050112,0.067122,-0.007771,0.996455,-0.002092,-0.016952,-0.002667,0.000078,-0.001846,-0.000262,0.132988,0.100913,-0.985967
1760109595.567466,-0.050156,0.066941,-0.007777,0.996465,-0.007898,-0.018751,-0.001053,0.000848,-0.001143,-0.002194,0.132629,0.100999,-0.986006
1760109595.596825,-0.050252,0.066815,-0.007772,0.996469,-0.012026,-0.008405,-0.002531,0.001166,-0.003475,-0.004828,0.132377,0.101188,-0.986021
1760109595.626255,-0.050357,0.066804,-0.007788,0.996464,-0.012761,0.003001,-0.004107,0.002922,-0.002430,-0.004830,0.132352,0.101397,-0.986003
1760109595.628362,-0.050529,0.066890,-0.007810,0.996449,-0.022106,0.013700,0.000152,0.002715,0.000332,-0.003994,0.132516,0.101744,-0.985945
1760109595.672532,-0.050796,0.067077,-0.007802,0.996423,-0.029784,0.017537,-0.000496,0.002307,0.000198,-0.001356,0.132882,0.102275,-0.985841
1760109595.673781,-0.051077,0.067228,-0.007830,0.996399,-0.029590,0.013458,-0.008813,0.001388,-0.001163,-0.001640,0.133171,0.102838,-0.985743
1760109595.703655,-0.051336,0.067308,-0.007927,0.996379,-0.025532,0.004035,-0.011747,0.001692,0.000262,0.001204,0.133314,0.103368,-0.985668
1760109595.705885,-0.051534,0.067330,-0.008018,0.996367,-0.015791,-0.004562,-0.008744,0.000409,0.000633,0.003824,0.133344,0.103773,-0.985622
1760109595.736167,-0.051631,0.067233,-0.008077,0.996368,-0.006026,-0.014980,-0.004731,0.000151,0.001468,0.004330,0.133144,0.103973,-0.985628
1760109595.765633,-0.051635,0.066994,-0.008069,0.996384,0.001909,-0.030296,0.002657,-0.000966,0.003743,0.004320,0.132670,0.103977,-0.985691
1760109595.767521,-0.051619,0.066709,-0.007977,0.996404,-0.000457,-0.029232,0.012232,0.001445,0.005390,-0.001978,0.132115,0.103930,-0.985771
1760109595.796784,-0.051643,0.066470,-0.007792,0.996421,-0.003395,-0.027347,0.017103,-0.000303,0.002838,-0.001088,0.131659,0.103951,-0.985830
1760109595.827389,-0.051666,0.066209,-0.007626,0.996438,-0.000978,-0.024609,0.013879,-0.002921,-0.000866,-0.001572,0.131158,0.103974,-0.985894
1760109595.829515,-0.051613,0.065919,-0.007536,0.996461,0.010245,-0.025130,0.002029,-0.000489,-0.001855,-0.005394,0.130593,0.103854,-0.985982
1760109595.857992,-0.051541,0.065763,-0.007518,0.996475,0.009958,-0.009486,0.000882,0.000579,0.000436,-0.004693,0.130287,0.103706,-0.986038
1760109595.888947,-0.051482,0.065745,-0.007472,0.996480,0.006370,-0.003421,0.005138,-0.002730,0.001592,-0.001575,0.130258,0.103585,-0.986054
1760109595.890426,-0.051408,0.065690,-0.007421,0.996487,0.007617,-0.004705,0.001743,-0.003259,0.000226,0.000119,0.130155,0.103429,-0.986084
1760109595.926533,-0.051300,0.065611,-0.007391,0.996498,0.010699,-0.006140,0.003612,-0.001913,-0.000936,0.000421,0.130004,0.103210,-0.986127
1760109595.929187,-0.051167,0.065551,-0.007382,0.996509,0.013168,-0.004793,0.002273,-0.001476,-0.002587,-0.000544,0.129888,0.102944,-0.986170
1760109595.972809,-0.051035,0.065502,-0.007372,0.996519,0.011614,-0.006416,-0.000158,-0.001460,-0.001324,0.000770,0.129795,0.102681,-0.986210
1760109595.973823,-0.050940,0.065462,-0.007380,0.996527,0.004939,-0.000453,0.000499,-0.000444,-0.000681,-0.001121,0.129717,0.102492,-0.986240
1760109596.004035,-0.050932,0.065447,-0.007402,0.996528,-0.001718,-0.000451,-0.003401,-0.000410,0.000152,-0.001706,0.129685,0.102479,-0.986245
1760109596.005121,-0.050999,0.065487,-0.007472,0.996521,-0.010296,0.006131,-0.006368,0.000503,0.000633,-0.003737,0.129756,0.102622,-0.986221
1760109596.037569,-0.051132,0.065563,-0.007604,0.996509,-0.015471,0.011944,-0.014897,0.001181,-0.000025,-0.004585,0.129890,0.102905,-0.986174
1760109596.066739,-0.051303,0.065722,-0.007767,0.996488,-0.017116,0.017528,-0.017312,0.000766,-0.000085,-0.003574,0.130185,0.103266,-0.986097
1760109596.067893,-0.051469,0.065889,-0.007976,0.996467,-0.012246,0.021380,-0.022188,0.001345,-0.000371,-0.001458,0.130492,0.103626,-0.986019
1760109596.099022,-0.051562,0.066081,-0.008224,0.996447,-0.006263,0.021879,-0.022245,0.001172,0.000041,-0.000205,0.130844,0.103844,-0.985949
1760109596.105871,-0.051598,0.066284,-0.008458,0.996430,0.001977,0.018673,-0.021253,0.000428,0.000846,0.002142,0.131221,0.103949,-0.985888
1760109596.136374,-0.051547,0.066440,-0.008668,0.996420,0.006911,0.016018,-0.016734,0.000495,0.001477,0.001345,0.131511,0.103877,-0.985857
1760109596.164501,-0.051446,0.066580,-0.008825,0.996415,0.013575,0.012535,-0.011591,0.000787,0.000878,0.001067,0.131774,0.103699,-0.985841
1760109596.165314,-0.051283,0.066674,-0.008939,0.996416,0.016931,0.006051,-0.007431,0.001097,0.000948,0.000568,0.131954,0.103391,-0.985849
1760109596.196754,-0.051119,0.066715,-0.008986,0.996421,0.015918,0.001558,-0.000480,0.001854,0.000774,-0.000321,0.132034,0.103072,-0.985872
1760109596.225524,-0.050969,0.066694,-0.008969,0.996430,0.013493,-0.003017,0.002481,0.001515,0.000522,-0.000433,0.131997,0.102771,-0.985908
1760109596.226611,-0.050839,0.066647,-0.008911,0.996441,0.010806,-0.005351,0.005896,0.001688,-0.000102,-0.000023,0.131914,0.102503,-0.985947
1760109596.271964,-0.050730,0.066594,-0.008823,0.996451,0.010250,-0.007423,0.008355,0.002501,-0.000626,-0.001257,0.131819,0.102275,-0.985983
1760109596.272967,-0.050654,0.066551,-0.008720,0.996458,0.007874,-0.006842,0.011376,0.002099,-0.001816,0.000824,0.131746,0.102109,-0.986010
1760109596.304017,-0.050574,0.066490,-0.008589,0.996468,0.008158,-0.007832,0.009128,0.002088,-0.002805,-0.000130,0.131642,0.101932,-0.986043
1760109596.335354,-0.050473,0.066486,-0.008523,0.996474,0.007684,-0.010528,0.007018,0.000480,-0.002557,0.001319,0.131643,0.101724,-0.986064
1760109596.335691,-0.050373,0.066482,-0.008457,0.996479,0.007211,-0.013224,0.004908,-0.001127,-0.002310,0.002769,0.131643,0.101516,-0.986085
1760109596.371175,-0.050283,0.066361,-0.008438,0.996492,0.006367,-0.018255,0.000174,0.000187,-0.000851,0.000938,0.131407,0.101333,-0.986136
1760109596.372373,-0.050227,0.066228,-0.008416,0.996504,0.001384,-0.010860,0.003109,0.001005,-0.000277,-0.001394,0.131147,0.101217,-0.986182
1760109596.402687,-0.050205,0.066176,-0.008352,0.996509,0.000760,-0.002427,0.005178,0.000637,-0.002213,-0.002432,0.131052,0.101165,-0.986200
1760109596.404660,-0.050198,0.066202,-0.008293,0.996508,-0.002091,0.003796,0.005577,-0.000262,0.000018,-0.002769,0.131109,0.101143,-0.986195
1760109596.433481,-0.050268,0.066298,-0.008210,0.996499,-0.019008,0.014208,0.010005,0.000819,0.002956,-0.004353,0.131307,0.101273,-0.986155
1760109596.463867,-0.050523,0.066477,-0.008075,0.996475,-0.032170,0.015003,0.010494,0.001384,0.000959,-0.001742,0.131668,0.101763,-0.986057
1760109596.465219,-0.050858,0.066612,-0.008012,0.996450,-0.036585,0.013274,-0.001522,0.001763,-0.002410,-0.002799,0.131936,0.102422,-0.985953
1760109596.505267,-0.051204,0.066733,-0.008091,0.996423,-0.035109,0.014654,-0.015817,0.001287,-0.001228,-0.001140,0.132161,0.103121,-0.985850
1760109596.507234,-0.051551,0.066842,-0.008289,0.996397,-0.031376,0.014230,-0.021570,0.000241,0.000796,0.000565,0.132347,0.103838,-0.985749
1760109596.537421,-0.051837,0.066941,-0.008488,0.996373,-0.022783,0.005978,-0.018683,-0.001752,0.003014,0.002586,0.132516,0.104435,-0.985664
1760109596.596522,-0.051888,0.066950,-0.008519,0.996370,-0.015844,0.001382,-0.008611,-0.001839,0.003170,0.002138,0.132531,0.104539,-0.985651
1760109596.596891,-0.051938,0.066960,-0.008550,0.996366,-0.008905,-0.003213,0.001461,-0.001925,0.003327,0.001691,0.132545,0.104644,-0.985638
1760109596.597095,-0.051988,0.066970,-0.008581,0.996363,-0.001966,-0.007809,0.011532,-0.002012,0.003484,0.001244,0.132560,0.104748,-0.985624
1760109596.628589,-0.052019,0.066931,-0.008493,0.996364,0.002056,-0.011781,0.012995,-0.002790,0.001332,0.001047,0.132492,0.104797,-0.985628
1760109596.628922,-0.051961,0.066809,-0.008401,0.996377,0.008994,-0.005351,0.006109,0.000651,-0.000036,-0.004767,0.132260,0.104668,-0.985673
1760109596.657045,-0.051865,0.066768,-0.008356,0.996385,0.012703,-0.001964,0.007152,0.000832,0.001040,-0.003224,0.132186,0.104471,-0.985704
1760109596.686574,-0.051792,0.066831,-0.008286,0.996385,0.011239,0.007964,0.007505,-0.000557,-0.001311,0.000536,0.132320,0.104317,-0.985703
1760109596.686874,-0.051630,0.066852,-0.008233,0.996392,0.021777,0.000277,0.002025,-0.001223,-0.002722,0.001777,0.132372,0.103987,-0.985730
1760109596.715521,-0.051379,0.066819,-0.008244,0.996407,0.027811,-0.004372,0.002334,0.000058,-0.000955,0.001243,0.132310,0.103491,-0.985791
1760109596.724474,-0.051122,0.066803,-0.008259,0.996421,0.024379,0.000611,0.002786,0.000577,0.000650,-0.000628,0.132283,0.102982,-0.985848
1760109596.754735,-0.050899,0.066771,-0.008240,0.996435,0.021948,-0.003569,0.003150,0.000497,0.001027,-0.000269,0.132227,0.102536,-0.985902
1760109596.783202,-0.050682,0.066720,-0.008196,0.996450,0.019010,-0.005572,0.007022,0.000148,0.000046,-0.000505,0.132136,0.102098,-0.985960
1760109596.783540,-0.050504,0.066680,-0.008126,0.996462,0.014543,-0.003692,0.004854,0.000118,-0.000413,-0.001387,0.132067,0.101734,-0.986006
