timestamp,quat_x,quat_y,quat_z,quat_w,rot_x,rot_y,rot_z,acc_x,acc_y,acc_z,grav_x,grav_y,grav_z,pitch_rad
1763624554.557878,-0.313052,-0.269108,0.226153,0.882289,0.004791,0.005917,0.015245,0.00147,-0.002181,-0.001772,-0.333267,0.674124,-0.659159,0.33976643868832823
1763624554.558194,-0.31305,-0.269023,0.226255,0.88229,0.004626,0.008581,0.0195,0.00166,-0.001667,0.000355,-0.333055,0.674137,-0.659253,0.33954155839599415
1763624554.583849,-0.313063,-0.268924,0.226364,0.882287,0.002631,0.005992,0.020182,0.002514,-0.000316,-0.000718,-0.332804,0.674173,-0.659342,0.3392755912942517
1763624554.619747,-0.313156,-0.268781,0.226615,0.882233,-0.007419,-0.00104,0.015641,0.002447,0.001785,-0.000465,-0.332323,0.674373,-0.65938,0.33876557925798306
1763624554.620114,-0.313192,-0.268774,0.226688,0.882204,-0.007657,-0.001117,0.014096,0.001141,0.000524,-0.000201,-0.332234,0.674454,-0.659343,0.3386709858435594
1763624554.647461,-0.313308,-0.268756,0.2269,0.882114,-0.000687,-0.006343,0.013013,0.000683,0.000364,-0.000254,-0.331967,0.674708,-0.659217,0.33838805985138004
1763624554.677809,-0.313324,-0.268744,0.22701,0.882083,-0.001165,-0.004975,0.016382,0.000731,0.001363,0.001434,-0.331855,0.674771,-0.659209,0.33826930768262914
1763624554.678136,-0.31334,-0.268733,0.22712,0.882053,-0.001644,-0.003608,0.019751,0.000778,0.002361,0.003121,-0.331743,0.674834,-0.659201,0.3381505546596828
1763624554.718012,-0.313414,-0.268707,0.227311,0.881985,-0.002594,-0.001766,0.017917,0.000131,0.002882,0.003261,-0.331506,0.675014,-0.659136,0.3378993228206442
1763624554.718339,-0.313489,-0.268681,0.227503,0.881917,-0.003543,7.6e-05,0.016083,-0.000516,0.003403,0.003401,-0.33127,0.675194,-0.65907,0.3376492555323772
1763624554.761945,-0.3135,-0.268674,0.227725,0.881858,0.004598,-0.010139,0.019385,-0.000228,0.001378,0.001365,-0.331081,0.675293,-0.659063,0.33744907734931234
1763624554.764848,-0.313413,-0.268716,0.228058,0.88179,0.010913,-0.010956,0.013762,-0.001571,0.000438,0.003965,-0.330949,0.675295,-0.659128,0.337309016699741
1763624554.797578,-0.313321,-0.268706,0.228225,0.881783,0.018278,-0.008487,0.012084,-0.00283,-0.000777,0.002787,-0.330865,0.675212,-0.659255,0.3372200457154335
1763624554.797907,-0.313228,-0.268696,0.228391,0.881775,0.025643,-0.006019,0.010407,-0.004089,-0.001992,0.001609,-0.330781,0.67513,-0.659381,0.33713106142303423
1763624554.826425,-0.313059,-0.268676,0.228541,0.881803,0.030064,-0.000827,0.01122,-0.00228,0.000404,0.001988,-0.330744,0.674919,-0.659615,0.337091975837735
1763624554.85781,-0.312818,-0.268201,0.228843,0.881954,0.017915,0.041359,0.02278,0.004406,0.002135,0.005565,-0.32991,0.674535,-0.660426,0.33620813521939513
1763624554.858164,-0.31289,-0.267851,0.228887,0.882024,0.004235,0.058367,0.02313,0.002948,0.004936,0.002495,-0.329268,0.674568,-0.660712,0.33552828445433397
1763624554.884738,-0.313019,-0.267543,0.22885,0.882081,-0.00293,0.046999,0.012433,0.002259,0.00499,-0.00145,-0.328721,0.674671,-0.660879,0.3349490810594264
1763624554.91773,-0.313315,-0.267059,0.228632,0.88218,-0.012367,0.031275,-0.002898,0.002526,-0.000524,-0.000362,-0.32792,0.674917,-0.661027,0.3341007825652704
1763624554.918079,-0.313454,-0.266888,0.228529,0.882208,-0.011647,0.032404,-0.003917,0.003882,-0.002732,-0.00046,-0.327636,0.675047,-0.661034,0.3338004232800485
1763624554.94543,-0.313624,-0.266699,0.228421,0.882233,-0.011557,0.038262,-0.000606,0.004647,-0.005099,-0.00092,-0.327305,0.675219,-0.661023,0.33344994836945185
1763624554.977769,-0.313995,-0.266153,0.228203,0.882323,-0.011764,0.031915,0.000779,0.000399,-0.000669,-0.002617,-0.326356,0.675563,-0.66114,0.3324459701545377
1763624554.978101,-0.314101,-0.265982,0.228146,0.882351,-0.012126,0.024527,-0.000543,0.001197,0.00096,-0.002385,-0.326058,0.675661,-0.661187,0.33213069985733185
1763624555.004964,-0.314226,-0.265888,0.228071,0.882354,-0.012472,0.013038,0.000877,0.000356,0.001772,-0.002259,-0.325883,0.6758,-0.661131,0.3319456384431158
1763624555.035779,-0.314431,-0.265861,0.227993,0.882309,-0.013042,-0.004794,-9.6e-05,-0.000353,0.000363,-0.001363,-0.325766,0.67608,-0.660902,0.3318219648450026
1763624555.036119,-0.314472,-0.265917,0.227995,0.882278,-0.007339,-0.00953,0.000176,-0.000638,0.001217,-0.001362,-0.325829,0.676159,-0.660791,0.3318883990325368
1763624555.066199,-0.314475,-0.265942,0.227971,0.882275,0.000964,-0.002175,-0.000542,-0.000142,-0.003315,0.0006,-0.325886,0.676162,-0.66076,0.3319486489732787
1763624555.098071,-0.314336,-0.266115,0.228034,0.882256,0.006089,-0.026453,-0.002227,-0.007997,-0.000372,-0.00217,-0.326205,0.676017,-0.660751,0.33228607866576004
1763624555.09838,-0.314236,-0.266298,0.228104,0.882219,0.002539,-0.029487,0.002015,-0.005694,-0.000993,0.002382,-0.326509,0.675936,-0.660683,0.33260785023617734
1763624555.125665,-0.314196,-0.266423,0.228227,0.882163,0.004492,-0.02039,0.009846,-0.001841,-0.004617,0.005151,-0.326641,0.675954,-0.6606,0.33274735485214724
1763624555.157749,-0.31406,-0.266437,0.228599,0.882111,0.015139,-0.005166,0.018918,-5.6e-05,-0.001345,0.003159,-0.326466,0.675886,-0.660756,0.33256221981339135
1763624555.158078,-0.313976,-0.266389,0.228729,0.882122,0.018575,-0.004019,0.018333,-0.000735,0.000253,0.002307,-0.326344,0.675792,-0.660913,0.33243301237641876
1763624555.184886,-0.313909,-0.266337,0.228854,0.882129,0.008291,0.000385,0.01405,-0.000764,0.002353,0.002134,-0.326208,0.675722,-0.661051,0.3322892980177012
1763624555.217591,-0.313941,-0.26614,0.228992,0.882141,-0.001547,0.019299,0.011865,0.001619,0.001817,0.002724,-0.325766,0.675769,-0.661221,0.3318217353327224
1763624555.218139,-0.314,-0.266015,0.229009,0.882154,-0.004328,0.020157,0.012249,0.001466,-2e-05,0.001981,-0.325516,0.675831,-0.66128,0.3315574942666829
1763624555.24474,-0.314098,-0.265846,0.229026,0.882165,-0.001802,0.021148,0.013705,0.000628,-0.000939,-0.000284,-0.325166,0.675943,-0.661338,0.33118729358959714
1763624555.27791,-0.314226,-0.265555,0.229092,0.88219,0.005038,0.016224,0.012406,0.000485,-0.002021,-0.001112,-0.324567,0.676087,-0.661485,0.33055394769935476
1763624555.278245,-0.314258,-0.265451,0.229109,0.882205,0.005038,0.016224,0.012406,0.000358,-0.002062,-0.001941,-0.324366,0.676115,-0.661555,0.33034144433131024
1763624555.306653,-0.314277,-0.265308,0.229165,0.882227,0.007251,0.016036,0.009397,6.9e-05,-0.001229,-0.002008,-0.324081,0.676127,-0.661683,0.33004003359630457
1763624555.338985,-0.314276,-0.264962,0.229218,0.882318,0.006151,0.018525,0.005417,0.002424,-0.000112,0.000148,-0.323486,0.676051,-0.662051,0.3294113165684552
1763624555.339267,-0.314287,-0.264828,0.2292,0.882359,0.002142,0.0217,0.003274,0.003061,-0.00035,-0.000371,-0.323277,0.676025,-0.66218,0.32919036389964135
1763624555.367724,-0.314334,-0.264692,0.229169,0.882391,-0.003603,0.022093,0.00212,0.002445,-0.000606,-0.001172,-0.323052,0.67605,-0.662264,0.3289526694820522
1763624555.399252,-0.314515,-0.264361,0.229018,0.882465,-0.01092,0.018878,-0.003462,0.002191,0.000567,-0.004399,-0.322519,0.676184,-0.662387,0.32838951835589264
1763624555.399578,-0.314631,-0.264252,0.22895,0.882474,-0.016173,0.018992,-0.002661,0.002398,0.000169,-0.003962,-0.322322,0.676307,-0.662357,0.3281814757670215
1763624555.424648,-0.314791,-0.26418,0.228884,0.882455,-0.017568,0.014898,0.001472,0.001489,-0.000198,-0.001888,-0.322153,0.676512,-0.662231,0.3280026955866008
1763624555.459296,-0.315164,-0.264051,0.228772,0.88239,-0.020439,0.007503,0.001365,0.001244,-0.002612,-0.002159,-0.321791,0.67701,-0.661897,0.3276205577920172
1763624555.459615,-0.315287,-0.264007,0.228744,0.882366,-0.018315,0.004755,0.001176,0.00122,-0.004348,-0.002069,-0.321662,0.677178,-0.661788,0.3274842772742206
1763624555.48615,-0.315386,-0.263982,0.22875,0.882337,-0.013954,0.001169,0.003343,0.000361,-0.003926,-0.001958,-0.321553,0.677325,-0.661691,0.32736905555946977
1763624555.517633,-0.315597,-0.26396,0.228825,0.882248,-0.013826,-0.005411,0.0095,0.000699,-0.00327,0.001,-0.321323,0.677672,-0.661447,0.3271262543648871
1763624555.517885,-0.315678,-0.26399,0.228873,0.882198,-0.013902,-0.007328,0.013232,0.000278,-0.004828,0.003408,-0.321282,0.677822,-0.661313,0.327083004912701
1763624555.545576,-0.315757,-0.264006,0.228975,0.882138,-0.015538,-0.007072,0.012852,0.000658,-0.002422,0.002958,-0.321179,0.677985,-0.661196,0.32697422531465636
1763624555.577164,-0.315956,-0.264085,0.229185,0.881989,-0.013551,-0.011217,0.016076,0.001782,1.5e-05,0.002523,-0.321015,0.678389,-0.660861,0.32680109492795645
1763624555.577482,-0.316048,-0.26411,0.22928,0.881924,-0.017836,-0.005239,0.018215,0.001808,0.001876,0.002427,-0.320922,0.678572,-0.660719,0.3267027368257913
1763624555.606767,-0.316195,-0.264126,0.229378,0.881841,-0.022332,-0.000763,0.017024,0.001643,0.003317,0.00017,-0.320779,0.678837,-0.660516,0.32655179852452226
1763624555.637932,-0.316594,-0.264163,0.229547,0.881643,-0.02096,-0.00381,0.015626,-0.002223,0.0029,-0.001248,-0.320448,0.679521,-0.659973,0.3262023774627573
1763624555.638287,-0.316733,-0.264193,0.229606,0.881569,-0.015502,-0.004818,0.013931,-0.002495,0.002811,-0.003016,-0.320361,0.679763,-0.659765,0.3261107570098977
1763624555.666325,-0.316822,-0.264201,0.229681,0.881515,-0.010834,-0.006287,0.012318,-0.002654,0.00043,-0.000791,-0.320258,0.67993,-0.659644,0.32600178553425707
1763624555.697759,-0.316966,-0.264187,0.22987,0.881418,0.001037,-0.003132,0.012202,-0.004324,-0.00348,0.00178,-0.319996,0.680216,-0.659476,0.32572529210401996
1763624555.698082,-0.316984,-0.264167,0.229953,0.881396,0.002307,-0.007387,0.01132,-0.007028,-0.000635,-0.000645,-0.319889,0.680269,-0.659474,0.3256121869869398
1763624555.725072,-0.317107,-0.264036,0.230154,0.881339,-0.003094,0.026727,0.018773,0.004343,-0.002766,0.010847,-0.319443,0.680495,-0.659457,0.3251414951122245
1763624555.75781,-0.317274,-0.263668,0.230156,0.881388,-0.006371,0.047621,0.01373,0.001759,0.000894,0.005331,-0.318743,0.680653,-0.659632,0.3244030225594927
1763624555.786778,-0.317385,-0.263318,0.230113,0.881464,-0.000171,0.034448,0.009196,0.000726,0.002616,0.003141,-0.318142,0.680712,-0.659861,0.323769065184603
1763624555.787086,-0.31751,-0.263077,0.230079,0.881499,-0.001593,0.021639,0.0114,0.000605,0.002423,0.002153,-0.3177,0.680827,-0.659955,0.32330294543892985
1763624555.817895,-0.317697,-0.262839,0.230119,0.881493,-0.007071,0.029842,0.022025,0.001867,-0.001201,0.00248,-0.317165,0.681063,-0.659969,0.322738727541517
1763624555.846685,-0.317924,-0.262537,0.230275,0.88146,-0.006446,0.024177,0.029853,-0.002107,-0.003377,-0.001116,-0.316412,0.681386,-0.659997,0.32194484795213096
1763624555.847002,-0.318175,-0.262315,0.230458,0.881388,-0.012296,0.010737,0.02979,-0.003094,-0.001616,-0.003073,-0.31575,0.681777,-0.65991,0.32124712874513217
1763624555.877667,-0.318388,-0.262214,0.230653,0.88129,-0.010795,0.004203,0.029529,-0.002822,-0.001072,-0.000322,-0.315298,0.682145,-0.659746,0.32077075212941714
1763624555.905816,-0.318539,-0.262132,0.230896,0.881196,-0.00262,0.005375,0.023807,0.000142,0.000579,0.001389,-0.314881,0.682441,-0.65964,0.3203311587888739
1763624555.906102,-0.318588,-0.26201,0.231062,0.881171,0.002515,0.01347,0.019466,0.002661,0.003249,0.002993,-0.314525,0.682542,-0.659705,0.3199561765707149
1763624555.937764,-0.318622,-0.261849,0.231137,0.881187,-0.001245,0.017034,0.011636,0.004011,0.004674,0.004809,-0.314184,0.682577,-0.659831,0.31959702447068616
1763624555.96667,-0.318684,-0.26161,0.231102,0.881245,-0.003413,0.034108,0.006002,0.005295,-0.000229,0.005343,-0.313789,0.682594,-0.660001,0.31918106188786094
1763624555.967098,-0.31882,-0.261334,0.231009,0.881302,-0.007291,0.02705,0.000427,0.001677,0.002298,-0.001026,-0.313328,0.682694,-0.660117,0.3186954856141648
1763624555.997812,-0.318994,-0.2611,0.230905,0.881336,-0.008734,0.028494,0.002197,0.003349,0.00044,-0.001754,-0.312919,0.68286,-0.66014,0.31826467854640994
1763624556.026112,-0.319223,-0.260824,0.230809,0.881359,-0.012294,0.03545,0.005952,0.003839,-0.000529,-0.002445,-0.312401,0.683102,-0.660134,0.3177195478006312
1763624556.056376,-0.319478,-0.260484,0.230754,0.881382,-0.015658,0.03195,0.009614,0.000646,0.002503,-0.006468,-0.31173,0.68338,-0.660164,0.3170131622209391
1763624556.05668,-0.319725,-0.260269,0.230688,0.881373,-0.017954,0.019717,0.007134,-0.000759,0.003594,-0.005822,-0.311275,0.683676,-0.660072,0.31653438451024035
1763624556.086236,-0.319925,-0.260157,0.230652,0.881343,-0.018794,0.006804,0.003918,-0.001072,0.002255,-0.004024,-0.310993,0.683939,-0.659933,0.3162375385418942
1763624556.086581,-0.320085,-0.260144,0.23064,0.881292,-0.012999,-0.000952,0.002399,-0.000871,-0.000153,-0.001433,-0.310877,0.684176,-0.659741,0.3161156965992337
1763624556.116832,-0.320152,-0.260154,0.230637,0.881266,-0.006165,-0.005468,0.001313,-0.000103,-0.002149,0.000743,-0.310851,0.684281,-0.659645,0.31608820029481705
1763624556.149143,-0.320162,-0.260165,0.230664,0.881252,0.000184,-0.001914,0.00112,0.001986,-0.002577,0.003586,-0.310842,0.684308,-0.659621,0.31607878119026367
1763624556.149503,-0.32011,-0.260114,0.230698,0.881277,0.006301,0.009028,0.001936,0.003473,-0.000781,0.00461,-0.310768,0.684227,-0.65974,0.31600090018559696
1763624556.178764,-0.320081,-0.259994,0.230662,0.881332,0.00605,0.015571,-0.001816,0.004301,0.000374,0.004274,-0.310621,0.684137,-0.659903,0.31584614752631496
1763624556.210763,-0.320054,-0.259787,0.23055,0.881432,0.004164,0.02519,-0.007003,0.004567,0.00176,0.002092,-0.310392,0.683999,-0.660153,0.3156054032463465
1763624556.211103,-0.320069,-0.259551,0.230361,0.881546,0.001313,0.032306,-0.013341,0.003676,0.001819,-0.000362,-0.310149,0.683891,-0.660379,0.3153498017816474
1763624556.237745,-0.32012,-0.2593,0.23011,0.881667,0.000225,0.034173,-0.017053,0.003705,0.002454,-0.002623,-0.309907,0.683813,-0.660574,0.3150951210516308
1763624556.263625,-0.320172,-0.259034,0.229828,0.881799,-0.002701,0.033818,-0.017643,0.004846,0.000922,-0.004346,-0.309663,0.683722,-0.660782,0.31483862372647986
1763624556.270076,-0.320272,-0.258762,0.229563,0.881912,-0.002441,0.030961,-0.01684,0.002406,-0.00043,-0.00536,-0.309365,0.683708,-0.660936,0.31452524603959436
1763624556.302135,-0.320326,-0.258555,0.229348,0.882009,-0.000585,0.022453,-0.012521,0.001424,-0.004534,-0.005917,-0.309163,0.683659,-0.661081,0.31431287353204573
1763624556.329846,-0.320343,-0.258392,0.229228,0.882082,0.003637,0.01092,-0.007428,0.001547,-0.004035,-0.004737,-0.308983,0.683599,-0.661228,0.3141234315992058
1763624556.330665,-0.320276,-0.258334,0.229168,0.882138,0.006714,0.002023,-0.005956,0.002148,-0.003188,-0.004023,-0.308979,0.68346,-0.661373,0.31411934209312536
1763624556.360311,-0.320222,-0.258376,0.229154,0.88215,0.002843,-0.01343,-0.007098,0.00068,9.1e-05,-0.00322,-0.309093,0.683383,-0.661399,0.31423927370493976
1763624556.387667,-0.32014,-0.258552,0.229171,0.882124,-0.003109,-0.02675,-0.001368,0.001643,-0.00051,-0.00214,-0.309416,0.683311,-0.661323,0.31457878546365103
1763624556.390002,-0.320058,-0.258797,0.229251,0.882061,-0.001597,-0.030653,0.002762,0.000657,-0.001115,-0.0016,-0.309802,0.68328,-0.661174,0.3149847968883497
1763624556.420194,-0.319985,-0.259093,0.229404,0.881961,-0.001467,-0.04306,0.00559,-0.002298,-0.000162,-0.002057,-0.310208,0.683302,-0.660961,0.3154118065725037
1763624556.446915,-0.31996,-0.259402,0.229603,0.881827,-0.006847,-0.037576,0.009723,-0.001118,-0.000691,-5.6e-05,-0.310568,0.683418,-0.660672,0.3157904998426581
1763624556.478388,-0.319959,-0.259725,0.229829,0.881673,-0.009816,-0.040342,0.011417,-0.001291,0.001473,0.001971,-0.310914,0.683583,-0.660338,0.3161546237612882
1763624556.506343,-0.320014,-0.259954,0.229984,0.881545,-0.011863,-0.025387,0.008347,0.000169,0.00266,0.005198,-0.311126,0.683785,-0.66003,0.31637745662077293
1763624556.506671,-0.32007,-0.260181,0.230138,0.881418,-0.013911,-0.010431,0.005277,0.00163,0.003847,0.008424,-0.311337,0.683986,-0.659722,0.3165995200401374
1763624556.537362,-0.32018,-0.260257,0.230171,0.881347,-0.019092,-0.003258,-0.000832,0.001328,0.00645,0.005162,-0.311361,0.684186,-0.659502,0.31662504565940913
1763624556.537708,-0.320348,-0.260287,0.230051,0.881309,-0.019669,0.012229,-0.012137,0.002223,0.003655,0.006999,-0.311393,0.684409,-0.659256,0.3166586033488216
1763624556.569867,-0.320514,-0.260218,0.229802,0.881333,-0.013879,0.021162,-0.022547,0.000485,-0.003813,0.003501,-0.311368,0.684557,-0.659115,0.31663210744276254
1763624556.5702,-0.320684,-0.260065,0.229472,0.881402,-0.014134,0.027257,-0.023862,-0.003188,-0.003339,-0.002003,-0.311268,0.68466,-0.659055,0.31652693134428656
1763624556.597704,-0.320925,-0.259999,0.229131,0.881423,-0.028907,0.02239,-0.025444,-0.002161,-0.00098,-0.002841,-0.31127,0.684889,-0.658816,0.31652905216801125
1763624556.625378,-0.321293,-0.259862,0.228768,0.881424,-0.033723,0.034404,-0.015435,0.003833,-0.005129,-0.0,-0.311094,0.685287,-0.658485,0.31634389543097696
1763624556.657597,-0.321652,-0.259628,0.228446,0.881445,-0.030116,0.043987,-0.011341,0.005148,-0.000911,-0.000169,-0.310737,0.685659,-0.658267,0.3159681243255078
1763624556.657682,-0.321978,-0.259365,0.2281,0.881493,-0.034274,0.036712,-0.013267,0.00213,0.002725,-0.003978,-0.310371,0.685966,-0.658119,0.3155832599937316
1763624556.687785,-0.322278,-0.25927,0.227767,0.881498,-0.03943,0.019556,-0.016298,0.000988,0.000537,-0.004606,-0.310283,0.686281,-0.657831,0.3154909106587474
1763624556.727712,-0.322585,-0.259453,0.227552,0.881387,-0.03488,0.001209,-0.013156,0.000693,-0.002239,-0.002392,-0.310548,0.686723,-0.657245,0.3157695587885928
1763624556.728034,-0.322892,-0.259637,0.227337,0.881276,-0.030331,-0.017139,-0.010014,0.000398,-0.005014,-0.000178,-0.310812,0.687164,-0.656659,0.31604730717154167
1763624556.74777,-0.32309,-0.259865,0.227292,0.881148,-0.021157,-0.020909,0.000732,-0.000586,-0.00531,0.000684,-0.311087,0.687511,-0.656166,0.31633651820567027
1763624556.777437,-0.323156,-0.260114,0.227345,0.881037,-0.009909,-0.026148,0.004314,-0.00437,-0.003245,0.000948,-0.311404,0.687695,-0.655823,0.31667002843000536
1763624556.777971,-0.323113,-0.260338,0.227506,0.880944,0.002081,-0.026226,0.008768,-0.002808,-0.000153,0.002747,-0.311667,0.687746,-0.655644,0.3169469230498487
1763624556.80594,-0.323,-0.260509,0.227714,0.880882,0.009722,-0.020408,0.010408,-0.001364,0.002168,0.003176,-0.311852,0.687692,-0.655613,0.3171415565886947
1763624556.837252,-0.322874,-0.260602,0.227876,0.880858,0.011499,-0.012108,0.00992,0.001594,0.002867,0.005656,-0.311956,0.687582,-0.655679,0.31725099398430084
1763624556.837526,-0.322747,-0.260599,0.227947,0.880887,0.012851,0.00508,0.002655,0.000623,0.002442,0.005092,-0.311979,0.687413,-0.655845,0.31727525314616184
1763624556.867378,-0.322675,-0.260527,0.227921,0.880941,0.007764,0.001955,-0.003985,-0.003517,0.001495,0.000602,-0.311929,0.687276,-0.656012,0.31722270044558987
1763624556.897441,-0.322615,-0.260512,0.227902,0.880973,0.005565,0.000699,-0.000982,-0.001708,-0.003763,0.000945,-0.31196,0.687173,-0.656105,0.31725536155052303
1763624556.897769,-0.322638,-0.260449,0.227939,0.880974,0.000742,0.008112,0.007422,-0.00075,-0.004649,0.000971,-0.311815,0.687203,-0.656142,0.3171028578393663
1763624556.927538,-0.322751,-0.260337,0.228005,0.880948,-0.004506,0.01149,0.014525,-1e-06,-0.002542,0.000357,-0.311509,0.68737,-0.656114,0.31678047796274145
1763624556.959707,-0.322868,-0.260203,0.228107,0.880919,-0.004684,0.015147,0.016747,0.000323,-0.000382,0.003134,-0.311138,0.687549,-0.656102,0.31639018123311363
1763624556.960047,-0.323012,-0.260005,0.228148,0.880914,-0.01083,0.023602,0.011135,0.00195,0.004572,0.001969,-0.310696,0.687731,-0.656121,0.3159250695811537
1763624556.98768,-0.323197,-0.259794,0.228083,0.880925,-0.015589,0.027747,0.004136,0.002945,0.00291,0.000777,-0.310287,0.687934,-0.656101,0.3154949621048535
1763624557.017403,-0.323377,-0.259573,0.227921,0.880966,-0.012864,0.031717,-0.005388,0.003992,0.0007,0.001177,-0.30994,0.688093,-0.656098,0.3151300274889041
1763624557.017739,-0.323531,-0.259279,0.227674,0.88106,-0.00647,0.043128,-0.011161,0.003252,-0.00051,0.001521,-0.309561,0.688163,-0.656204,0.31473131716720465
1763624557.047365,-0.323669,-0.258893,0.227404,0.881192,-0.004189,0.048302,-0.012504,0.002443,-0.000244,-3.3e-05,-0.309061,0.688176,-0.656425,0.31420574892550424
1763624557.077017,-0.323819,-0.258514,0.227127,0.88132,-0.006069,0.043082,-0.013096,0.002006,-0.000184,-0.001463,-0.308571,0.688207,-0.656624,0.3136903525115584
1763624557.07735,-0.323985,-0.258211,0.226849,0.881419,-0.010065,0.035525,-0.013401,0.000647,-0.000113,-0.001402,-0.308192,0.688284,-0.656721,0.313291994486181
1763624557.106625,-0.324157,-0.258008,0.226587,0.881483,-0.0145,0.020971,-0.015913,6.5e-05,-0.000548,-0.002629,-0.307961,0.6884,-0.656708,0.31304913770811066
1763624557.137442,-0.324314,-0.257931,0.226391,0.881498,-0.013068,0.009281,-0.010251,-0.000127,-0.002038,-0.001765,-0.307888,0.688551,-0.656584,0.31297239103210445
1763624557.137651,-0.324423,-0.257968,0.22627,0.881478,-0.012238,-0.001374,-0.003537,-0.001149,-0.002049,-0.002161,-0.307973,0.688684,-0.656404,0.3130618645195947
1763624557.167738,-0.32449,-0.258051,0.226271,0.881429,-0.007932,-0.01127,0.003845,-0.001491,-0.001596,-0.001078,-0.308062,0.688808,-0.656232,0.31315543503522325
1763624557.197264,-0.324501,-0.258186,0.226366,0.881361,-0.003048,-0.019373,0.009845,-0.000592,-0.000634,-0.000428,-0.308198,0.688895,-0.656078,0.31329813546638496
1763624557.197588,-0.32445,-0.258337,0.226534,0.881292,0.004904,-0.022321,0.011282,-0.000442,0.000989,0.001059,-0.308344,0.688915,-0.655988,0.3134516932337082
1763624557.231976,-0.324335,-0.258444,0.226729,0.881253,0.008736,-0.014553,0.011306,0.000359,0.001445,0.001965,-0.308436,0.688837,-0.656027,0.31354833447622527
1763624557.232328,-0.324216,-0.258509,0.226867,0.881242,0.01175,-0.007471,0.005881,0.001269,-0.000346,0.001919,-0.308511,0.68872,-0.656114,0.31362730060895716
1763624557.257909,-0.324078,-0.258501,0.226945,0.881275,0.014415,0.001059,0.00153,0.001058,4.1e-05,0.000685,-0.308525,0.688536,-0.656301,0.3136419139714474
1763624557.283346,-0.323956,-0.25848,0.226944,0.881327,0.012467,0.002642,-0.007132,0.000431,1.7e-05,0.000279,-0.308571,0.688342,-0.656482,0.3136904542012135
1763624557.321348,-0.323859,-0.258447,0.226877,0.881389,0.011294,0.004018,-0.011453,0.000435,-0.000767,0.000113,-0.308633,0.688163,-0.656641,0.3137555287634945
1763624557.321683,-0.323769,-0.25844,0.226785,0.881448,0.006622,0.004033,-0.010074,0.000884,-0.002223,0.000445,-0.308751,0.687992,-0.656765,0.313879524050649
1763624557.349858,-0.32372,-0.258441,0.226703,0.881487,-0.000365,0.005761,-0.007175,0.000678,-0.001243,0.001383,-0.308848,0.687889,-0.656827,0.3139815677007648
1763624557.380054,-0.323772,-0.258419,0.226612,0.881498,-0.00899,0.007105,-0.002676,0.00047,-0.000879,0.000973,-0.308851,0.68793,-0.656782,0.31398486003418163
1763624557.38028,-0.323915,-0.258366,0.226547,0.881478,-0.017466,0.008568,0.000709,0.000562,-0.000248,0.002789,-0.308723,0.688112,-0.656653,0.3138499657727286
1763624557.409895,-0.324125,-0.258324,0.22645,0.881438,-0.022586,0.005265,-0.000693,-0.000925,0.001201,0.00047,-0.308597,0.688386,-0.656424,0.3137177113216363
1763624557.439871,-0.324349,-0.258285,0.22635,0.881392,-0.023658,0.015197,-0.001197,-3e-06,0.002317,0.002478,-0.308468,0.688682,-0.656174,0.3135821176105073
1763624557.440172,-0.324602,-0.258212,0.226215,0.881355,-0.022815,0.013084,-0.006136,-0.001254,0.001821,0.002409,-0.308294,0.689003,-0.655919,0.3133991483142206
1763624557.46855,-0.324789,-0.258174,0.226058,0.881338,-0.013349,0.010208,-0.00791,-0.004818,-0.002749,0.000651,-0.308235,0.689222,-0.655717,0.31333704605925583
1763624557.497475,-0.324835,-0.258219,0.225963,0.881332,-0.003803,-0.002518,-0.005729,-0.005376,-0.002696,-0.001141,-0.308352,0.68927,-0.655611,0.31346014897176655
1763624557.497811,-0.324815,-0.258234,0.225955,0.881337,0.00884,0.003236,0.004513,0.000226,-0.006555,0.003788,-0.308395,0.689241,-0.655621,0.313505407747613
1763624557.526888,-0.324786,-0.258086,0.226032,0.881371,0.010561,0.015239,0.012961,0.000802,-0.003002,0.00193,-0.308115,0.689185,-0.655812,0.3132109664227179
1763624557.557673,-0.324748,-0.257881,0.226113,0.881424,0.00989,0.014144,0.009968,-0.000181,0.00142,-0.000411,-0.307745,0.689103,-0.656072,0.31282203690794896
1763624557.557992,-0.324699,-0.257766,0.226127,0.881473,0.004552,0.004583,0.002784,-0.001358,0.003076,-0.002875,-0.30758,0.689002,-0.656255,0.31264871646525455
1763624557.58747,-0.324645,-0.257792,0.226137,0.881482,-0.000749,-0.006297,-0.003475,-0.000323,0.002252,-0.001341,-0.307649,0.688931,-0.656298,0.3127210617717038
1763624557.617494,-0.324623,-0.25789,0.226134,0.881463,-0.000162,-0.010885,-0.002714,0.000649,-0.000798,0.00056,-0.307825,0.688921,-0.656226,0.3129060313428072
1763624557.617908,-0.324579,-0.258003,0.226189,0.881431,0.002867,-0.013595,-0.001205,-0.000227,-0.000522,0.000334,-0.307992,0.688903,-0.656166,0.31308167287825556
1763624557.647456,-0.324492,-0.258176,0.226294,0.881386,0.005467,-0.020056,0.003431,-0.00025,-0.001095,0.000995,-0.308245,0.688853,-0.6561,0.31334754476296195
1763624557.677221,-0.324423,-0.258374,0.22644,0.881315,0.003511,-0.027176,0.006161,-0.000534,0.00059,6.3e-05,-0.308494,0.688851,-0.655984,0.31360952618571686
1763624557.677566,-0.324343,-0.258573,0.226605,0.881244,0.006222,-0.027512,0.006678,8e-05,0.001579,0.001078,-0.308738,0.688839,-0.655883,0.31386579253972285
1763624557.707389,-0.324221,-0.258774,0.226758,0.881191,0.010802,-0.021699,0.004543,0.000849,0.002987,0.002952,-0.30902,0.688759,-0.655833,0.31416254842273206
1763624557.737436,-0.324071,-0.258916,0.226851,0.88118,0.015835,-0.006863,-0.002108,0.002175,0.000326,0.0065,-0.309272,0.688601,-0.655881,0.3144273418634339
1763624557.737793,-0.32392,-0.258917,0.226851,0.881236,0.015843,-0.000976,-0.006238,-0.001155,0.002238,0.001227,-0.30937,0.688371,-0.656076,0.314530435705783
1763624557.767332,-0.323769,-0.258939,0.226802,0.881297,0.014342,-0.002024,-0.010743,-0.001023,0.000844,0.00064,-0.309542,0.688129,-0.656248,0.31471146740939465
1763624557.797397,-0.323645,-0.258926,0.226729,0.881365,0.013838,0.006304,-0.007888,0.000896,-0.002745,0.002148,-0.309657,0.687912,-0.656422,0.31483224499610035
1763624557.79771,-0.323557,-0.258809,0.226682,0.881444,0.01411,0.013405,-0.003793,-0.000746,-0.004806,0.000571,-0.309563,0.687729,-0.656658,0.31473339761864694
1763624557.82742,-0.323496,-0.258661,0.226668,0.881514,0.011163,0.014034,0.001754,-0.001339,-0.002506,0.000429,-0.309374,0.687593,-0.656889,0.31453473713921803
1763624557.857408,-0.323477,-0.258539,0.226659,0.881559,0.005166,0.007192,0.003032,-0.000545,-0.001513,-0.000179,-0.309197,0.687528,-0.65704,0.31434868705958313
1763624557.857813,-0.323479,-0.258464,0.226664,0.881579,0.001334,0.004516,0.004523,-0.000746,-0.000855,3e-06,-0.309071,0.687513,-0.657115,0.3142161918918121
1763624557.899166,-0.32349,-0.258426,0.226707,0.881575,5.1e-05,0.00345,0.008163,-0.000341,-0.000391,2e-06,-0.308969,0.687536,-0.657139,0.31410892176870564
1763624557.899498,-0.32349,-0.258347,0.226785,0.881578,0.002192,0.00545,0.010793,-0.000104,0.000231,0.001109,-0.308781,0.687541,-0.657222,0.3139112839141553
1763624557.917677,-0.323506,-0.258232,0.226878,0.881582,0.005765,0.009587,0.013703,-0.000171,0.000851,0.001247,-0.308512,0.687568,-0.657321,0.3136282790298165
1763624557.946122,-0.323492,-0.25808,0.226979,0.881605,0.009785,0.013066,0.012332,-0.000724,0.002138,0.000211,-0.308198,0.687542,-0.657495,0.31329829523441993
1763624557.977262,-0.323435,-0.257907,0.227042,0.881661,0.012455,0.01651,0.006975,0.000156,0.001154,1.4e-05,-0.307906,0.687432,-0.657747,0.31299132205790664
1763624557.977748,-0.323358,-0.257708,0.227058,0.881743,0.017703,0.013987,0.000346,7.3e-05,0.000536,7e-06,-0.307624,0.687267,-0.658052,0.31269478846270304
1763624558.00763,-0.323232,-0.257527,0.227033,0.881848,0.018691,0.013892,-0.002557,9.5e-05,-0.000118,-0.000361,-0.307431,0.687018,-0.658401,0.3124921952164102
1763624558.036026,-0.323103,-0.257363,0.22699,0.881955,0.017444,0.01173,-0.005028,0.000105,-0.000422,-0.000532,-0.307282,0.686762,-0.658738,0.3123355196443302
1763624558.036348,-0.322962,-0.25724,0.226961,0.88205,0.019835,0.009392,-0.004342,0.000311,-0.002045,0.000917,-0.307199,0.686504,-0.659046,0.31224820857594277
1763624558.067849,-0.322838,-0.25712,0.226936,0.882137,0.014782,0.008548,-0.000864,0.00087,-0.004191,0.001592,-0.307103,0.686274,-0.65933,0.3121473796286747
1763624558.097662,-0.322757,-0.256999,0.226932,0.882203,0.010964,0.01074,0.003815,0.00061,-0.003451,0.002272,-0.306963,0.686116,-0.659559,0.3120004002929155
1763624558.098003,-0.32272,-0.256828,0.226985,0.882252,0.006642,0.014756,0.009939,0.000459,-0.001961,0.001434,-0.306669,0.686033,-0.659782,0.31169151507064385
1763624558.126599,-0.322723,-0.256643,0.227065,0.882284,0.004177,0.011162,0.012435,-0.00106,0.000935,5e-05,-0.306307,0.686016,-0.659968,0.3113111722840166
1763624558.16115,-0.322738,-0.256459,0.227177,0.882303,0.002194,0.012995,0.015764,-0.001103,0.001007,0.00082,-0.305911,0.68603,-0.660138,0.3108950133657376
1763624558.161456,-0.322756,-0.256286,0.227276,0.882322,0.004016,0.014032,0.014722,-0.001093,0.001814,-0.000318,-0.305544,0.686044,-0.660292,0.3105098541714118
1763624558.187776,-0.322746,-0.256128,0.22736,0.88235,0.00685,0.016702,0.010902,-0.000226,0.002105,0.000833,-0.30523,0.686015,-0.660467,0.310180171650347
1763624558.217619,-0.322704,-0.255953,0.227407,0.882404,0.012811,0.01574,0.006302,-0.000444,0.001657,-0.000306,-0.304939,0.685921,-0.6607,0.30987439370690206
1763624558.218179,-0.322613,-0.255772,0.227417,0.882487,0.017916,0.013771,0.001654,-7.5e-05,0.0016,-0.000933,-0.304696,0.685737,-0.661003,0.309619259739255
1763624558.247274,-0.322488,-0.255606,0.227402,0.882585,0.019606,0.013324,-0.0041,-0.00037,0.001415,-0.001154,-0.304519,0.685497,-0.661334,0.30943330615353815
1763624558.27984,-0.322344,-0.255473,0.227375,0.882683,0.019397,0.006771,-0.006403,-0.001395,0.000657,-0.001452,-0.304418,0.685231,-0.661656,0.30932729007566256
1763624558.280163,-0.322148,-0.255425,0.227356,0.882773,0.02111,-0.003265,-0.010325,-0.002519,-0.002163,-0.000659,-0.304479,0.684913,-0.661957,0.3093913549796306
1763624558.310677,-0.321911,-0.255487,0.227335,0.882847,0.023731,-0.013501,-0.012236,-0.002927,-0.002739,-0.001051,-0.304749,0.684559,-0.662199,0.3096748035966014
1763624558.340161,-0.321621,-0.255633,0.227353,0.882906,0.029244,-0.020788,-0.011559,-0.003156,-0.003775,0.000229,-0.305157,0.684159,-0.662424,0.31010330657379387
1763624558.340507,-0.321285,-0.255791,0.227409,0.882968,0.03023,-0.02269,-0.011762,-0.003568,-0.004752,0.001279,-0.305584,0.683706,-0.662694,0.3105518984143308
1763624558.371706,-0.320932,-0.255948,0.227464,0.883037,0.029322,-0.021132,-0.008931,-0.005984,-0.004119,0.000302,-0.306022,0.683227,-0.662987,0.31101168829424986
1763624558.400123,-0.320388,-0.256188,0.227564,0.883139,0.016419,0.001285,-3.2e-05,0.001589,-0.003307,0.005722,-0.306682,0.682492,-0.663439,0.31170500473128454
1763624558.39984,-0.320607,-0.256123,0.227517,0.88309,0.023435,-0.02292,-0.007286,-0.004458,-0.001799,0.001077,-0.306472,0.682794,-0.663225,0.3114844375093065
1763624558.430042,-0.320297,-0.256,0.227558,0.883228,0.008553,0.026429,0.003567,0.001827,0.000902,0.004668,-0.30644,0.682301,-0.663747,0.31145080802920716
1763624558.460029,-0.320301,-0.255688,0.227441,0.883347,0.000911,0.039101,-0.003924,0.000787,0.003699,0.001829,-0.306023,0.682181,-0.664063,0.3110126902976722
1763624558.46034,-0.320356,-0.255372,0.227215,0.883477,-0.003762,0.042189,-0.012953,0.000393,0.001846,0.000913,-0.30565,0.682103,-0.664315,0.31062088891802037
1763624558.487356,-0.320455,-0.255063,0.226934,0.883602,-0.003388,0.041718,-0.017762,0.001222,-0.001282,0.002157,-0.305304,0.682074,-0.664504,0.31025748848497053
1763624558.487678,-0.320553,-0.254753,0.226653,0.883728,-0.003013,0.041247,-0.022571,0.002052,-0.004409,0.0034,-0.304957,0.682045,-0.664693,0.3098931280507042
1763624558.517645,-0.320637,-0.254431,0.226338,0.883871,0.004324,0.042237,-0.014033,0.002392,-0.006468,0.001369,-0.304623,0.681978,-0.664914,0.309542625729909
1763624558.545171,-0.320626,-0.25406,0.226135,0.884034,0.017463,0.036538,-0.008789,0.003356,-0.00472,-0.001644,-0.304185,0.681791,-0.665306,0.3090828416741203
1763624558.545639,-0.320539,-0.253758,0.226049,0.884174,0.016983,0.030521,-8.4e-05,-3.5e-05,-0.000827,-0.002039,-0.303818,0.681548,-0.665723,0.3086975117627948
1763624558.577362,-0.320452,-0.253486,0.226021,0.884291,0.013687,0.015094,-0.001395,-0.000313,0.004152,-0.005675,-0.303452,0.681332,-0.666111,0.30831335883920075
1763624558.6077,-0.32034,-0.253325,0.226035,0.884374,0.01372,0.010528,0.002849,0.000309,0.003058,-0.004434,-0.303252,0.681121,-0.666417,0.30810363796946244
1763624558.607802,-0.320232,-0.253232,0.226071,0.88443,0.012833,0.00448,-0.002013,0.004307,0.007169,-0.002512,-0.303141,0.680942,-0.666651,0.3079870245658128
1763624558.637743,-0.320111,-0.253098,0.226034,0.884522,0.017835,0.017171,-0.00628,0.003022,-0.000173,-0.001858,-0.303029,0.680708,-0.666941,0.30786946076026933
1763624558.66662,-0.319964,-0.253018,0.225925,0.884625,0.020344,-0.002459,-0.020522,-0.002584,0.001882,-0.006452,-0.303077,0.680424,-0.667209,0.30791981607869673
1763624558.666953,-0.31967,-0.253118,0.225807,0.884734,0.023997,-0.014589,-0.022443,0.000401,-0.001814,-0.00096,-0.303517,0.679957,-0.667485,0.3083815695957258
1763624558.697829,-0.319407,-0.253185,0.225775,0.884818,0.026773,-0.008787,-0.017951,-0.000292,-0.008474,-0.00091,-0.303817,0.679559,-0.667754,0.30869639162055806
1763624558.725673,-0.319112,-0.253259,0.225801,0.884896,0.024288,-0.018979,-0.007558,-0.004849,-0.005525,-0.003674,-0.304104,0.679135,-0.668054,0.3089977844073818
1763624558.725994,-0.31885,-0.253404,0.225939,0.884914,0.021136,-0.030133,0.000585,-0.006201,-0.00845,-0.004822,-0.304401,0.678818,-0.668241,0.309309542855706
1763624558.757821,-0.318577,-0.253675,0.22614,0.884883,0.015212,-0.038181,0.010168,-0.004935,-0.008862,-0.003131,-0.304859,0.678539,-0.668315,0.3097905186032878
1763624558.786524,-0.318415,-0.253935,0.226395,0.884802,0.005304,-0.037839,0.013522,-0.003875,-0.005187,-0.001404,-0.305189,0.678448,-0.668258,0.31013676832446685
1763624558.786856,-0.318332,-0.25418,0.22665,0.884696,-0.008132,-0.024587,0.021517,-0.000634,-0.005894,0.004097,-0.305444,0.678474,-0.668114,0.31040478671940197
1763624558.817783,-0.318438,-0.254258,0.226877,0.884577,-0.01628,-0.005892,0.026193,0.001083,-0.004119,0.005482,-0.30533,0.678737,-0.667899,0.310285055390232
1763624558.844842,-0.318646,-0.254226,0.227009,0.884478,-0.027236,0.012157,0.020926,0.002635,-0.000174,0.004547,-0.305044,0.679094,-0.667667,0.30998467494442977
1763624558.84517,-0.318987,-0.254032,0.226986,0.884416,-0.033214,0.030568,0.012772,0.003098,0.002258,0.004949,-0.304529,0.679558,-0.66743,0.30944393679964255
1763624558.877691,-0.319365,-0.253729,0.226827,0.884408,-0.031805,0.043425,0.001048,0.003296,0.003191,0.001757,-0.303919,0.680003,-0.667255,0.30880353944629435
1763624558.907227,-0.319729,-0.253396,0.226536,0.884446,-0.031255,0.048735,-0.011698,0.003278,0.000636,0.001595,-0.303371,0.680372,-0.667128,0.30822842869391015
1763624558.907553,-0.320072,-0.253068,0.226166,0.884511,-0.023837,0.049084,-0.014045,0.002077,-7e-06,-0.000733,-0.302904,0.680686,-0.667021,0.3077381333639979
1763624558.937667,-0.320363,-0.252747,0.225858,0.884576,-0.017374,0.039297,-0.010912,0.000422,-0.001234,-0.001299,-0.302435,0.68094,-0.666974,0.3072461717250835
1763624558.964268,-0.320563,-0.252522,0.225645,0.884622,-0.009482,0.026406,-0.002378,0.000841,-0.003757,-0.002575,-0.302105,0.681115,-0.666945,0.30689994950530275
1763624558.96641,-0.320703,-0.252338,0.225563,0.884645,-0.004176,0.012289,-0.000258,0.001834,-0.001778,-0.003592,-0.301782,0.681253,-0.666949,0.30656140691562345
1763624558.997751,-0.32076,-0.25221,0.225581,0.884656,0.000118,0.008065,0.005717,0.002183,-0.000189,-0.005046,-0.301523,0.681312,-0.667007,0.30628951461344933
1763624559.026578,-0.320732,-0.252145,0.225616,0.884676,0.003323,-0.001753,0.004011,0.002207,0.001267,-0.00282,-0.301409,0.681264,-0.667107,0.3061700670616264
1763624559.026908,-0.320679,-0.252144,0.225687,0.884677,0.002113,-0.003478,0.004076,0.004608,0.002244,-0.002958,-0.301386,0.681206,-0.667177,0.30614586439546493
1763624559.057129,-0.320662,-0.252155,0.22573,0.884669,-0.004135,-0.001927,0.003715,0.004395,0.00156,-0.002248,-0.301382,0.681198,-0.667187,0.3061416640694733
1763624559.089397,-0.320649,-0.252412,0.225781,0.884588,-0.009795,-0.019165,-0.004183,0.00343,0.001062,-0.002398,-0.301768,0.681264,-0.666945,0.30654653200288434
1763624559.089121,-0.320664,-0.252214,0.225754,0.884645,-0.003073,-0.016223,-0.003165,0.003311,0.000493,-0.004974,-0.301458,0.681225,-0.667125,0.3062213910452343
1763624559.115776,-0.320669,-0.252624,0.225856,0.884501,-0.007484,-0.022242,-0.001084,0.00042,-0.00174,-0.004437,-0.302042,0.681377,-0.666705,0.3068340466967117
1763624559.144908,-0.320611,-0.252905,0.225975,0.884411,0.001871,-0.044536,-0.000942,-0.003778,-0.001529,-0.004774,-0.302444,0.681405,-0.666495,0.30725558175714324
1763624559.145246,-0.320527,-0.25325,0.226135,0.884302,-0.005253,-0.040706,0.004786,-0.002755,-0.003437,0.000971,-0.302935,0.681423,-0.666253,0.3077708681177837
1763624559.179193,-0.320508,-0.25354,0.226375,0.884164,-0.003896,-0.038106,0.013457,-0.002698,-0.003138,0.002405,-0.303233,0.681554,-0.665983,0.30808365878090305
1763624559.207809,-0.320509,-0.253835,0.226644,0.88401,-0.008659,-0.029562,0.022211,-0.003012,-0.003816,0.004478,-0.303503,0.681727,-0.665683,0.3083669858076847
1763624559.209991,-0.320506,-0.254042,0.22693,0.883878,-0.00503,-0.032866,0.019622,-0.003554,-0.001639,0.001243,-0.30362,0.681876,-0.665477,0.3084897816654632
1763624559.240289,-0.320579,-0.254245,0.227154,0.883736,-0.012902,-0.020417,0.025699,-4.9e-05,-0.004354,0.005584,-0.303729,0.68212,-0.665177,0.30860421296720353
1763624559.266574,-0.320697,-0.254387,0.227396,0.88359,-0.015012,-0.01259,0.023043,3.5e-05,-0.00557,0.006992,-0.303697,0.682423,-0.664882,0.30857036324191717
1763624559.269082,-0.320869,-0.254383,0.227588,0.88348,-0.014387,-0.009744,0.021213,-0.00712,-0.000924,-2e-05,-0.303434,0.682751,-0.664665,0.30829440321680734
1763624559.300906,-0.321015,-0.254512,0.227763,0.883344,-0.020309,-0.011268,0.021925,-0.001455,0.002165,0.00337,-0.303412,0.683071,-0.664346,0.3082713532830832
1763624559.330006,-0.321542,-0.254227,0.227984,0.883178,-0.020773,0.036525,0.017899,0.0014,0.004869,0.004338,-0.302443,0.683876,-0.663959,0.30725469553986656
1763624559.329724,-0.321245,-0.254482,0.227925,0.883227,-0.018574,0.016865,0.023651,0.004489,-0.000425,0.006804,-0.303091,0.683471,-0.66408,0.3079347184083216
1763624559.36032,-0.321801,-0.253973,0.227889,0.883181,-0.019661,0.028786,0.003528,0.000419,0.005107,6e-06,-0.301939,0.684173,-0.663883,0.3067258519803599
1763624559.387697,-0.322058,-0.253876,0.227726,0.883157,-0.024309,0.011591,-0.00894,-0.001074,0.004712,0.000558,-0.301743,0.684485,-0.66365,0.3065203604213713
1763624559.389958,-0.32234,-0.253895,0.227523,0.883101,-0.026664,0.007845,-0.011049,0.00053,0.001158,-1.7e-05,-0.30175,0.684852,-0.663268,0.3065277203090274
1763624559.420412,-0.322575,-0.253983,0.227377,0.883028,-0.019845,-0.000982,-0.004303,-0.000403,-0.002865,0.000791,-0.301855,0.685185,-0.662877,0.30663768520904316
1763624559.450402,-0.322724,-0.254067,0.227379,0.882949,-0.011083,-0.011886,0.003049,-0.002383,-0.004251,-0.000983,-0.301895,0.685436,-0.662598,0.30667990095571646
1763624559.45074,-0.322771,-0.254224,0.227474,0.882862,-0.000486,-0.022709,0.010272,-0.003398,-0.001839,0.000295,-0.302046,0.685583,-0.662378,0.30683809883222296
1763624559.480163,-0.322725,-0.25441,0.227695,0.882768,0.006527,-0.024438,0.012078,-0.000884,0.000712,0.001144,-0.302204,0.685638,-0.662248,0.3070040524455418
1763624559.50752,-0.32259,-0.254602,0.227929,0.882702,0.010288,-0.027469,0.011124,-0.000201,0.001292,0.002395,-0.30242,0.685563,-0.662228,0.30723045418455386
1763624559.509843,-0.322398,-0.254746,0.228105,0.882684,0.013207,-0.023949,0.00269,0.002518,0.001698,0.003897,-0.30264,0.68537,-0.662327,0.30746132512689267
1763624559.539014,-0.322228,-0.254811,0.228177,0.882709,0.013902,-0.003798,0.00101,0.002617,-0.002363,0.002855,-0.302798,0.685151,-0.662481,0.3076271772487544
1763624559.567962,-0.322088,-0.254851,0.228181,0.882748,0.005698,-0.014699,-0.011488,-0.001099,0.002331,-0.003619,-0.302949,0.684949,-0.662621,0.30778558391237326
1763624559.568255,-0.322061,-0.25501,0.228144,0.882721,-0.005621,-0.008972,-0.006657,0.002412,-0.00481,-0.000408,-0.303252,0.684939,-0.662493,0.3081034829494479
1763624559.597967,-0.322172,-0.255091,0.228106,0.882667,-0.015002,-0.004363,-0.001449,0.001751,-0.006314,-0.003262,-0.303342,0.685117,-0.662268,0.30819786942724803
1763624559.625569,-0.322359,-0.255191,0.228096,0.882572,-0.029185,-0.014077,0.002116,0.001279,-0.006758,-0.006006,-0.303392,0.685427,-0.661924,0.3082503926766716
1763624559.625911,-0.322638,-0.255398,0.228139,0.8824,-0.040855,-0.024706,0.012155,3.1e-05,-0.008913,-0.007967,-0.303514,0.685925,-0.661352,0.3083784202152311
1763624559.657681,-0.323006,-0.25574,0.228268,0.882133,-0.054223,-0.039634,0.021018,0.001225,-0.009474,-0.00918,-0.303729,0.686622,-0.660529,0.30860418188588307
1763624559.685802,-0.323462,-0.256155,0.228517,0.88178,-0.06172,-0.04904,0.032579,0.000986,-0.00646,-0.006351,-0.303911,0.687517,-0.659514,0.30879511612440064
1763624559.686141,-0.323967,-0.256621,0.228839,0.881376,-0.073379,-0.053476,0.03802,0.001608,-0.004416,-0.003727,-0.304087,0.688524,-0.658382,0.3089797282767682
1763624559.717826,-0.324591,-0.257064,0.229159,0.880934,-0.08918,-0.045704,0.045108,0.000769,-0.000956,-0.003089,-0.304146,0.689704,-0.657117,0.30904196686494284
1763624559.748046,-0.32536,-0.257456,0.229432,0.880465,-0.098159,-0.035657,0.041963,0.003026,0.000162,-0.001748,-0.304066,0.691074,-0.655714,0.30895781284199453
1763624559.748345,-0.326245,-0.257766,0.229632,0.879994,-0.109954,-0.022199,0.043154,0.003983,2.5e-05,0.000114,-0.303833,0.69257,-0.654242,0.3087132360660641
1763624559.775754,-0.327299,-0.258024,0.229768,0.879492,-0.129294,-0.016696,0.042732,-0.000418,0.001705,-0.00505,-0.303455,0.694285,-0.652598,0.30831643198106934
1763624559.806758,-0.328543,-0.258334,0.229873,0.878909,-0.151093,-0.028511,0.04484,-0.004278,0.001761,-0.009555,-0.303059,0.696287,-0.650645,0.30790109907568197
1763624559.807057,-0.329978,-0.25878,0.23,0.878207,-0.173617,-0.030742,0.05622,-0.00678,-0.00573,-0.011656,-0.302736,0.698616,-0.648295,0.3075620903872419
1763624559.837765,-0.331585,-0.259286,0.230228,0.877392,-0.188846,-0.049482,0.067703,-0.011671,-0.014448,-0.014302,-0.30231,0.701251,-0.645644,0.30711504165316167
1763624559.865562,-0.33332,-0.259931,0.230584,0.87645,-0.203863,-0.062371,0.089232,-0.013794,-0.018624,-0.010152,-0.301917,0.704148,-0.642667,0.3067029868158044
1763624559.865862,-0.335184,-0.260615,0.231137,0.87539,-0.223888,-0.067971,0.112851,-0.013883,-0.020639,-0.008056,-0.301332,0.707309,-0.639463,0.30608928857951456
1763624559.897648,-0.337241,-0.26125,0.231792,0.874236,-0.244475,-0.05972,0.129179,-0.010756,-0.018011,-0.00508,-0.300448,0.710768,-0.636034,0.3051624148754362
1763624559.925595,-0.339508,-0.261791,0.232483,0.873013,-0.267611,-0.039071,0.14654,-0.008487,-0.016832,0.000559,-0.299233,0.714514,-0.632399,0.30388885598456894
1763624559.925921,-0.342042,-0.262146,0.233132,0.871743,-0.289641,-0.010263,0.157598,-0.005703,-0.013685,0.002639,-0.297565,0.718575,-0.628573,0.30214126093945715
1763624559.957647,-0.34491,-0.262283,0.233666,0.870428,-0.3237,0.017859,0.159908,-0.00655,-0.006514,0.001635,-0.295409,0.723013,-0.624489,0.2998834747373732
1763624559.986572,-0.348118,-0.262335,0.233958,0.869056,-0.356986,0.036549,0.147555,-0.004892,-0.003378,0.001515,-0.293078,0.727818,-0.619989,0.29744460578294407
1763624559.986914,-0.351588,-0.262283,0.23403,0.867654,-0.377297,0.061071,0.134803,-0.002967,-0.002017,0.002237,-0.290578,0.732877,-0.615187,0.294830950818725
1763624560.016962,-0.355213,-0.262119,0.233808,0.866286,-0.388583,0.085908,0.116176,-0.001975,0.001118,0.001735,-0.288037,0.738003,-0.610234,0.29217643765398543
1763624560.045122,-0.358902,-0.261882,0.233343,0.864962,-0.394852,0.098182,0.103121,0.000121,-0.001013,0.001962,-0.285541,0.743089,-0.605215,0.2895708649452834
1763624560.045434,-0.362661,-0.261532,0.232753,0.863657,-0.393293,0.115213,0.102151,-0.001981,-0.004077,0.003062,-0.282928,0.748175,-0.600155,0.28684545586488314
1763624560.077789,-0.366459,-0.261139,0.232116,0.862344,-0.399437,0.11692,0.100079,-0.002564,-0.007008,-0.000475,-0.280261,0.753256,-0.595029,0.2840659452857763
1763624560.105601,-0.370314,-0.260668,0.231478,0.86101,-0.398767,0.118233,0.106932,-0.004937,-0.01321,-0.003366,-0.277437,0.758365,-0.58984,0.2811253547983441
1763624560.105929,-0.374133,-0.260214,0.230924,0.859644,-0.398229,0.109541,0.110335,-0.009107,-0.011596,-0.009255,-0.27459,0.763422,-0.584626,0.2781632326090109
1763624560.13584,-0.37791,-0.25983,0.23044,0.858236,-0.395415,0.097658,0.11727,-0.010257,-0.015157,-0.009841,-0.27182,0.768423,-0.579344,0.27528380734832814
1763624560.164523,-0.381582,-0.259515,0.230114,0.856793,-0.386465,0.083606,0.129344,-0.009518,-0.019417,-0.005642,-0.269086,0.77331,-0.574094,0.2724439651414339
1763624560.198019,-0.38517,-0.259253,0.229984,0.855301,-0.379337,0.053545,0.142343,-0.015008,-0.014018,-0.012077,-0.266313,0.77812,-0.568864,0.269565915343818
1763624560.198315,-0.388572,-0.259214,0.230134,0.853732,-0.360382,0.023783,0.162166,-0.010077,-0.015209,-0.006211,-0.263752,0.782781,-0.563639,0.26690986148200885
1763624560.226038,-0.391759,-0.25916,0.23059,0.852167,-0.329443,0.018965,0.189245,-0.003156,-0.016785,-0.000359,-0.261023,0.787208,-0.558722,0.26408182823141096
1763624560.226373,-0.394783,-0.258994,0.231334,0.850619,-0.309579,0.011894,0.204985,-0.004452,-0.007431,0.000533,-0.257958,0.791448,-0.554137,0.2609080637859947
1763624560.25783,-0.397613,-0.258869,0.232236,0.849092,-0.287487,5e-05,0.208905,-0.001276,-0.003817,0.006445,-0.254927,0.795458,-0.549781,0.25777216160736544
1763624560.286263,-0.400208,-0.258795,0.233205,0.847629,-0.266123,-0.008774,0.192931,0.001326,0.004797,0.0115,-0.252063,0.79916,-0.545717,0.2548115647713016
1763624560.286604,-0.402658,-0.258655,0.234013,0.846287,-0.244704,0.016067,0.169985,0.006789,0.003141,0.019261,-0.249339,0.802586,-0.541928,0.25199761401504506
1763624560.317793,-0.404939,-0.25837,0.234613,0.845119,-0.222173,0.033203,0.14842,0.005229,0.006935,0.014937,-0.246699,0.805678,-0.538538,0.24927241150171617
1763624560.347652,-0.407045,-0.258117,0.235036,0.844066,-0.199972,0.027048,0.123726,0.006944,0.00497,0.016191,-0.244394,0.80848,-0.53538,0.24689468192378086
1763624560.347998,-0.409061,-0.257712,0.235321,0.843136,-0.186744,0.066179,0.116491,0.01072,-0.001927,0.015006,-0.242052,0.811077,-0.532507,0.24448033760500426
1763624560.377728,-0.411038,-0.257127,0.235517,0.842298,-0.171284,0.063207,0.107583,0.001963,-0.000679,0.003803,-0.239541,0.813548,-0.529867,0.2418931487458499
1763624560.405632,-0.412868,-0.256613,0.235705,0.841507,-0.161234,0.065831,0.099975,0.006757,-0.010339,0.005036,-0.237253,0.815831,-0.52738,0.2395372701639302
1763624560.437151,-0.414611,-0.256016,0.235847,0.840791,-0.155619,0.068429,0.097944,0.001614,-0.01239,-0.003344,-0.234942,0.817964,-0.525106,0.2371589989885172
1763624560.437329,-0.416378,-0.255449,0.23599,0.84005,-0.167184,0.049386,0.092909,-0.006093,-0.007347,-0.013852,-0.232659,0.820123,-0.522751,0.23481075269113388
1763624560.467444,-0.418131,-0.255202,0.236147,0.83921,-0.182784,0.02177,0.094072,-0.007721,-0.011585,-0.011234,-0.230855,0.82233,-0.520076,0.23295636258269733
1763624560.497416,-0.419953,-0.255137,0.236425,0.838241,-0.199873,0.012296,0.105489,-0.004039,-0.01449,-0.004481,-0.229156,0.824686,-0.517089,0.2312104617474432
1763624560.497768,-0.421826,-0.255096,0.236806,0.837205,-0.203107,0.000388,0.107582,-0.002023,-0.01571,0.001843,-0.227353,0.827126,-0.513978,0.22935861153543535
1763624560.527392,-0.423596,-0.254976,0.237205,0.836234,-0.186703,0.018304,0.118224,0.002838,-0.01617,0.008403,-0.225481,0.829414,-0.511108,0.22743664684238218
1763624560.57093,-0.425265,-0.254617,0.237485,0.835416,-0.179036,0.040092,0.108433,0.00812,-0.013137,0.014471,-0.223433,0.831483,-0.508639,0.22533510631672135
1763624560.571279,-0.426933,-0.254256,0.237764,0.834595,-0.171368,0.061881,0.098641,0.0134,-0.010091,0.020532,-0.221383,0.83354,-0.506163,0.22323239300461725
1763624560.571597,-0.428674,-0.253592,0.237755,0.833908,-0.173343,0.100914,0.089839,0.013534,-0.010532,0.017561,-0.219105,0.835535,-0.50386,0.2208970154255693
1763624560.618611,-0.430581,-0.252765,0.237498,0.833249,-0.189014,0.116236,0.080845,0.01056,-0.012627,0.010764,-0.216709,0.837625,-0.501419,0.21844215318276683
1763624560.618954,-0.432701,-0.251926,0.237145,0.832506,-0.216593,0.119914,0.086521,0.007095,-0.016034,0.000772,-0.214234,0.839937,-0.498607,0.21590763040773997
1763624560.646266,-0.435108,-0.251147,0.236836,0.831574,-0.239876,0.101809,0.096953,5.6e-05,-0.016848,-0.008635,-0.211597,0.84261,-0.495212,0.21320868887126657
1763624560.67723,-0.437695,-0.250539,0.236682,0.830442,-0.2637,0.075275,0.111212,-0.003755,-0.018497,-0.014419,-0.208927,0.845558,-0.491306,0.21047757313344592
1763624560.67748,-0.440352,-0.250149,0.236726,0.829142,-0.280089,0.041795,0.124973,-0.005723,-0.018368,-0.014671,-0.206333,0.848662,-0.487032,0.2078257563387642
1763624560.702064,-0.443049,-0.249953,0.236955,0.827698,-0.300552,0.025709,0.145694,-0.002668,-0.017532,-0.010502,-0.203806,0.851876,-0.482463,0.20524393856146506
1763624560.737089,-0.445914,-0.249831,0.237397,0.826067,-0.332388,0.007087,0.17089,-0.008732,-0.010887,-0.007753,-0.201037,0.855329,-0.477489,0.2024164889406733
1763624560.737455,-0.44899,-0.24994,0.238073,0.824172,-0.363044,-0.02718,0.192348,-0.009622,-0.002972,0.000267,-0.198203,0.859098,-0.471876,0.19952413043897127
1763624560.762247,-0.452199,-0.250192,0.238958,0.822082,-0.374407,-0.040774,0.213493,-0.006469,0.001098,0.010539,-0.195244,0.86306,-0.46584,0.19650626298791884
1763624560.797314,-0.45543,-0.250421,0.240025,0.819915,-0.364989,-0.041275,0.226021,-0.002638,0.00759,0.016756,-0.192019,0.867042,-0.459746,0.19321906552569587
1763624560.797745,-0.458579,-0.250491,0.241132,0.817811,-0.344189,-0.019353,0.230428,0.002153,0.012036,0.023693,-0.188553,0.870864,-0.45392,0.1896885368116148
1763624560.822268,-0.461651,-0.250335,0.242152,0.815827,-0.318187,0.006711,0.229266,0.002516,0.012322,0.026585,-0.18488,0.874493,-0.448422,0.18594967023331285
1763624560.857183,-0.46461,-0.249995,0.243066,0.813977,-0.298695,0.024298,0.21742,0.003352,0.018526,0.028563,-0.181119,0.877894,-0.44328,0.1821242309639333
1763624560.857514,-0.467488,-0.249605,0.243802,0.812227,-0.287272,0.039532,0.192875,0.006331,0.026713,0.02991,-0.177522,0.881121,-0.438305,0.17846792332657901
1763624560.882216,-0.470342,-0.249195,0.244261,0.810566,-0.281854,0.050204,0.161583,0.004995,0.032155,0.024228,-0.174206,0.884223,-0.433361,0.17509939880877948
1763624560.91734,-0.473097,-0.248873,0.244456,0.809001,-0.274636,0.049786,0.125851,0.003776,0.029091,0.022845,-0.171375,0.887149,-0.428482,0.1722251855933192
1763624560.91765,-0.475735,-0.248616,0.244389,0.807552,-0.266249,0.067534,0.1052,0.000689,0.018136,0.02149,-0.169013,0.88988,-0.423732,0.16982812370507172
1763624560.942135,-0.47839,-0.248412,0.244189,0.806105,-0.272523,0.043726,0.085698,-0.004854,0.019559,0.010262,-0.166857,0.892585,-0.418868,0.16764114588575046
1763624560.977324,-0.480926,-0.248333,0.243978,0.804684,-0.254702,0.043863,0.088984,-0.000357,0.004184,0.013744,-0.164989,0.895162,-0.414082,0.16574683511069613
1763624560.977477,-0.483384,-0.248036,0.243842,0.803342,-0.247351,0.063435,0.101102,-7.7e-05,0.011358,0.010013,-0.162777,0.89761,-0.409635,0.16350446734145513
1763624561.00212,-0.48576,-0.247593,0.24371,0.802085,-0.227341,0.080354,0.106153,0.001222,0.005775,0.013852,-0.160412,0.899924,-0.405469,0.16110801769785196
1763624561.0372,-0.487891,-0.246971,0.243572,0.801025,-0.197947,0.092461,0.097844,-0.000588,0.004993,0.011867,-0.157988,0.901936,-0.401935,0.15865268923185089
1763624561.037453,-0.489756,-0.246323,0.243417,0.800132,-0.170185,0.072985,0.089931,-0.006136,0.002211,0.00356,-0.155752,0.903658,-0.398927,0.15638876004475602
1763624561.062426,-0.491461,-0.245773,0.24333,0.799282,-0.164142,0.06786,0.09159,-0.004371,0.001121,0.001716,-0.15371,0.905241,-0.396122,0.1543217534537978
1763624561.097345,-0.495114,-0.244571,0.243141,0.797452,-0.190037,0.092448,0.098482,0.010228,-0.000601,0.010547,-0.149302,0.908589,-0.390095,0.1498623858555968
1763624561.097109,-0.49322,-0.245225,0.24327,0.798385,-0.176384,0.073908,0.094937,0.002449,0.000552,0.003792,-0.151596,0.906871,-0.393197,0.15218271668558453
1763624561.127102,-0.49719,-0.243774,0.242837,0.796497,-0.219808,0.117716,0.101098,0.009801,0.004202,0.009847,-0.146858,0.910415,-0.386753,0.14739103121487626
1763624561.157334,-0.499567,-0.242934,0.242391,0.795401,-0.260597,0.123592,0.098534,0.004594,0.0062,0.005382,-0.144277,0.912482,-0.382832,0.14478231868333982
1763624561.157526,-0.502172,-0.242214,0.241887,0.794133,-0.273816,0.109179,0.092035,0.004026,-0.001453,0.003329,-0.141762,0.914759,-0.378312,0.14224113214658662
1763624561.182221,-0.504746,-0.241573,0.241436,0.792832,-0.267056,0.100496,0.090913,0.006844,-0.000172,0.007537,-0.139326,0.917006,-0.373749,0.13978073975124786
1763624561.217397,-0.507259,-0.240957,0.241029,0.791539,-0.260841,0.092955,0.088486,0.008298,0.003856,0.010688,-0.136926,0.919185,-0.369257,0.13735747909013224
1763624561.217701,-0.509695,-0.240382,0.240607,0.790275,-0.256683,0.099688,0.087561,0.010048,0.011416,0.016006,-0.134664,0.921275,-0.364854,0.13507433475010636
1763624561.242184,-0.51208,-0.2398,0.240146,0.78905,-0.256928,0.092542,0.077413,0.009715,0.016326,0.015449,-0.132481,0.923287,-0.36054,0.13287168092646123
1763624561.277188,-0.514432,-0.239248,0.239693,0.787824,-0.248712,0.094857,0.07568,0.010608,0.012813,0.021006,-0.130359,0.925257,-0.35624,0.1307310002080395
1763624561.277401,-0.516702,-0.238698,0.239264,0.786635,-0.235901,0.088868,0.073863,0.00918,0.012421,0.021946,-0.12828,0.927136,-0.352084,0.1286344510765772
1763624561.302284,-0.518842,-0.238246,0.238912,0.78547,-0.218437,0.066912,0.070604,0.009311,0.008311,0.022426,-0.126354,0.92891,-0.348083,0.12669259557375515
1763624561.337311,-0.520849,-0.237865,0.238636,0.78434,-0.206259,0.060046,0.073987,0.009181,0.006929,0.022238,-0.124548,0.930572,-0.344274,0.12487220586462551
1763624561.337639,-0.522787,-0.237556,0.238504,0.783184,-0.198474,0.050501,0.077756,0.012525,0.007054,0.026001,-0.122726,0.932193,-0.340522,0.1230361405839516
1763624561.362182,-0.524616,-0.237205,0.238448,0.782083,-0.176356,0.053521,0.0849,0.017436,0.002871,0.029278,-0.120841,0.933709,-0.337024,0.12113703383839752
1763624561.397289,-0.52634,-0.236705,0.23843,0.781082,-0.166055,0.060057,0.089163,0.018463,0.010243,0.028401,-0.118782,0.935104,-0.333875,0.11906303759941149
1763624561.397661,-0.52806,-0.236132,0.238396,0.780104,-0.165484,0.069013,0.087317,0.0199,0.01581,0.028148,-0.116641,0.936469,-0.330789,0.11690707881464378
1763624561.421503,-0.52976,-0.235529,0.238302,0.779162,-0.157661,0.069652,0.083146,0.019927,0.015959,0.027057,-0.114545,0.937791,-0.327762,0.11479694725701457
1763624561.457452,-0.531394,-0.234882,0.238211,0.778271,-0.147593,0.070517,0.080283,0.02063,0.021996,0.028544,-0.112436,0.939041,-0.324901,0.11267422877495743
1763624561.457813,-0.533038,-0.234252,0.238125,0.777363,-0.148865,0.065738,0.077019,0.019844,0.024667,0.02975,-0.110337,0.940291,-0.321993,0.11056206336870503
1763624561.48244,-0.534662,-0.233651,0.238042,0.776454,-0.144105,0.066246,0.070729,0.021326,0.026847,0.032689,-0.108294,0.941517,-0.319089,0.10850681573647522
1763624561.515989,-0.5362,-0.233024,0.237903,0.775623,-0.13316,0.075115,0.068523,0.024379,0.027792,0.03439,-0.106351,0.942653,-0.316379,0.10655246109945919
1763624561.516325,-0.537657,-0.232329,0.237694,0.774887,-0.114378,0.086118,0.061158,0.024196,0.027698,0.035399,-0.104462,0.943693,-0.313896,0.10465295295610472
1763624561.542128,-0.538971,-0.231592,0.237471,0.774263,-0.101687,0.080331,0.049217,0.022224,0.030667,0.034042,-0.102647,0.944603,-0.31175,0.10282815143206145
1763624561.570867,-0.540237,-0.230927,0.237172,0.77367,-0.104705,0.078911,0.042868,0.019577,0.029782,0.032274,-0.101064,0.94547,-0.309633,0.10123683664962102
1763624561.575359,-0.541499,-0.230337,0.236875,0.773055,-0.107836,0.077681,0.041892,0.018143,0.025684,0.032869,-0.099591,0.946339,-0.307447,0.09975639279465662
1763624561.601847,-0.542785,-0.229766,0.23661,0.772404,-0.109995,0.071262,0.045715,0.016599,0.021149,0.032639,-0.098088,0.947228,-0.305184,0.09824600210405224
1763624561.636498,-0.544088,-0.229209,0.236372,0.771725,-0.106968,0.071313,0.049741,0.015682,0.011051,0.032205,-0.096558,0.94813,-0.302863,0.09670867812446556
1763624561.636517,-0.545366,-0.228583,0.236192,0.771063,-0.097438,0.068472,0.060393,0.011203,0.00436,0.027382,-0.094881,0.949003,-0.300651,0.09502393352507935
1763624561.661595,-0.546593,-0.227925,0.236121,0.770411,-0.09744,0.065746,0.070515,0.008308,0.000255,0.02463,-0.093067,0.949838,-0.298573,0.09320189782444027
1763624561.696478,-0.547859,-0.227223,0.236153,0.769709,-0.104883,0.065973,0.087588,0.006385,-0.001808,0.022726,-0.091035,0.950703,-0.29644,0.0911612004654782
1763624561.696721,-0.549223,-0.226441,0.236273,0.76893,-0.108553,0.07071,0.102752,0.006864,-0.003874,0.02095,-0.088702,0.951632,-0.294156,0.08881876525521824
1763624561.722432,-0.550615,-0.225568,0.236451,0.768136,-0.112759,0.077539,0.110581,0.00862,-0.001939,0.018247,-0.086147,0.952566,-0.291886,0.08625387986535493
1763624561.739294,-0.552022,-0.224607,0.236624,0.767354,-0.112196,0.083066,0.113663,0.012815,0.000471,0.016791,-0.083464,0.953488,-0.289646,0.08356119287536616
1763624561.757905,-0.553458,-0.223589,0.236682,0.766599,-0.119879,0.094714,0.10606,0.015022,0.005983,0.013225,-0.080819,0.954399,-0.287385,0.08090726903722158
1763624561.783854,-0.5549,-0.222599,0.236557,0.765883,-0.1257,0.106367,0.088336,0.018197,0.013535,0.014377,-0.078439,0.955291,-0.285072,0.07851967357169327
1763624561.817321,-0.556383,-0.221656,0.23622,0.765184,-0.137086,0.115107,0.061855,0.020759,0.022452,0.015594,-0.076358,0.95619,-0.282613,0.07643239803661911
1763624561.817656,-0.557897,-0.220842,0.235637,0.764497,-0.147914,0.115,0.034962,0.020066,0.024798,0.014671,-0.074743,0.957098,-0.27996,0.07481274149004821
1763624561.858919,-0.559418,-0.220136,0.234863,0.763827,-0.151449,0.119335,0.013814,0.020898,0.025115,0.012986,-0.073518,0.958,-0.277184,0.07358439272279393
1763624561.859246,-0.56095,-0.219476,0.233929,0.763179,-0.152004,0.124821,-0.002334,0.019051,0.02259,0.010079,-0.072554,0.958894,-0.274331,0.07261783236135982
1763624561.877843,-0.562446,-0.218865,0.232871,0.762577,-0.149265,0.123005,-0.013838,0.013781,0.016476,0.00557,-0.071849,0.959751,-0.271505,0.07191098935840001
1763624561.903707,-0.563863,-0.218385,0.231827,0.761986,-0.144878,0.103221,-0.018773,0.010198,0.009398,0.001618,-0.071376,0.960566,-0.268734,0.07143676051435237
1763624561.937545,-0.566474,-0.217695,0.230211,0.760736,-0.134878,0.064532,0.004924,0.005254,-0.001082,0.000456,-0.0704,0.962106,-0.263432,0.07045826351803222
1763624561.937166,-0.565206,-0.218012,0.23091,0.761376,-0.139234,0.084359,-0.012343,0.006394,0.004208,-0.000195,-0.070955,0.961351,-0.266027,0.07101464809938722
1763624561.962087,-0.567707,-0.217355,0.229763,0.760049,-0.13214,0.052286,0.030712,0.004197,-0.00186,0.001124,-0.069525,0.962851,-0.26093,0.06958112466190539
1763624561.997221,-0.56888,-0.217039,0.229591,0.759314,-0.129837,0.030837,0.050171,0.003597,1.5e-05,0.002074,-0.068382,0.963577,-0.258539,0.06843543516423242
1763624561.997515,-0.570001,-0.216778,0.229659,0.758527,-0.124524,0.013674,0.064247,0.002648,0.002578,0.005092,-0.067051,0.964292,-0.256213,0.0671013436672686
1763624562.022128,-0.57107,-0.216528,0.229881,0.757727,-0.120557,0.008955,0.073492,0.004083,0.005189,0.007629,-0.065582,0.964981,-0.25399,0.06562909438278118
1763624562.058215,-0.572098,-0.216312,0.230185,0.75692,-0.110361,-0.000331,0.074835,0.004297,0.004396,0.011554,-0.064085,0.965648,-0.251827,0.06412895314499804
1763624562.05853,-0.573017,-0.216108,0.230535,0.756176,-0.09961,0.003908,0.076315,0.005226,0.005041,0.013987,-0.06263,0.966244,-0.249898,0.06267104851916956
1763624562.087349,-0.573908,-0.215868,0.230878,0.755464,-0.097413,0.007959,0.07595,0.00276,0.005882,0.014864,-0.061156,0.966812,-0.248061,0.06119419282043582
1763624562.117018,-0.574839,-0.215584,0.231208,0.754736,-0.097975,0.012366,0.077338,0.001959,0.005296,0.015636,-0.059603,0.967393,-0.246166,0.059638363562593236
1763624562.117339,-0.57581,-0.215286,0.231485,0.753995,-0.100138,0.019099,0.075921,0.002098,0.004815,0.015582,-0.058066,0.967988,-0.244189,0.05809865916456829
1763624562.142161,-0.576819,-0.214889,0.231715,0.753267,-0.094366,0.032088,0.07799,0.004666,0.003178,0.018102,-0.056422,0.968583,-0.242206,0.05645197287962096
1763624562.177154,-0.577839,-0.214352,0.23184,0.752599,-0.093021,0.048324,0.077304,0.004191,0.004407,0.016285,-0.05471,0.969153,-0.24031,0.05473734015361761
1763624562.177474,-0.578879,-0.213751,0.231858,0.751965,-0.09614,0.057224,0.075366,0.002022,0.005105,0.013555,-0.053031,0.969713,-0.238419,0.05305590891378123
1763624562.203967,-0.579942,-0.213125,0.231843,0.751328,-0.09398,0.05839,0.071171,0.004725,0.004486,0.013815,-0.051343,0.970276,-0.23649,0.05136560648777873
1763624562.241113,-0.580987,-0.212508,0.231803,0.750708,-0.088293,0.060508,0.068322,0.006651,0.005119,0.013097,-0.049714,0.970823,-0.234589,0.04973448131888587
1763624562.241521,-0.581968,-0.211829,0.231735,0.75016,-0.079987,0.069999,0.066357,0.008514,0.006469,0.013962,-0.048087,0.971316,-0.232882,0.04810552385753887
1763624562.2675,-0.582902,-0.211125,0.231605,0.749674,-0.077206,0.07279,0.060052,0.010252,0.009245,0.010992,-0.046543,0.971768,-0.231304,0.046559800869317526
1763624562.296985,-0.583801,-0.210429,0.231436,0.749222,-0.070438,0.070863,0.051351,0.010195,0.010314,0.009676,-0.045091,0.972194,-0.229793,0.04510631199389916
1763624562.297292,-0.584621,-0.209806,0.231228,0.748821,-0.065781,0.065247,0.039359,0.009652,0.011038,0.009442,-0.043853,0.97258,-0.228398,0.04386705477536705
1763624562.322327,-0.585387,-0.209249,0.23101,0.748446,-0.058823,0.060364,0.032079,0.010265,0.010965,0.010608,-0.042763,0.972938,-0.227074,0.042776051974527274
1763624562.322629,-0.586152,-0.208692,0.230792,0.74807,-0.051864,0.055481,0.024799,0.01088,0.010895,0.011772,-0.041674,0.973294,-0.225747,0.04168607962388387
1763624562.357184,-0.586745,-0.208245,0.23056,0.747801,-0.04815,0.043704,0.02341,0.012087,0.006245,0.009741,-0.040891,0.973563,-0.224728,0.04090241094434587
1763624562.357513,-0.587339,-0.207822,0.230386,0.747506,-0.047627,0.049517,0.025789,0.009821,0.004011,0.010183,-0.040067,0.973837,-0.223686,0.040077742270403414
1763624562.382029,-0.587836,-0.207399,0.230226,0.747282,-0.030495,0.048158,0.027382,0.009864,0.000433,0.009668,-0.039301,0.974056,-0.222869,0.039311119286160955
1763624562.417266,-0.588283,-0.206835,0.230114,0.747121,-0.022628,0.050652,0.028858,0.008193,0.002661,0.004336,-0.038316,0.974229,-0.222284,0.03832537320985002
1763624562.417715,-0.588686,-0.206318,0.230003,0.746981,-0.02004,0.050096,0.029913,0.008893,0.000836,0.004872,-0.037432,0.974382,-0.221763,0.03744074189491567
1763624562.442452,-0.589096,-0.205901,0.229877,0.746811,-0.033929,0.042626,0.016228,0.00702,0.005786,0.003576,-0.036698,0.974551,-0.221141,0.03670624696114643
1763624562.477653,-0.589538,-0.205579,0.22972,0.746599,-0.036846,0.037358,0.015059,0.007651,0.001277,0.004333,-0.036112,0.974749,-0.220364,0.03611985373603136
1763624562.506074,-0.590413,-0.205081,0.229373,0.746151,-0.040362,0.026251,0.009226,0.007188,0.00114,0.001579,-0.035194,0.975156,-0.218707,0.035201258914755465
1763624562.504267,-0.589982,-0.205259,0.229562,0.746386,-0.03889,0.035125,0.011396,0.005818,0.004673,0.000451,-0.03553,0.974947,-0.219581,0.035537482328060706
1763624562.537937,-0.590795,-0.204884,0.22925,0.745941,-0.033436,0.015749,0.007226,0.004908,0.001571,0.000637,-0.034783,0.975336,-0.217967,0.0347900213394255
1763624562.563689,-0.591117,-0.204839,0.229134,0.745734,-0.038035,0.012176,0.006715,0.004536,0.000134,0.002019,-0.034622,0.975503,-0.217244,0.03462892501224675
1763624562.563982,-0.59141,-0.204795,0.229123,0.745517,-0.026433,0.005003,0.005213,0.004301,0.001346,0.003378,-0.034346,0.975659,-0.216586,0.0343527626864321
1763624562.597333,-0.591651,-0.204704,0.229131,0.745348,-0.021737,0.007245,0.010907,0.00498,0.000967,0.006644,-0.03402,0.975781,-0.21609,0.0340265518936373
1763624562.624294,-0.591878,-0.204601,0.229122,0.7452,-0.022561,0.008358,0.017908,0.003731,-0.000843,0.007147,-0.033713,0.975891,-0.215638,0.03371939691217298
1763624562.624536,-0.592085,-0.20444,0.229214,0.74505,-0.012905,-0.003134,0.01878,0.000389,0.00468,0.004812,-0.033208,0.975988,-0.215278,0.03321410708875281
1763624562.657894,-0.592225,-0.204317,0.229417,0.74491,-0.008463,-8.2e-05,0.025806,0.001836,0.000966,0.006515,-0.032663,0.976057,-0.215047,0.032668821265461265
1763624562.683126,-0.592296,-0.204228,0.22959,0.744826,0.008322,-0.006355,0.020319,0.002617,0.004895,0.007618,-0.032258,0.976091,-0.214954,0.03226360613996339
1763624562.683452,-0.592267,-0.204107,0.229806,0.744815,0.013204,0.004905,0.018738,0.005321,0.004771,0.011154,-0.03183,0.976069,-0.215121,0.03183536309419759
1763624562.718005,-0.592301,-0.20387,0.229871,0.744833,0.005794,0.015177,0.012992,0.003072,0.007239,0.007279,-0.031392,0.976058,-0.215233,0.0313971594378785
1763624562.743482,-0.59236,-0.203701,0.229874,0.744831,0.004694,0.008102,0.005346,0.00324,0.002334,0.004593,-0.031109,0.976067,-0.215232,0.031114029681940967
1763624562.743812,-0.592365,-0.203543,0.229886,0.744867,0.008147,0.005981,0.011681,2e-05,0.002094,0.002305,-0.030871,0.976049,-0.215349,0.03087590769280168
1763624562.777698,-0.592425,-0.203461,0.229957,0.744819,0.000824,0.003217,0.006112,0.005474,0.002042,0.003067,-0.030619,0.976074,-0.215272,0.030623786193835094
1763624562.80348,-0.592483,-0.203273,0.229994,0.744813,0.011872,0.014643,0.010606,0.009401,-0.000738,0.006508,-0.030266,0.976081,-0.215289,0.030270630197262765
1763624562.803796,-0.592513,-0.203,0.229973,0.74487,0.011355,0.01919,0.007474,0.005241,0.004534,0.001728,-0.029894,0.97606,-0.215439,0.029898443230636146
1763624562.837465,-0.592529,-0.20285,0.229917,0.744915,0.001808,0.004987,-0.001799,0.00457,0.006346,0.002392,-0.029748,0.976046,-0.215522,0.029752382302623556
1763624562.864623,-0.592531,-0.202832,0.22991,0.744921,0.000452,-0.003145,-0.006211,0.007617,0.003761,0.004587,-0.029731,0.976044,-0.215531,0.029735390189092218
1763624562.864944,-0.592513,-0.20287,0.229893,0.74493,0.006884,-0.003199,-0.009028,0.006519,0.001681,0.008836,-0.029819,0.976039,-0.215543,0.02982341950988629
1763624562.897795,-0.592468,-0.202865,0.229871,0.744974,0.009516,0.003737,-0.006354,0.005637,0.002442,0.006995,-0.029876,0.976012,-0.215656,0.029880453541459896
1763624562.923238,-0.592411,-0.202902,0.229851,0.745015,0.010976,0.002479,-0.00365,0.004399,0.001532,0.008799,-0.029998,0.975986,-0.215759,0.030002493445850143
1763624562.92364,-0.592327,-0.202883,0.229908,0.74507,0.01399,-0.005539,-0.002125,0.003763,0.006282,0.005248,-0.029962,0.975939,-0.215976,0.029966480450998135
1763624562.957749,-0.592292,-0.202874,0.230013,0.745068,0.007824,-0.010091,0.005273,0.002481,0.005283,0.005028,-0.029841,0.975923,-0.216065,0.02984542655244979
1763624562.984527,-0.592297,-0.20289,0.230175,0.74501,0.005393,-0.011253,0.00658,0.003537,0.00493,0.006611,-0.029647,0.975934,-0.216041,0.02965134724199647
1763624562.984873,-0.592248,-0.202961,0.230361,0.744972,0.011749,-0.015379,0.007127,0.003462,0.003563,0.008132,-0.029539,0.975924,-0.2161,0.02954330603384087
1763624563.018798,-0.592124,-0.20298,0.230527,0.745014,0.02764,-0.009765,0.003417,0.003093,0.000154,0.01035,-0.029445,0.975866,-0.216377,0.02944924966696073
1763624563.042174,-0.591961,-0.203023,0.230658,0.745091,0.020509,-0.016996,-0.007079,-0.001471,0.007351,0.004504,-0.02946,0.975787,-0.216729,0.029464268606681065
1763624563.043949,-0.591767,-0.203154,0.23077,0.745175,0.021446,-0.016224,-0.003248,0.001939,0.001891,0.009751,-0.029646,0.975704,-0.21708,0.029650330835438558
1763624563.077919,-0.591644,-0.20319,0.230831,0.745244,0.01756,-0.002841,-0.00034,0.004473,-0.000141,0.009755,-0.029712,0.975643,-0.217343,0.029716372693473346
1763624563.10343,-0.591556,-0.203126,0.230898,0.74531,0.018797,-3.7e-05,0.002145,0.001575,0.002065,0.005479,-0.029606,0.975588,-0.217603,0.029610333736140564
1763624563.103837,-0.591442,-0.203044,0.230964,0.745402,0.023552,0.001949,0.001786,-0.000108,0.002638,0.0032,-0.029496,0.975517,-0.217938,0.029500272716010714
1763624563.13804,-0.59125,-0.203046,0.231029,0.745534,0.034091,-0.011314,-0.008348,0.000455,0.002418,0.002118,-0.029564,0.975413,-0.218392,0.029568314006273504
1763624563.167279,-0.59095,-0.203154,0.231108,0.745718,0.040418,-0.021671,-0.0196,0.001544,0.007507,0.002676,-0.029846,0.975265,-0.219014,0.029850436771657232
1763624563.167612,-0.590604,-0.203331,0.231205,0.745913,0.038776,-0.026806,-0.014103,0.002124,0.006734,0.006813,-0.030233,0.975102,-0.219686,0.030237609326925048
1763624563.196514,-0.590248,-0.203488,0.231336,0.746112,0.038704,-0.02171,-0.010026,0.005134,0.003995,0.009523,-0.030558,0.974931,-0.220399,0.030562758328975908
1763624563.223206,-0.589944,-0.203561,0.231487,0.746286,0.035937,-0.015784,-0.005695,0.003067,0.004404,0.006392,-0.0307,0.974777,-0.221058,0.030704834756880708
1763624563.223611,-0.589636,-0.203707,0.231645,0.74644,0.03616,-0.019146,-0.009312,0.000417,0.005494,0.004407,-0.030937,0.974632,-0.221665,0.030941936996369147
1763624563.255954,-0.589331,-0.203899,0.231775,0.746589,0.031558,-0.0272,-0.012298,0.00139,0.006193,0.003781,-0.031272,0.974493,-0.222229,0.03127709497900128
1763624563.283578,-0.589122,-0.204061,0.231904,0.746669,0.018348,-0.021172,-0.01136,0.001377,0.003923,0.002687,-0.031493,0.974404,-0.222589,0.03149819513346875
1763624563.283899,-0.588981,-0.204214,0.23202,0.746703,0.008414,-0.020119,-0.005566,-8.9e-05,0.00299,0.002721,-0.031664,0.974351,-0.222796,0.031669284972640536
1763624563.317825,-0.588919,-0.204326,0.232135,0.746685,0.008043,-0.018217,-0.0014,5.8e-05,0.001211,0.002183,-0.031718,0.974336,-0.222851,0.031723332676115996
1763624563.343704,-0.588842,-0.204408,0.232202,0.746703,0.008701,-0.007187,-0.004528,0.001192,0.002375,0.001829,-0.031803,0.974307,-0.222966,0.031808373104687315
1763624563.350179,-0.588787,-0.204435,0.232245,0.746725,0.005077,-0.002722,-0.0036,0.000372,0.002265,-0.000276,-0.031829,0.974282,-0.223072,0.03183438278312628
1763624563.376542,-0.588727,-0.204549,0.23221,0.746752,0.006411,-0.010249,-0.007707,-0.000551,-0.000299,-0.000474,-0.032078,0.974263,-0.223121,0.03208349794784348
1763624563.403384,-0.58865,-0.204631,0.232246,0.746779,0.014338,-0.008161,-0.004456,0.00016,-0.005676,0.000135,-0.032205,0.974233,-0.223234,0.03221056120434622
1763624563.403708,-0.588497,-0.204635,0.232335,0.746871,0.027282,-0.008517,0.003294,-0.002496,-0.006634,-0.001497,-0.032215,0.97415,-0.223593,0.032220577040891624
1763624563.436621,-0.588235,-0.204573,0.232532,0.747033,0.041743,-0.014911,0.013306,-0.003239,-0.006896,-0.002913,-0.032079,0.974001,-0.224259,0.032084518724013016
1763624563.462627,-0.587929,-0.204492,0.23284,0.7472,0.04433,-0.015419,0.023157,-0.002122,-0.007093,-0.00071,-0.031806,0.973829,-0.225046,0.03181136115088613
1763624563.462941,-0.587648,-0.204384,0.233217,0.747332,0.034802,-0.022278,0.02834,-0.002394,-0.001137,-0.000972,-0.031387,0.97367,-0.225793,0.031392141739262455
1763624563.497799,-0.587412,-0.20428,0.233628,0.747418,0.02889,-0.018378,0.027675,-0.000146,-0.000688,0.001345,-0.030894,0.973537,-0.226432,0.03089891373422613
1763624563.523602,-0.587172,-0.204204,0.233914,0.747539,0.033946,-0.005293,0.014155,0.003286,-0.00073,0.00465,-0.030604,0.9734,-0.227061,0.03060876611887294
1763624563.529105,-0.586833,-0.204081,0.234064,0.747791,0.05899,-0.004237,-0.002167,0.000942,-0.000122,0.002146,-0.030507,0.973194,-0.227955,0.030511723011886163
1763624563.557442,-0.586237,-0.204044,0.234144,0.748244,0.087884,-0.005146,-0.022245,0.000865,0.002945,0.000802,-0.030822,0.972848,-0.229384,0.030826878418584933
1763624563.58367,-0.585403,-0.203997,0.234067,0.748933,0.124557,0.011192,-0.051495,0.002313,0.000864,0.003567,-0.031514,0.972354,-0.231376,0.03151921407117352
1763624563.58847,-0.58416,-0.203916,0.233833,0.749999,0.189931,0.01649,-0.084195,-0.000964,-0.000299,8.9e-05,-0.032682,0.971602,-0.234352,0.032687830302534984
1763624563.617577,-0.58233,-0.203925,0.233397,0.751553,0.267076,0.014184,-0.12662,-0.002086,-0.003426,0.000998,-0.034694,0.970495,-0.238612,0.034700965460219384
1763624563.643661,-0.579841,-0.203908,0.232899,0.753634,0.335868,0.018202,-0.148158,0.003733,0.004894,0.004539,-0.037255,0.968955,-0.244412,0.0372636428272408
1763624563.647063,-0.577054,-0.203866,0.23231,0.755962,0.351776,0.025265,-0.168245,0.006945,0.012437,0.012701,-0.04012,0.967183,-0.250894,0.04013076334771345
1763624563.677597,-0.574223,-0.203798,0.231588,0.758354,0.338855,0.033272,-0.170027,0.005223,0.015134,0.010462,-0.043135,0.965324,-0.257468,0.04314836978561163
1763624563.703659,-0.57162,-0.203846,0.230824,0.760538,0.306641,0.014932,-0.162965,0.000498,0.00957,0.004138,-0.046179,0.963582,-0.263395,0.046195435565153195
1763624563.711767,-0.569243,-0.204008,0.230229,0.762455,0.280975,-0.003129,-0.144427,-0.000416,0.000193,0.002324,-0.048983,0.961981,-0.268687,0.049002621631089274
1763624563.741749,-0.567067,-0.204215,0.229882,0.764124,0.259356,-0.018201,-0.121369,0.001211,-0.005385,0.002228,-0.051375,0.96051,-0.273463,0.05139760446678816
1763624563.767321,-0.565105,-0.20434,0.22973,0.765588,0.230991,-0.015961,-0.092665,0.000952,-0.002314,0.002592,-0.053239,0.959162,-0.277803,0.05326416509198772
1763624563.768293,-0.563356,-0.204403,0.229691,0.766871,0.207567,-0.018535,-0.068118,0.0003,-0.002211,0.002307,-0.054706,0.957942,-0.281698,0.054733340525439836
1763624563.801542,-0.561786,-0.204417,0.22977,0.767995,0.182102,-0.018239,-0.047418,-0.001584,0.004636,0.001137,-0.055819,0.956835,-0.285221,0.05584802724755107
1763624563.828298,-0.560426,-0.204368,0.229914,0.768958,0.165218,-0.017264,-0.036227,-0.002021,0.003382,0.00399,-0.056602,0.955862,-0.288312,0.05663227394694297
1763624563.829423,-0.55916,-0.204312,0.230092,0.76984,0.155804,-0.015435,-0.031472,-0.001635,0.003206,0.003687,-0.057258,0.954949,-0.291193,0.05728934898747436
1763624563.860053,-0.557918,-0.204223,0.230306,0.770701,0.158827,-0.009917,-0.022237,0.000369,0.000656,0.005442,-0.057806,0.954043,-0.294042,0.05783823392762244
1763624563.883141,-0.556696,-0.204072,0.230502,0.771565,0.154026,-0.002974,-0.016034,-0.000508,-0.001581,0.003237,-0.05827,0.953133,-0.296888,0.05830301393595985
1763624563.88856,-0.555635,-0.203878,0.230685,0.772327,0.131655,0.000282,-0.013097,-0.000959,0.000306,0.002016,-0.058568,0.952326,-0.299407,0.058601547758931095
1763624563.921397,-0.554746,-0.203644,0.230855,0.772976,0.111509,0.005922,-0.005423,0.001733,0.001274,0.001707,-0.058692,0.951635,-0.301572,0.058725760792242516
1763624563.948228,-0.554021,-0.203411,0.230933,0.773534,0.093484,0.014813,-0.008606,0.002286,0.001994,0.001136,-0.058807,0.951056,-0.30337,0.05884097334110818
1763624563.949332,-0.553462,-0.203153,0.230895,0.774013,0.069875,0.018472,-0.011698,0.001631,0.00245,-0.003348,-0.058903,0.950588,-0.304817,0.058937099448005
1763624563.981413,-0.553042,-0.202953,0.230856,0.774378,0.053177,0.012216,-0.006827,-0.000859,0.00233,-0.005778,-0.058978,0.950232,-0.30591,0.059012239680542
1763624564.007924,-0.552743,-0.202845,0.230875,0.774613,0.031856,-0.001206,-0.004244,-0.001691,0.006335,-0.007667,-0.059024,0.949988,-0.306658,0.059058320682526
1763624564.00937,-0.55254,-0.202892,0.230919,0.774732,0.018214,-0.007645,-0.00808,-0.001493,0.004134,-0.00375,-0.05919,0.949845,-0.307068,0.059224624001188816
1763624564.038869,-0.552389,-0.202943,0.230956,0.774816,0.016753,-0.007698,-0.006835,0.000587,0.002121,-0.001837,-0.059332,0.949742,-0.307361,0.05936683834855919
1763624564.062343,-0.55221,-0.202977,0.230963,0.774932,0.022394,-0.001654,-0.009625,0.000628,-0.000204,0.000374,-0.059507,0.949612,-0.307728,0.05954215939311548
1763624564.066642,-0.551958,-0.202919,0.230955,0.77513,0.032264,0.002917,-0.008015,-0.00025,0.000792,-0.000821,-0.059622,0.949408,-0.308333,0.0596573932780663
1763624564.09755,-0.551675,-0.202824,0.230928,0.775364,0.036712,0.005792,-0.00492,-0.000366,0.000155,-0.002129,-0.05973,0.949173,-0.309035,0.05976558265759139
1763624564.122962,-0.551362,-0.202711,0.230973,0.775603,0.039289,0.005082,-0.000197,4.3e-05,-0.0009,-0.001603,-0.059747,0.948917,-0.309817,0.05978261121010174
1763624564.128088,-0.551028,-0.202642,0.231068,0.77583,0.044995,-0.001488,0.000835,0.000613,-0.002079,-0.000506,-0.059782,0.948656,-0.310609,0.05981766507455939
1763624564.156606,-0.550682,-0.202533,0.231228,0.776056,0.0447,-0.003253,0.006243,0.00035,-0.001601,-0.001093,-0.059687,0.948383,-0.311459,0.05972250958390452
1763624564.183634,-0.550358,-0.202414,0.231409,0.776263,0.040065,-0.006319,0.009725,-0.000251,-0.000134,-0.001741,-0.059537,0.948126,-0.312268,0.0595722629336233
1763624564.187725,-0.550094,-0.202327,0.231575,0.776424,0.028203,-0.002852,0.008408,0.001676,-0.000939,-0.00031,-0.059408,0.947919,-0.312921,0.05944302152529215
1763624564.212267,-0.549927,-0.202207,0.231698,0.776536,0.018428,-0.000781,0.007909,0.000478,-0.000816,-0.001484,-0.059208,0.947779,-0.313385,0.05924262473826755
1763624564.241161,-0.54983,-0.202159,0.231813,0.776583,0.00716,-0.001837,0.006252,9.1e-05,-0.000776,-0.001863,-0.059071,0.947704,-0.313637,0.059105395114249545
1763624564.245753,-0.549824,-0.202165,0.23189,0.776563,-0.00523,-0.006069,0.004428,-0.000713,-0.001477,-0.003256,-0.058989,0.947706,-0.313645,0.05902327765046498
1763624564.277875,-0.549864,-0.202203,0.231982,0.776497,-0.005254,-0.009039,0.007976,-0.002367,-0.00412,-0.004314,-0.058902,0.947751,-0.313527,0.05893609562341386
1763624564.303743,-0.54986,-0.202227,0.232126,0.77645,0.001855,-0.010558,0.009012,-0.00178,-0.003158,-0.002594,-0.058764,0.947763,-0.313516,0.058797867666400806
1763624564.307845,-0.549817,-0.202243,0.232286,0.776429,0.005805,-0.015373,0.010256,-0.001165,-0.000277,-0.002681,-0.058624,0.947745,-0.313597,0.05865761878013665
1763624564.337842,-0.549699,-0.202277,0.232438,0.776458,0.011243,-0.01271,0.010754,-0.000152,0.001434,-0.000553,-0.058578,0.947671,-0.313829,0.058611542220806445
1763624564.363881,-0.549554,-0.202292,0.23261,0.776506,0.016568,-0.011606,0.0076,0.00082,0.004144,-4.2e-05,-0.058499,0.947574,-0.314137,0.05853239698654004
1763624564.366893,-0.549342,-0.202285,0.232774,0.776608,0.027376,-0.010143,0.005096,0.000609,0.005358,0.001581,-0.058448,0.947421,-0.314607,0.058481320974501885
1763624564.407155,-0.549015,-0.202282,0.232907,0.776801,0.044733,-0.009849,-0.004273,0.002991,0.010413,0.001525,-0.058526,0.947176,-0.31533,0.05855944321963948
1763624564.407572,-0.548599,-0.202254,0.23299,0.777077,0.058582,-0.005195,-0.016245,0.004133,0.016061,0.003091,-0.058698,0.946853,-0.316265,0.058731770750866635
1763624564.456856,-0.54804,-0.202276,0.232979,0.777468,0.072048,-0.006373,-0.03069,0.001917,0.014765,0.001912,-0.059162,0.94642,-0.317472,0.05919658394998286
1763624564.457216,-0.547353,-0.202399,0.23291,0.777941,0.087728,-0.019187,-0.043136,-0.001528,0.011531,0.000235,-0.05994,0.945899,-0.318878,0.059975923219216666
1763624564.482058,-0.546487,-0.202652,0.232919,0.778481,0.103358,-0.033474,-0.046735,-0.000519,0.013024,0.001899,-0.060947,0.945263,-0.320569,0.06098475944853674
1763624564.515969,-0.545508,-0.202916,0.232977,0.779081,0.123805,-0.034428,-0.055015,0.00617,0.015185,0.007301,-0.061994,0.94454,-0.322492,0.062033773739045096
1763624564.51632,-0.5443,-0.203115,0.232969,0.779876,0.155705,-0.018091,-0.061659,0.008827,0.017918,0.010866,-0.0632,0.943613,-0.324963,0.06324212676963609
1763624564.542233,-0.542833,-0.203273,0.232882,0.780883,0.183945,-0.020635,-0.083254,0.00957,0.027699,0.008581,-0.064632,0.942456,-0.328024,0.0646770712263856
1763624564.577248,-0.541072,-0.203553,0.232681,0.782092,0.214055,-0.030671,-0.108798,0.009777,0.034429,0.00985,-0.0666,0.941061,-0.331615,0.06664933745577713
1763624564.577474,-0.539051,-0.203951,0.232436,0.783455,0.245824,-0.04768,-0.138361,0.013059,0.03977,0.011452,-0.068983,0.939455,-0.335657,0.06903782946709473
1763624564.603722,-0.536653,-0.204538,0.232077,0.785053,0.281516,-0.051278,-0.165333,0.01794,0.046163,0.015243,-0.072056,0.937539,-0.340336,0.07211849808044953
1763624564.611337,-0.533906,-0.205245,0.231588,0.786884,0.320207,-0.059649,-0.200887,0.023131,0.05285,0.018094,-0.075716,0.935308,-0.345638,0.07578854820613914
1763624564.641412,-0.530756,-0.206082,0.230917,0.78899,0.364631,-0.062685,-0.23708,0.026171,0.056587,0.020664,-0.080072,0.932698,-0.351657,0.08015782259799822
1763624564.667243,-0.527139,-0.207034,0.230044,0.791417,0.410447,-0.068586,-0.279324,0.024311,0.067047,0.018091,-0.085171,0.929627,-0.358523,0.08527434494319647
1763624564.69714,-0.523036,-0.208266,0.22904,0.794103,0.459455,-0.09931,-0.323887,0.024735,0.070358,0.018756,-0.091176,0.926091,-0.366117,0.09130283405720838
1763624564.697451,-0.518354,-0.209748,0.227952,0.79709,0.514442,-0.114818,-0.354628,0.027345,0.068747,0.024024,-0.098057,0.921975,-0.374628,0.09821486174835924
1763624564.722096,-0.513194,-0.211369,0.226833,0.800314,0.554678,-0.131265,-0.378193,0.02826,0.067666,0.024718,-0.105504,0.917323,-0.383911,0.10570070357500942
1763624564.75603,-0.507679,-0.213058,0.225694,0.803698,0.586495,-0.133666,-0.38805,0.027556,0.060112,0.027673,-0.113309,0.912214,-0.393735,0.1135528406485627
1763624564.756312,-0.501912,-0.214824,0.224588,0.807152,0.601927,-0.153276,-0.393095,0.022132,0.057349,0.025243,-0.121345,0.906733,-0.40387,0.12164476410304832
1763624564.782429,-0.496002,-0.2167,0.223646,0.810559,0.616781,-0.172108,-0.387177,0.024487,0.055067,0.028895,-0.129439,0.901006,-0.414046,0.12980317597132948
1763624564.817207,-0.489912,-0.218576,0.222838,0.813974,0.641306,-0.175684,-0.380243,0.029279,0.055491,0.033073,-0.137488,0.894965,-0.424422,0.13792492747843374
1763624564.817699,-0.483579,-0.220317,0.22207,0.817494,0.674705,-0.167239,-0.390356,0.031257,0.057044,0.030718,-0.145439,0.888498,-0.435223,0.1459566570070998
1763624564.842107,-0.476921,-0.221984,0.22116,0.821193,0.711257,-0.156058,-0.411985,0.031283,0.053824,0.029263,-0.153631,0.881476,-0.446539,0.15424189479019723
1763624564.877845,-0.469919,-0.223655,0.2201,0.825052,0.741962,-0.160392,-0.444659,0.02948,0.049303,0.026586,-0.162197,0.873868,-0.458309,0.1629167060687378
1763624564.878269,-0.462615,-0.225422,0.218786,0.829038,0.771393,-0.165056,-0.487131,0.030586,0.041499,0.024298,-0.171339,0.86569,-0.470344,0.1721886325755106
1763624564.90206,-0.454945,-0.227338,0.217229,0.833159,0.794087,-0.171946,-0.52215,0.029386,0.03083,0.024891,-0.181164,0.856852,-0.482685,0.18216985639139785
1763624564.937134,-0.446937,-0.229385,0.215464,0.83738,0.818931,-0.175477,-0.547596,0.02929,0.015312,0.027331,-0.191567,0.84736,-0.49526,0.1927585308939101
1763624564.937428,-0.438631,-0.231502,0.213598,0.841656,0.834987,-0.181798,-0.560026,0.026448,0.001235,0.025752,-0.20231,0.83725,-0.508019,0.20371610346907046
1763624564.961955,-0.430109,-0.233609,0.211715,0.845937,0.850637,-0.185585,-0.557057,0.023735,-0.016686,0.024731,-0.213115,0.826608,-0.520866,0.21476208092302998
1763624564.997368,-0.421515,-0.235561,0.210002,0.850138,0.848416,-0.175987,-0.524949,0.019973,-0.024272,0.026021,-0.223481,0.815629,-0.533671,0.22538443842469177
1763624564.997708,-0.413034,-0.237346,0.208443,0.854179,0.831072,-0.165487,-0.49321,0.016183,-0.026319,0.026001,-0.233284,0.804556,-0.54614,0.23545342154895724
1763624565.022244,-0.404775,-0.238919,0.20704,0.858026,0.803914,-0.161092,-0.467382,0.011874,-0.023285,0.02081,-0.242389,0.793547,-0.55815,0.24482744203024015
1763624565.05706,-0.396669,-0.240387,0.205731,0.861709,0.794757,-0.155279,-0.445815,0.008913,-0.025058,0.01656,-0.251074,0.782537,-0.569735,0.253789600363569
1763624565.057458,-0.38862,-0.241794,0.204548,0.865257,0.783855,-0.149302,-0.428704,0.008236,-0.021718,0.014973,-0.259446,0.77143,-0.58102,0.2624484201021779
1763624565.082189,-0.380715,-0.243201,0.203413,0.868638,0.762356,-0.168903,-0.420507,0.005996,-0.017136,0.009098,-0.267622,0.760349,-0.591818,0.27092406409865016
1763624565.117564,-0.3729,-0.244717,0.202346,0.871846,0.753756,-0.178567,-0.412162,0.009048,-0.017368,0.007843,-0.275802,0.749258,-0.602118,0.27942390930425376
1763624565.117933,-0.36507,-0.246333,0.201317,0.874938,0.753106,-0.195235,-0.416761,0.008111,-0.013916,0.005026,-0.284062,0.738008,-0.612089,0.28802799019314057
1763624565.142112,-0.357213,-0.248083,0.200266,0.877922,0.749607,-0.208265,-0.421117,0.006456,-0.013777,0.008217,-0.29252,0.726575,-0.621708,0.2968610448674494
1763624565.17694,-0.349333,-0.249851,0.199233,0.880822,0.742568,-0.207059,-0.414243,0.005048,-0.01566,0.012194,-0.300951,0.714957,-0.631082,0.30568980717960004
1763624565.177283,-0.341526,-0.251576,0.198257,0.883608,0.736169,-0.19758,-0.39992,0.007278,-0.021852,0.019782,-0.30917,0.703304,-0.640139,0.3143200606695131
1763624565.201974,-0.33387,-0.253039,0.197354,0.886315,0.72722,-0.173809,-0.377754,0.007803,-0.022461,0.020888,-0.316763,0.691704,-0.649004,0.3223148915272061
1763624565.237427,-0.326391,-0.254182,0.196533,0.888952,0.718069,-0.14043,-0.354251,0.006902,-0.022666,0.021923,-0.323618,0.680202,-0.657721,0.32955071593481094
1763624565.237767,-0.319107,-0.255048,0.195733,0.891521,0.701956,-0.120403,-0.341155,0.001732,-0.020567,0.016136,-0.329842,0.668824,-0.666242,0.3361362578557263
1763624565.262208,-0.311959,-0.255815,0.194939,0.894002,0.690676,-0.115941,-0.327502,-0.001682,-0.022595,0.014823,-0.335772,0.65752,-0.674481,0.3424246917301018
1763624565.297402,-0.304973,-0.256488,0.19419,0.896379,0.675272,-0.104259,-0.315758,-0.003012,-0.023414,0.015045,-0.341375,0.646358,-0.682411,0.34837932940346483
1763624565.297786,-0.29819,-0.257045,0.193482,0.898652,0.658123,-0.089521,-0.304823,-0.004091,-0.024759,0.013668,-0.3466,0.635405,-0.690021,0.35394397189662924
1763624565.322313,-0.291565,-0.257482,0.192759,0.900853,0.644776,-0.085222,-0.297528,-0.006679,-0.027281,0.010713,-0.351504,0.624579,-0.697385,0.35917717020862905
1763624565.357281,-0.28504,-0.257881,0.192024,0.902982,0.635199,-0.076401,-0.289388,-0.005945,-0.032709,0.011759,-0.356255,0.613811,-0.704499,0.3642567698531118
1763624565.357533,-0.27863,-0.258124,0.191293,0.905066,0.627499,-0.060618,-0.276427,-0.009584,-0.035945,0.004547,-0.360639,0.603111,-0.711475,0.368952898326968
1763624565.382077,-0.272317,-0.258253,0.190648,0.907084,0.623134,-0.051682,-0.258922,-0.009205,-0.039567,0.001631,-0.364681,0.5925,-0.718298,0.3732900888939263
1763624565.417126,-0.26616,-0.258226,0.190111,0.90903,0.604952,-0.037684,-0.237513,-0.008889,-0.036994,0.002493,-0.368271,0.582078,-0.724956,0.3771487246223398
1763624565.417518,-0.260307,-0.258024,0.189653,0.910876,0.571214,-0.014882,-0.216413,-0.008711,-0.037896,0.002568,-0.37132,0.572086,-0.731327,0.380430234568234
1763624565.442104,-0.254783,-0.25765,0.189211,0.912634,0.536865,0.001588,-0.1998,-0.014249,-0.036894,-0.003657,-0.373866,0.562547,-0.737404,0.38317389465568336
1763624565.477347,-0.249611,-0.257238,0.188751,0.914274,0.496459,0.001186,-0.192138,-0.018924,-0.035171,-0.003382,-0.376143,0.553533,-0.743046,0.38563012072483266
1763624565.477692,-0.244825,-0.256814,0.188223,0.915794,0.458418,0.016124,-0.182517,-0.017472,-0.040533,0.001948,-0.378214,0.545096,-0.748214,0.38786628909831505
1763624565.502159,-0.240414,-0.256303,0.187636,0.917225,0.419913,0.032462,-0.177747,-0.014781,-0.042625,0.006691,-0.379954,0.537212,-0.75302,0.38974638261711336
1763624565.537122,-0.236339,-0.255587,0.186928,0.918628,0.391291,0.066472,-0.17055,-0.015254,-0.048133,0.006955,-0.381222,0.529768,-0.757639,0.3911175082240568
1763624565.537918,-0.232491,-0.254735,0.186122,0.920009,0.376312,0.079278,-0.171517,-0.018091,-0.05025,0.00244,-0.382173,0.52261,-0.762117,0.3921467115124168
1763624565.562371,-0.228743,-0.253826,0.185192,0.921386,0.366269,0.093502,-0.174938,-0.018384,-0.051674,0.001835,-0.383021,0.515534,-0.766498,0.3930645779223068
1763624565.582741,-0.225098,-0.252798,0.184152,0.922774,0.35318,0.106609,-0.180096,-0.020561,-0.048998,-0.000591,-0.383647,0.508535,-0.770848,0.39374236798632156
1763624565.597588,-0.221593,-0.251665,0.183037,0.924153,0.334581,0.120216,-0.181616,-0.02505,-0.046174,-0.002374,-0.384034,0.501699,-0.775123,0.39416143863851516
1763624565.623718,-0.218228,-0.250575,0.181819,0.92549,0.320896,0.116658,-0.185586,-0.024921,-0.050937,0.000988,-0.384453,0.495053,-0.779178,0.39461522245125913
1763624565.657262,-0.214966,-0.249369,0.180549,0.926826,0.310002,0.133275,-0.179201,-0.028108,-0.056151,-0.002547,-0.38462,0.488518,-0.78321,0.39479606036581427
1763624565.657419,-0.211735,-0.248146,0.179299,0.92814,0.313561,0.132606,-0.175676,-0.028554,-0.058974,-0.005804,-0.3847,0.482024,-0.787184,0.3948828138671852
1763624565.698543,-0.20847,-0.246896,0.178103,0.929442,0.319436,0.141595,-0.170643,-0.026872,-0.060029,-0.005697,-0.384693,0.475468,-0.791165,0.39487508354049244
1763624565.698903,-0.205138,-0.245609,0.176915,0.93075,0.323354,0.140612,-0.164499,-0.026549,-0.05555,-0.008469,-0.384617,0.468768,-0.79519,0.3947927008219674
1763624565.715538,-0.201823,-0.24432,0.17577,0.93203,0.307868,0.139876,-0.158258,-0.026348,-0.051123,-0.011374,-0.384478,0.462099,-0.799151,0.39464205377056477
1763624565.743558,-0.19866,-0.243065,0.17465,0.933247,0.2854,0.138319,-0.149214,-0.028157,-0.048151,-0.015471,-0.384288,0.455701,-0.802907,0.39443641283702374
1763624565.777127,-0.195734,-0.241903,0.173585,0.934366,0.258694,0.122793,-0.138794,-0.030453,-0.04804,-0.018577,-0.384098,0.449756,-0.806342,0.3942308610555301
1763624565.777466,-0.193034,-0.240899,0.172614,0.935366,0.23337,0.09883,-0.125166,-0.031459,-0.048356,-0.020383,-0.384017,0.444281,-0.809411,0.3941427845417495
1763624565.8023,-0.190566,-0.240089,0.171744,0.93624,0.212044,0.087592,-0.10991,-0.029798,-0.047796,-0.017118,-0.384105,0.4393,-0.812083,0.39423827917970494
1763624565.837371,-0.188331,-0.239385,0.171004,0.937008,0.183943,0.068551,-0.093377,-0.028497,-0.044265,-0.015842,-0.3842,0.434807,-0.814453,0.39434106688928944
1763624565.837789,-0.186378,-0.238842,0.170357,0.937655,0.151272,0.060835,-0.081223,-0.025162,-0.047109,-0.008033,-0.384401,0.430892,-0.816436,0.39455892537148113
1763624565.862284,-0.184683,-0.23833,0.169775,0.938226,0.126653,0.064098,-0.064833,-0.023588,-0.049206,-0.005812,-0.384505,0.427474,-0.818182,0.3946715599996988
1763624565.897095,-0.183224,-0.237869,0.169297,0.938715,0.113188,0.04889,-0.049363,-0.026207,-0.048237,-0.010982,-0.384544,0.424531,-0.819695,0.3947136728618698
1763624565.897559,-0.181873,-0.237481,0.169007,0.939128,0.10679,0.040919,-0.030991,-0.025892,-0.047262,-0.012952,-0.384575,0.421876,-0.82105,0.3947472883375634
1763624565.922082,-0.180567,-0.237188,0.168914,0.939471,0.106764,0.0244,-0.010391,-0.027132,-0.046884,-0.012568,-0.384661,0.419403,-0.822275,0.3948407167014023
1763624565.957316,-0.179276,-0.237015,0.169053,0.939737,0.104813,0.009806,0.013183,-0.026665,-0.045594,-0.01041,-0.384849,0.417081,-0.823368,0.39504417952452875
1763624565.957665,-0.178036,-0.236957,0.169447,0.939916,0.102322,-0.011341,0.038481,-0.028218,-0.042154,-0.011074,-0.385104,0.414982,-0.824309,0.3953204115830215
1763624565.982017,-0.176846,-0.236999,0.170108,0.940011,0.095009,-0.026526,0.061937,-0.028176,-0.036847,-0.009149,-0.385398,0.413104,-0.825114,0.39563917682325195
1763624566.016985,-0.175742,-0.237143,0.170961,0.940027,0.087222,-0.030706,0.079476,-0.024157,-0.034109,-0.003412,-0.385752,0.411488,-0.825756,0.3960227795832757
1763624566.017326,-0.174778,-0.237253,0.171936,0.940001,0.078149,-0.02546,0.089803,-0.018788,-0.030142,-0.000594,-0.385934,0.410168,-0.826327,0.39622022304799237
1763624566.042387,-0.173974,-0.237264,0.172913,0.939968,0.065812,-0.012067,0.088242,-0.014599,-0.02657,0.000795,-0.385876,0.409113,-0.826877,0.3961573204374742
1763624566.076333,-0.173272,-0.237201,0.173765,0.939956,0.056215,-5.8e-05,0.076976,-0.010497,-0.023775,1.3e-05,-0.3857,0.408172,-0.827424,0.39596654415860705
1763624566.076666,-0.172684,-0.237075,0.174428,0.939974,0.049211,0.014703,0.056361,-0.005091,-0.022403,0.000903,-0.385447,0.407341,-0.827952,0.3956920814993965
1763624566.102133,-0.172196,-0.236795,0.174878,0.94005,0.037457,0.033996,0.039867,-0.000865,-0.020828,-3e-05,-0.384972,0.406567,-0.828553,0.3951774340706684
1763624566.136105,-0.171902,-0.236402,0.175121,0.940158,0.01861,0.044964,0.026631,0.000134,-0.020039,-0.003536,-0.384303,0.406029,-0.829127,0.394452742122662
1763624566.136501,-0.171793,-0.235956,0.175201,0.940275,-0.001528,0.053361,0.018123,0.001436,-0.021605,-0.007416,-0.38353,0.405745,-0.829624,0.39361552264256233
1763624566.162044,-0.171851,-0.235482,0.175197,0.940384,-0.014092,0.052862,0.013897,0.002585,-0.024787,-0.01105,-0.382671,0.405722,-0.830032,0.39268550978058864
1763624566.197397,-0.172009,-0.23496,0.175168,0.940491,-0.01888,0.057498,0.017044,0.004478,-0.030334,-0.012837,-0.381695,0.40586,-0.830413,0.39162961975115845
1763624566.197731,-0.172193,-0.234427,0.175177,0.940588,-0.017676,0.053598,0.021184,0.00383,-0.032114,-0.014935,-0.380671,0.406058,-0.830787,0.39052170766846406
1763624566.223878,-0.172335,-0.233894,0.175235,0.940684,-0.011876,0.05047,0.02672,0.003269,-0.033806,-0.015893,-0.379643,0.406199,-0.831188,0.3894103905754477
1763624566.263446,-0.172413,-0.233385,0.175367,0.940772,-0.008765,0.04241,0.030448,0.002822,-0.031767,-0.017891,-0.378654,0.406258,-0.83161,0.3883416547742971
1763624566.263749,-0.172432,-0.23291,0.175558,0.940851,-0.007242,0.039868,0.035034,0.005373,-0.0302,-0.016877,-0.377723,0.406243,-0.832041,0.3873358257308416
1763624566.285913,-0.172418,-0.232412,0.175813,0.940928,-0.007378,0.042677,0.040049,0.006348,-0.025146,-0.015841,-0.376739,0.406188,-0.832514,0.3862732746893293
1763624566.321299,-0.172456,-0.231936,0.17607,0.940991,-0.018734,0.035226,0.038433,0.003145,-0.020222,-0.016975,-0.37577,0.406233,-0.832929,0.3852277185387566
1763624566.321952,-0.172753,-0.231255,0.176508,0.941022,-0.045259,0.002479,0.032068,0.000729,-0.014298,-0.01759,-0.374247,0.406765,-0.833356,0.383584469384961
1763624566.32165,-0.172494,-0.23146,0.176326,0.941053,-0.030089,0.027775,0.036817,-5.8e-05,-0.015297,-0.01811,-0.374801,0.406277,-0.833344,0.3841823181523393
1763624566.347257,-0.173098,-0.231226,0.176691,0.940932,-0.058509,-0.007841,0.031793,0.00158,-0.01545,-0.014894,-0.373966,0.407457,-0.833143,0.3832818241973244
1763624566.377211,-0.173648,-0.231223,0.176843,0.940802,-0.079369,0.000863,0.035902,0.004789,-0.017272,-0.005637,-0.373653,0.408517,-0.832765,0.38294411508765874
1763624566.377504,-0.174422,-0.231212,0.176982,0.940636,-0.089034,0.006444,0.039867,0.002889,-0.015105,-0.006657,-0.373233,0.409977,-0.832236,0.38249125438608883
1763624566.402091,-0.175249,-0.231155,0.177171,0.94046,-0.097031,0.008213,0.045151,0.000607,-0.013674,-0.01117,-0.372686,0.411537,-0.831711,0.38190172380948184
1763624566.437424,-0.176197,-0.231173,0.177338,0.940247,-0.110646,-0.004676,0.047995,-0.000411,-0.010431,-0.010626,-0.372227,0.413329,-0.831027,0.38140735256456565
1763624566.437915,-0.177247,-0.231263,0.177502,0.939997,-0.117982,-0.014401,0.048262,-0.000645,-0.010395,-0.011923,-0.37185,0.415323,-0.830201,0.3810012695458179
1763624566.462137,-0.17833,-0.231496,0.177686,0.9397,-0.122381,-0.021729,0.057306,-0.000709,-0.011813,-0.009206,-0.371701,0.41742,-0.829216,0.38084057531602994
1763624566.497087,-0.179489,-0.231708,0.178008,0.939366,-0.135497,-0.009673,0.064385,0.002254,-0.006724,0.000876,-0.371415,0.419704,-0.82819,0.3805327294416584
1763624566.497396,-0.180832,-0.231816,0.178305,0.939025,-0.141002,0.004436,0.074086,0.000465,-0.011979,0.002564,-0.370877,0.42228,-0.827122,0.3799530021444578
1763624566.522051,-0.182165,-0.23186,0.178706,0.93868,-0.131774,-0.004088,0.077538,-0.004121,-0.006165,-0.000271,-0.370177,0.424859,-0.826113,0.379199774010827
1763624566.558474,-0.183374,-0.231905,0.179189,0.938342,-0.120408,0.003174,0.08752,0.00124,-0.006039,0.003331,-0.369495,0.427244,-0.825188,0.3784656567148657
1763624566.55887,-0.184621,-0.231905,0.179726,0.937995,-0.121524,0.008446,0.09862,0.001538,-0.004677,0.006098,-0.368688,0.429706,-0.82427,0.37759736854139675
1763624566.584306,-0.185907,-0.231749,0.180415,0.937647,-0.121047,0.030663,0.111186,0.002214,-0.00437,0.004856,-0.367517,0.432252,-0.823462,0.37633772342767763
1763624566.617818,-0.18722,-0.231503,0.181128,0.937309,-0.119604,0.028575,0.113293,-0.00014,0.000261,-0.000282,-0.366159,0.434828,-0.82271,0.3748780843701048
1763624566.617978,-0.188562,-0.231206,0.181822,0.936978,-0.121183,0.0346,0.104349,0.002999,0.001691,0.003956,-0.3647,0.437434,-0.821976,0.37331076049672685
1763624566.646052,-0.189925,-0.230811,0.182426,0.936683,-0.117542,0.053711,0.106019,0.009261,0.002467,0.007178,-0.363099,0.440011,-0.821309,0.371591931888936
1763624566.677655,-0.191321,-0.230251,0.182983,0.936428,-0.121485,0.077818,0.103117,0.013759,0.009188,0.010332,-0.36121,0.44258,-0.820762,0.3695651802028974
1763624566.704555,-0.192878,-0.229465,0.183419,0.936216,-0.138634,0.096804,0.093137,0.014039,0.013706,0.006593,-0.358903,0.445328,-0.820288,0.36709216997951327
1763624566.704859,-0.194631,-0.228634,0.183666,0.936009,-0.161249,0.109949,0.079697,0.016654,0.014312,0.00522,-0.356512,0.448338,-0.81969,0.36453201067745933
1763624566.736763,-0.196533,-0.227715,0.183685,0.935832,-0.170388,0.11673,0.059047,0.017895,0.014052,-0.000728,-0.354005,0.451499,-0.819042,0.3618498291443545
1763624566.764382,-0.198493,-0.226797,0.183564,0.935664,-0.171233,0.121343,0.043015,0.017018,0.009113,-0.000277,-0.35154,0.454709,-0.818327,0.3592156435733645
1763624566.764722,-0.200466,-0.225885,0.183264,0.935523,-0.170195,0.118291,0.030138,0.017235,0.006766,-0.002063,-0.349164,0.457875,-0.817579,0.35667872350656366
1763624566.79765,-0.202309,-0.225011,0.182922,0.935404,-0.15852,0.112762,0.021041,0.01349,0.003319,-0.003381,-0.346939,0.460801,-0.816882,0.3543053281991321
1763624566.824031,-0.204008,-0.224181,0.182551,0.935307,-0.147564,0.101188,0.022832,0.01416,-0.001213,-0.005344,-0.344872,0.46347,-0.816247,0.3521023600493698
1763624566.824323,-0.205588,-0.223441,0.182284,0.93519,-0.135675,0.093147,0.029145,0.010537,-0.002314,-0.00682,-0.342968,0.465987,-0.815616,0.3500746521227706
1763624566.858733,-0.207068,-0.222766,0.182151,0.93505,-0.127605,0.075236,0.03585,0.008358,-0.000468,-0.008051,-0.34116,0.468392,-0.814996,0.348150713312114
1763624566.882293,-0.2084,-0.222245,0.18211,0.934886,-0.123746,0.056197,0.041954,0.009262,0.000141,-0.00595,-0.339643,0.470607,-0.814353,0.3465374662157291
1763624566.883851,-0.209689,-0.22181,0.182149,0.934694,-0.122805,0.050168,0.04892,0.009505,-0.001012,-0.001991,-0.33826,0.472795,-0.813662,0.3450671465014012
1763624566.917578,-0.210932,-0.221406,0.182282,0.934484,-0.118122,0.052179,0.050187,0.011059,0.002505,-0.001293,-0.336902,0.474942,-0.812974,0.34362467138080827
1763624566.942475,-0.212187,-0.220945,0.182392,0.934288,-0.117307,0.051254,0.049175,0.00763,0.003641,-7.2e-05,-0.335451,0.477084,-0.81232,0.3420838753884397
1763624566.942818,-0.213365,-0.220543,0.182457,0.934101,-0.107962,0.045459,0.039482,0.012391,0.006167,-0.001429,-0.33416,0.479088,-0.811672,0.3407139194488071
1763624566.978778,-0.214486,-0.220128,0.182455,0.933943,-0.103911,0.054302,0.031238,0.01286,0.007699,-0.000449,-0.332906,0.480963,-0.811078,0.3393838078157068
1763624567.007113,-0.215633,-0.219735,0.182362,0.933789,-0.108722,0.053774,0.026204,0.014502,0.007206,-0.002901,-0.331725,0.482855,-0.810438,0.33813149625975525
1763624567.00737,-0.216839,-0.219321,0.182238,0.933632,-0.118221,0.058181,0.024216,0.013224,0.009099,-0.003125,-0.330498,0.484833,-0.809758,0.33683117958447634
1763624567.037661,-0.218127,-0.218915,0.182122,0.93345,-0.123456,0.051415,0.028419,0.011406,0.008227,-0.004625,-0.32924,0.48696,-0.808994,0.33549853306396205
1763624567.06458,-0.21945,-0.218571,0.182009,0.933242,-0.119588,0.040904,0.027644,0.010418,0.004793,-0.005172,-0.328076,0.489164,-0.808137,0.33426600251072597
1763624567.064899,-0.22069,-0.218309,0.181965,0.93302,-0.110906,0.030958,0.027869,0.009529,0.006449,-0.005255,-0.327059,0.491265,-0.807274,0.33318970112249513
1763624567.097545,-0.221878,-0.218188,0.181953,0.932769,-0.11375,0.012138,0.030584,0.008304,0.005744,-0.003303,-0.326296,0.493321,-0.806328,0.332382525232318
1763624567.123564,-0.223023,-0.218169,0.182044,0.932482,-0.10973,-0.000365,0.038951,0.007003,-0.002005,0.001057,-0.325677,0.495363,-0.805326,0.33172768152701027
1763624567.123904,-0.224089,-0.218209,0.182233,0.93218,-0.101303,-0.007119,0.046347,0.003304,0.000356,-0.001333,-0.325148,0.497313,-0.804338,0.3311680455610607
1763624567.155768,-0.225004,-0.218354,0.182527,0.931868,-0.08554,-0.019181,0.049443,0.005869,0.00183,-0.001131,-0.324816,0.49906,-0.803389,0.3308171377823618
1763624567.184332,-0.225874,-0.218464,0.18293,0.931553,-0.079442,-0.012919,0.055958,0.009546,0.006156,0.005702,-0.324382,0.500755,-0.802509,0.33035833597754105
1763624567.184645,-0.226724,-0.218492,0.183319,0.931263,-0.085037,-0.006873,0.057871,0.008767,0.010027,0.00466,-0.323821,0.502388,-0.801715,0.3297652005937982
1763624567.217582,-0.227615,-0.218496,0.183718,0.930967,-0.086219,-0.00467,0.059328,0.006883,0.009542,0.00194,-0.323191,0.504087,-0.800902,0.32909949095051316
1763624567.247192,-0.228512,-0.218601,0.184062,0.930654,-0.092214,-0.016864,0.05085,0.004788,0.009462,0.001146,-0.322762,0.505804,-0.799992,0.32864618816469837
1763624567.247457,-0.229451,-0.218788,0.184381,0.930316,-0.089428,-0.023714,0.043241,0.003764,0.004507,0.002479,-0.322471,0.507605,-0.798968,0.3283387405523403
1763624567.277712,-0.230355,-0.218998,0.184683,0.929983,-0.084315,-0.022296,0.044366,0.003218,0.004636,0.002731,-0.322244,0.509343,-0.797953,0.3280989002929652
1763624567.302582,-0.231227,-0.219252,0.184999,0.929644,-0.084108,-0.024626,0.044828,0.001674,0.006524,0.002907,-0.322098,0.511041,-0.796925,0.32794484691383086
1763624567.302919,-0.232061,-0.219536,0.18532,0.929305,-0.081016,-0.029897,0.043568,-0.000994,0.006101,0.002222,-0.322021,0.512679,-0.795903,0.3278636178213956
1763624567.337841,-0.232834,-0.219847,0.18566,0.92897,-0.07499,-0.031458,0.044749,-0.000472,0.002879,0.002083,-0.322006,0.514226,-0.794911,0.32784762522842104
1763624567.364448,-0.233518,-0.220165,0.186023,0.928651,-0.065116,-0.033511,0.043742,7.3e-05,0.005271,0.005732,-0.322033,0.515624,-0.793994,0.3278761284631292
1763624567.364786,-0.234114,-0.220475,0.186378,0.928356,-0.060358,-0.034161,0.0398,-0.000162,0.006797,0.006476,-0.32209,0.516865,-0.793163,0.3279364884357913
1763624567.397637,-0.234701,-0.220771,0.186702,0.928072,-0.060541,-0.024343,0.041981,0.003185,0.004215,0.011223,-0.322145,0.518076,-0.792351,0.3279943622992448
1763624567.424398,-0.235346,-0.22093,0.187028,0.927805,-0.064439,-0.014415,0.044839,-0.000831,0.0044,0.005204,-0.321928,0.519351,-0.791604,0.3277651956479802
1763624567.424701,-0.235992,-0.221143,0.187356,0.927524,-0.057429,-0.026796,0.043871,-0.003342,0.002181,-0.000641,-0.321802,0.520642,-0.790807,0.3276320560909086
1763624567.455641,-0.236513,-0.221446,0.187738,0.927242,-0.046407,-0.033113,0.044567,-0.001923,0.000646,0.002763,-0.321863,0.521757,-0.790047,0.3276964686567799
1763624567.48438,-0.237004,-0.221712,0.188115,0.926977,-0.043694,-0.026467,0.043185,-0.001227,0.000442,0.001267,-0.321875,0.522809,-0.789346,0.32770923598227336
1763624567.484711,-0.237477,-0.221925,0.188504,0.926725,-0.041499,-0.025589,0.04158,-0.001662,0.001893,0.000409,-0.321797,0.52382,-0.788707,0.3276269276504273
1763624567.517628,-0.237926,-0.222169,0.188841,0.926483,-0.049882,-0.024977,0.037164,-0.001598,0.002271,0.001268,-0.321812,0.524777,-0.788065,0.3276426218856365
1763624567.544451,-0.238453,-0.222405,0.189119,0.926234,-0.059988,-0.024216,0.036312,-0.001598,0.003469,0.003561,-0.321807,0.525849,-0.787352,0.32763737824105293
1763624567.544759,-0.239043,-0.22266,0.189368,0.92597,-0.0659,-0.017433,0.037407,-0.000799,-0.00045,0.005248,-0.321818,0.527023,-0.786562,0.327649037146174
1763624567.578923,-0.23974,-0.222794,0.189588,0.925713,-0.068725,-0.006336,0.038477,-0.000772,-0.001417,0.004601,-0.321583,0.52834,-0.785775,0.32740062537673736
1763624567.6041,-0.240428,-0.222869,0.189788,0.925475,-0.066869,0.001556,0.035953,-0.001011,-0.001173,0.003931,-0.321259,0.529616,-0.785048,0.3270585233748408
1763624567.604397,-0.241136,-0.222893,0.189966,0.925249,-0.061029,0.004145,0.031308,-0.000304,-0.00031,0.005202,-0.320847,0.530906,-0.784344,0.32662371825650377
1763624567.637129,-0.241769,-0.222898,0.190073,0.92506,-0.06174,0.00956,0.027105,0.000629,0.0007,0.006936,-0.32048,0.532036,-0.783729,0.32623602201457963
1763624567.662123,-0.242415,-0.222851,0.190118,0.924893,-0.062483,0.015077,0.021748,0.000173,0.00346,0.003659,-0.320051,0.533152,-0.783145,0.32578335401187275
1763624567.662944,-0.243064,-0.222766,0.190105,0.924746,-0.062265,0.01876,0.018151,0.000387,0.003161,0.002847,-0.319589,0.534243,-0.78259,0.3252957385613505
1763624567.697643,-0.243677,-0.22271,0.190038,0.924612,-0.059311,0.019564,0.015767,-7.2e-05,0.00183,0.001741,-0.319224,0.53526,-0.782044,0.32491052379113294
1763624567.721516,-0.244301,-0.22262,0.190012,0.924474,-0.059503,0.01404,0.016635,-0.002113,0.002476,0.001188,-0.318772,0.536301,-0.781515,0.32443360781027847
1763624567.760411,-0.244967,-0.222567,0.190037,0.924306,-0.061328,0.012626,0.020633,-0.001409,0.002594,0.001844,-0.318335,0.537441,-0.78091,0.32397252679091665
1763624567.760715,-0.245633,-0.222515,0.190062,0.924136,-0.063153,0.011212,0.02463,-0.000705,0.002714,0.002498,-0.317897,0.53858,-0.780303,0.3235106505422288
1763624567.785976,-0.246296,-0.222489,0.190143,0.92395,-0.064191,0.009581,0.028909,-0.001067,0.003101,0.000163,-0.317474,0.53974,-0.779674,0.32306439564295314
1763624567.787313,-0.246973,-0.222444,0.19025,0.923757,-0.064405,0.013439,0.029814,0.001362,0.001376,0.001814,-0.316995,0.540926,-0.779046,0.32255949313481674
1763624567.815161,-0.247639,-0.222395,0.190311,0.923578,-0.066324,0.015981,0.022093,-0.000214,0.003893,0.003979,-0.316542,0.542076,-0.778431,0.322081796166226
1763624567.847219,-0.248313,-0.222363,0.190305,0.923406,-0.063905,0.011291,0.017799,-0.001648,0.005826,0.00109,-0.316152,0.543222,-0.77779,0.32167077229583496
1763624567.847529,-0.248951,-0.222344,0.19027,0.923246,-0.06336,0.006823,0.00971,-0.000935,0.003551,0.001291,-0.315821,0.544297,-0.777173,0.3213218159604989
1763624567.872424,-0.249551,-0.222378,0.190203,0.92309,-0.060489,0.003348,0.010221,-0.002377,0.003433,0.001572,-0.31562,0.54531,-0.776544,0.3211100535483541
1763624567.902048,-0.250163,-0.222415,0.190152,0.922926,-0.058077,0.002924,0.012101,-0.002421,0.000896,0.003231,-0.315407,0.54635,-0.7759,0.3208853979731171
1763624567.908313,-0.250738,-0.222457,0.190162,0.922758,-0.053251,0.002095,0.018045,-0.002639,0.000115,0.00674,-0.315187,0.547346,-0.775287,0.3206536210675743
1763624567.932213,-0.251326,-0.222423,0.190238,0.92259,-0.056676,0.014829,0.025806,-0.001485,0.004466,0.006313,-0.314787,0.548369,-0.774726,0.3202322720206212
1763624567.962346,-0.251941,-0.222332,0.190318,0.922428,-0.054421,0.01745,0.027566,-0.000927,0.00526,0.006677,-0.314273,0.549422,-0.774188,0.3196909027580298
1763624567.965723,-0.252519,-0.222156,0.190398,0.922296,-0.046307,0.022759,0.028683,-0.000415,0.005607,0.004735,-0.313629,0.550391,-0.773761,0.31901254520866756
1763624567.993596,-0.253019,-0.221987,0.19047,0.922184,-0.038007,0.023193,0.027156,-0.000698,0.006076,0.006696,-0.313042,0.551225,-0.773405,0.31839440106002526
1763624568.023596,-0.253449,-0.221789,0.19054,0.9221,-0.024495,0.023944,0.023991,-0.000183,-0.001288,0.009029,-0.31244,0.551929,-0.773146,0.31776068726272155
1763624568.027659,-0.253806,-0.221525,0.190636,0.922045,-0.01996,0.026388,0.030726,-0.004603,0.000655,0.003824,-0.311743,0.552503,-0.773018,0.31702688219327163
1763624568.052197,-0.254108,-0.221345,0.190823,0.921966,-0.015612,0.013843,0.032923,-0.004525,0.003224,0.001478,-0.311166,0.553034,-0.77287,0.3164198721572748
1763624568.081714,-0.254378,-0.221211,0.19109,0.921869,-0.012315,0.016858,0.032935,0.001902,0.003073,0.006673,-0.310636,0.553548,-0.772716,0.3158620393381537
1763624568.087147,-0.254584,-0.220937,0.191314,0.921831,-0.004053,0.031325,0.034065,0.003294,0.00133,0.005974,-0.309922,0.553905,-0.772747,0.31511093954577896
1763624568.113034,-0.254719,-0.220607,0.191488,0.921837,0.003657,0.035451,0.021989,0.002467,0.005936,0.004243,-0.309175,0.554106,-0.772902,0.31432538379470587
1763624568.147376,-0.2548,-0.220298,0.191546,0.921876,0.004246,0.025073,0.010451,0.001176,0.009013,0.000891,-0.308564,0.554182,-0.773091,0.3136831375600133
1763624568.147727,-0.25488,-0.220089,0.191507,0.921912,-0.003177,0.020345,0.001397,0.003752,0.006441,0.001984,-0.308183,0.554251,-0.773194,0.3132824937075278
1763624568.17224,-0.254989,-0.21989,0.191436,0.921944,-0.004924,0.02604,-0.000894,0.00507,0.004322,0.002788,-0.307824,0.554361,-0.773259,0.3129049355903013
1763624568.202358,-0.255148,-0.219647,0.191365,0.921973,-0.007087,0.025303,0.000668,0.003002,0.001837,0.001604,-0.307365,0.554545,-0.773309,0.3124227108328685
1763624568.206395,-0.255279,-0.21941,0.191309,0.922005,-0.002493,0.019896,0.005367,0.00166,0.000327,-5.7e-05,-0.30692,0.554688,-0.773383,0.31195515399949997
1763624568.233837,-0.255394,-0.219206,0.191322,0.922019,-0.000127,0.014528,0.005013,0.001386,-0.001089,-0.001511,-0.3065,0.554834,-0.773445,0.31151384479962463
1763624568.247882,-0.255431,-0.219053,0.191374,0.922034,0.002662,0.00954,0.01042,0.001467,0.000478,-0.001161,-0.306183,0.554874,-0.773542,0.3111807979706214
1763624568.267232,-0.255443,-0.218937,0.191476,0.922037,0.00397,0.001205,0.009617,0.001456,0.002445,-0.002527,-0.305913,0.554898,-0.773631,0.3108973392731308
1763624568.293754,-0.255409,-0.218904,0.191562,0.922037,0.009176,-0.000888,0.005775,0.004054,-0.001914,0.002509,-0.305822,0.554859,-0.773695,0.3108017455271765
1763624568.322273,-0.255287,-0.218806,0.191629,0.922079,0.017258,0.007369,0.002155,0.004374,-0.00157,0.000413,-0.305673,0.55465,-0.773904,0.31064517947738096
1763624568.325583,-0.255081,-0.218708,0.191657,0.922154,0.026575,0.004558,-0.003515,0.005228,-0.001207,0.000525,-0.305588,0.554282,-0.774201,0.3105559490847753
1763624568.352373,-0.25483,-0.218559,0.19167,0.922256,0.028819,0.013002,-0.000161,0.006688,-0.001664,0.00227,-0.305448,0.553819,-0.774587,0.3104090414926368
1763624568.381543,-0.254644,-0.218306,0.191697,0.922362,0.024201,0.019819,0.001586,0.005363,-8e-06,-0.0002,-0.305084,0.553446,-0.774998,0.310026533545939
1763624568.38719,-0.254506,-0.218058,0.191705,0.922457,0.017693,0.019505,0.000296,0.003785,-0.000308,-0.001277,-0.304717,0.553147,-0.775355,0.30964137571332906
1763624568.413539,-0.254429,-0.21784,0.191705,0.92253,0.008066,0.014047,0.002185,0.002511,-0.000655,-0.002436,-0.304377,0.552959,-0.775623,0.3092843197987918
1763624568.446929,-0.254433,-0.217685,0.191725,0.922561,0.002331,0.007549,0.003437,0.00276,-0.004364,-0.001841,-0.304093,0.552932,-0.775754,0.3089860971281024
1763624568.447271,-0.254472,-0.217563,0.191765,0.92257,-0.001727,0.010322,0.009423,0.003356,-0.004043,0.000491,-0.303837,0.552979,-0.77582,0.30871758156044027
1763624568.472047,-0.254561,-0.217384,0.191845,0.922572,-0.003817,0.019578,0.015738,0.006253,-0.00446,0.004099,-0.303432,0.553109,-0.775886,0.3082924719319879
1763624568.501525,-0.254704,-0.217096,0.191934,0.922582,-0.006518,0.02781,0.016169,0.006001,-0.002187,0.002701,-0.302805,0.553306,-0.775991,0.3076343897672429
1763624568.532288,-0.25512,-0.216386,0.192005,0.922619,-0.017914,0.034094,0.012393,0.005318,0.002358,-0.001236,-0.301314,0.553852,-0.776182,0.3060702946653749
1763624568.53191,-0.254887,-0.216763,0.191989,0.922598,-0.013894,0.034195,0.017133,0.006186,0.001057,0.00069,-0.3021,0.55355,-0.776092,0.3068946889544731
1763624568.562265,-0.255392,-0.21609,0.191962,0.922622,-0.021079,0.027868,0.004097,0.004876,0.002774,-0.002794,-0.300687,0.554223,-0.77616,0.30541288348209716
1763624568.593942,-0.255833,-0.215731,0.191753,0.922627,-0.01399,0.017011,-0.004497,0.005873,0.000841,-0.000621,-0.299966,0.554811,-0.776019,0.3046569598235311
1763624568.59227,-0.255641,-0.215891,0.191866,0.922619,-0.017131,0.020819,-0.002083,0.005414,0.001287,-0.002477,-0.300272,0.554563,-0.776078,0.3049777283426729
1763624568.620399,-0.256002,-0.215562,0.191657,0.92264,-0.012472,0.016692,-0.001023,0.0057,0.001033,-0.001255,-0.299643,0.555023,-0.775992,0.30431843173765644
1763624568.651914,-0.256122,-0.215427,0.191618,0.922646,-0.007935,0.012361,-0.000167,0.005394,0.000558,-8.8e-05,-0.299371,0.555179,-0.775986,0.3040331958631593
1763624568.652221,-0.256238,-0.215307,0.191586,0.922648,-0.007636,0.007568,0.001398,0.006032,0.001557,-0.000722,-0.299121,0.555335,-0.77597,0.3037713801285176
1763624568.681617,-0.256353,-0.215212,0.191594,0.922637,-0.010316,0.00396,0.005139,0.003957,0.001153,-0.000561,-0.298894,0.555508,-0.775934,0.3035334097649748
1763624568.712121,-0.256504,-0.215164,0.191639,0.922597,-0.015811,-0.00345,0.006632,0.002284,0.001159,-0.00169,-0.298707,0.555767,-0.77582,0.30333758792168747
1763624568.712478,-0.256692,-0.215191,0.19171,0.922523,-0.017968,-0.011714,0.010987,0.002082,-0.000523,-0.002964,-0.298617,0.556117,-0.775604,0.30324323797105773
1763624568.74859,-0.256893,-0.215286,0.191862,0.922413,-0.024366,-0.015749,0.016137,0.001352,-5e-06,-0.001209,-0.29859,0.556534,-0.775315,0.3032150043211005
1763624568.748938,-0.257129,-0.215432,0.192055,0.922274,-0.02446,-0.022844,0.020603,0.000581,-0.000432,-0.000881,-0.298609,0.557036,-0.774948,0.3032346916123311
1763624568.775923,-0.257344,-0.215625,0.192288,0.92212,-0.021512,-0.021805,0.024245,0.002063,-0.002716,0.001683,-0.298695,0.557528,-0.774561,0.3033247925944043
1763624568.802313,-0.257522,-0.215729,0.19257,0.921987,-0.016833,-0.015717,0.027388,0.001811,-0.001146,0.002655,-0.298616,0.55795,-0.774287,0.3032421461809405
1763624568.831998,-0.257687,-0.21578,0.192835,0.921874,-0.014934,-0.007968,0.024836,0.003962,0.001097,0.004324,-0.298462,0.55833,-0.774072,0.3030808911533786
1763624568.832235,-0.25788,-0.215762,0.193033,0.921782,-0.020182,0.001964,0.017544,0.003554,0.003336,0.004219,-0.298214,0.558717,-0.773889,0.30282089516762273
1763624568.861435,-0.258107,-0.215716,0.193113,0.921713,-0.023807,0.003456,0.008245,0.000907,0.002474,0.001214,-0.29797,0.559116,-0.773694,0.30256546627560515
1763624568.891612,-0.25834,-0.215728,0.193092,0.921649,-0.021667,-0.003693,0.002793,9.6e-05,0.000877,-0.001197,-0.297885,0.559508,-0.773444,0.30247625593109223
1763624568.891898,-0.258551,-0.215825,0.193048,0.921577,-0.025345,-0.007069,-0.004567,0.0009,0.004179,0.000916,-0.297974,0.559878,-0.773142,0.3025694687507055
1763624568.923434,-0.258796,-0.215942,0.192924,0.921506,-0.025544,-0.002654,-0.011308,0.002284,-0.000819,0.003162,-0.298128,0.560285,-0.772788,0.3027307315075478
1763624568.954567,-0.25897,-0.216013,0.192771,0.921473,-0.017981,-0.003678,-0.011586,-0.000993,0.000813,-0.000217,-0.298257,0.560551,-0.772545,0.30286594864705463
1763624568.954891,-0.259069,-0.216148,0.192623,0.921444,-0.013515,-0.004462,-0.01106,0.002266,0.000766,0.001597,-0.298532,0.560705,-0.772326,0.3031543151380147
1763624568.983581,-0.259158,-0.216144,0.192527,0.92144,-0.009422,0.015294,-0.002097,0.005422,0.000491,0.00541,-0.298538,0.560825,-0.772237,0.303160492355312
1763624569.01441,-0.259302,-0.21596,0.192468,0.921455,-0.011232,0.022851,0.002836,0.001445,0.002143,0.001753,-0.29818,0.561001,-0.772247,0.3027855240073009
1763624569.014723,-0.259463,-0.215834,0.192416,0.92145,-0.016572,0.011243,0.000373,-0.000514,0.002678,-0.002152,-0.297912,0.561224,-0.772189,0.30250461917635413
1763624569.047533,-0.259682,-0.215854,0.192402,0.921387,-0.025861,-0.007092,0.003676,-0.002196,0.002157,-0.003122,-0.297843,0.561597,-0.771944,0.30243243265763003
1763624569.074531,-0.259944,-0.216038,0.19245,0.92126,-0.029846,-0.018881,0.009427,-0.000119,-0.000606,0.000359,-0.298001,0.562105,-0.771514,0.30259774632364084
1763624569.074829,-0.260225,-0.216252,0.192577,0.921104,-0.030141,-0.021477,0.016421,0.001419,-0.002787,0.003785,-0.298153,0.562678,-0.771037,0.30275709130312484
1763624569.103582,-0.260488,-0.216419,0.19278,0.920948,-0.026269,-0.021203,0.023543,0.000736,-0.00238,0.003653,-0.298187,0.563235,-0.770617,0.30279272494130205
1763624569.134676,-0.260745,-0.216567,0.193013,0.920791,-0.028695,-0.020706,0.025385,-0.00063,0.000431,0.002396,-0.298171,0.563785,-0.770221,0.30277593938458147
1763624569.134976,-0.260988,-0.216728,0.193249,0.920635,-0.026323,-0.020236,0.024785,-6.9e-05,-0.000188,0.001387,-0.298184,0.564314,-0.769828,0.3027896717499903
1763624569.163276,-0.261225,-0.216894,0.193485,0.920479,-0.023519,-0.021143,0.025954,-0.000664,0.001419,-0.000225,-0.298207,0.564836,-0.769436,0.30281380835828875
1763624569.191323,-0.26146,-0.217063,0.193722,0.920323,-0.024994,-0.022391,0.023607,-0.000219,0.001032,0.001105,-0.298235,0.565355,-0.769045,0.30284287395634396
1763624569.191361,-0.261687,-0.217222,0.193949,0.920173,-0.022619,-0.016811,0.023509,-0.000248,-0.000474,0.001346,-0.298255,0.565855,-0.768669,0.30286392843945836
1763624569.220524,-0.261882,-0.217407,0.19414,0.920034,-0.020752,-0.02352,0.018081,-0.002143,0.000393,0.000439,-0.298359,0.566295,-0.768304,0.3029730146791415
1763624569.249993,-0.262061,-0.21758,0.194338,0.9199,-0.019659,-0.017763,0.020219,0.000161,-0.001598,0.002952,-0.298446,0.566708,-0.767966,0.30306407492020515
1763624569.250024,-0.262274,-0.217679,0.194546,0.919772,-0.020189,-0.007259,0.024099,0.000938,-0.002072,0.003609,-0.298381,0.567162,-0.767656,0.30299598122770743
1763624569.284358,-0.262485,-0.217704,0.194757,0.919661,-0.018588,-0.0056,0.023971,-0.000229,0.000597,0.00074,-0.298185,0.567594,-0.767413,0.30279059170351796
1763624569.3102,-0.262714,-0.217763,0.19495,0.919541,-0.021206,-0.01186,0.019133,-0.002332,0.002444,-0.001465,-0.298051,0.568058,-0.767122,0.3026501307047787
1763624569.310288,-0.262954,-0.217899,0.195125,0.919403,-0.02643,-0.020061,0.017191,-0.00202,0.00237,-0.000533,-0.298056,0.568556,-0.766751,0.3026553769867209
1763624569.344877,-0.263194,-0.218098,0.195295,0.919251,-0.027185,-0.020556,0.016794,-0.000929,0.001408,0.000163,-0.298173,0.56907,-0.766324,0.3027779697987383
1763624569.371796,-0.263415,-0.218312,0.195462,0.919101,-0.022963,-0.020083,0.016691,-0.000225,0.001075,0.002016,-0.298326,0.569553,-0.765905,0.3029383877782273
1763624569.37184,-0.263619,-0.218499,0.195639,0.918961,-0.023083,-0.016383,0.019157,1.2e-05,0.001325,0.003198,-0.298436,0.570004,-0.765527,0.30305352794492746
1763624569.40059,-0.263837,-0.218635,0.195838,0.918823,-0.021859,-0.014369,0.021587,-0.00046,0.000829,0.002632,-0.298435,0.570474,-0.765177,0.3030525300113317
1763624569.416884,-0.264042,-0.218737,0.196048,0.918695,-0.017602,-0.014728,0.021332,-0.000457,0.00192,0.002688,-0.298375,0.570915,-0.764871,0.3029897675912391
1763624569.435504,-0.264214,-0.218854,0.196233,0.918579,-0.014167,-0.014347,0.017792,-0.000274,0.002041,0.003096,-0.298374,0.571295,-0.764588,0.30298862511959834
1763624569.461978,-0.264344,-0.218955,0.196397,0.918482,-0.011344,-0.012096,0.014371,0.001253,0.002165,0.005016,-0.29838,0.571595,-0.764361,0.3029950089976143
1763624569.490918,-0.264445,-0.219029,0.19653,0.918407,-0.005941,-0.008083,0.008947,0.001951,0.003049,0.004236,-0.298373,0.571827,-0.76419,0.3029877195535278
1763624569.491243,-0.264508,-0.219074,0.196588,0.918366,-0.004129,-0.002434,0.004115,0.0015,0.003998,0.003983,-0.298382,0.571965,-0.764084,0.302996958855237
1763624569.52569,-0.264566,-0.219086,0.196623,0.918339,-0.00412,-0.000218,0.003689,0.000536,0.002536,0.002522,-0.298351,0.572076,-0.764013,0.3029644802568381
1763624569.552355,-0.264634,-0.219085,0.196636,0.918316,-0.004223,-8.5e-05,0.001224,0.000174,0.001508,0.001498,-0.298306,0.572195,-0.763941,0.3029174417936933
1763624569.552679,-0.264706,-0.219079,0.19664,0.918296,-0.002894,-0.000377,0.000717,-0.000251,0.000156,0.001131,-0.298256,0.572317,-0.76387,0.3028648496773069
