timestamp,quat_x,quat_y,quat_z,quat_w,rot_x,rot_y,rot_z,acc_x,acc_y,acc_z,grav_x,grav_y,grav_z
1759776691.847800,-0.087360,0.055033,-0.000000,0.994656,0.160487,0.063090,0.037331,0.007204,0.026315,-0.002966,0.109479,0.173785,-0.978679
1759776691.885476,-0.084579,0.056014,0.000455,0.994841,0.264743,0.057199,0.051783,0.001153,0.011984,0.004475,0.111528,0.168234,-0.979418
1759776691.914154,-0.089786,0.057405,0.000406,0.994305,0.321129,0.069302,0.076143,0.002026,-0.008542,0.001188,0.114229,0.178503,-0.977286
1759776691.914315,-0.094991,0.058794,0.000357,0.993740,0.377514,0.081406,0.100504,0.002910,-0.029047,-0.002214,0.116919,0.188751,-0.975040
1759776691.944243,-0.094741,0.060228,0.001095,0.993678,0.581940,0.129511,0.122712,0.005590,-0.072675,-0.010261,0.119902,0.188152,-0.974793
1759776691.944254,-0.090481,0.060274,0.001329,0.994072,0.674036,0.125344,0.091562,0.005758,-0.066116,-0.002360,0.120074,0.179729,-0.976360
1759776691.977223,-0.086339,0.060725,0.001384,0.994412,0.713089,0.122445,0.078130,0.009506,-0.055344,-0.001151,0.121010,0.171546,-0.977716
1759776691.977513,-0.082196,0.061175,0.001439,0.994736,0.752142,0.119546,0.064698,0.013259,-0.044561,-0.000010,0.121942,0.163351,-0.979003
1759776692.010216,-0.069950,0.063301,0.001582,0.995539,0.689614,0.135368,0.052131,0.015011,-0.036317,0.001155,0.126259,0.139075,-0.982200
1759776692.043585,-0.058467,0.065141,0.001452,0.996161,0.585214,0.106938,0.006745,0.013429,-0.035855,-0.003467,0.129951,0.116296,-0.984677
1759776692.043936,-0.055208,0.065956,0.001120,0.996293,0.525862,0.105369,-0.015700,0.011786,-0.035775,-0.001483,0.131547,0.109859,-0.985204
1759776692.080400,-0.052853,0.066695,0.000744,0.996372,0.465528,0.096792,-0.030716,0.010421,-0.033768,0.000821,0.132985,0.105222,-0.985517
1759776692.080708,-0.050497,0.067433,0.000369,0.996445,0.405194,0.088214,-0.045733,0.009053,-0.031761,0.003100,0.134425,0.100585,-0.985806
1759776692.120886,-0.045644,0.068800,-0.000894,0.996585,0.282120,0.047886,-0.067148,0.009078,-0.039989,0.006894,0.137048,0.091100,-0.986366
1759776692.121194,-0.044211,0.069116,-0.001316,0.996628,0.263443,0.028536,-0.073147,0.009873,-0.046656,0.010079,0.137649,0.088307,-0.986537
1759776692.156004,-0.039630,0.069739,-0.002715,0.996774,0.262623,0.023503,-0.081510,0.020639,-0.054284,-0.007146,0.138812,0.079383,-0.987132
1759776692.156262,-0.037804,0.070028,-0.003328,0.996823,0.270527,0.033241,-0.079083,0.021238,-0.052274,-0.006733,0.139359,0.075834,-0.987334
1759776692.186084,-0.032372,0.071181,-0.004736,0.996927,0.275654,0.057812,-0.060139,0.013810,-0.054014,-0.005055,0.141618,0.065219,-0.987771
1759776692.215632,-0.029881,0.071811,-0.005187,0.996957,0.271866,0.048262,-0.056614,0.007607,-0.048712,-0.000263,0.142875,0.060324,-0.987901
1759776692.217642,-0.024622,0.072952,-0.006150,0.997012,0.214018,0.015502,-0.047884,0.002644,-0.030922,0.003502,0.145165,0.049995,-0.988144
1759776692.263898,-0.021673,0.073533,-0.006749,0.997034,0.100397,0.004758,-0.040041,0.000096,-0.022514,0.008802,0.146338,0.044210,-0.988246
1759776692.264189,-0.020679,0.073629,-0.007003,0.997047,0.033429,-0.012440,-0.038068,-0.003113,-0.019959,0.007708,0.146533,0.042267,-0.988302
1759776692.293593,-0.020231,0.073512,-0.007237,0.997063,-0.015552,-0.023786,-0.043308,-0.003094,-0.027700,0.003201,0.146300,0.041408,-0.988373
1759776692.325351,-0.019938,0.073097,-0.007679,0.997096,-0.069199,-0.022025,-0.016520,-0.001757,-0.048165,-0.016752,0.145463,0.040882,-0.988519
1759776692.354123,-0.019766,0.073091,-0.007849,0.997098,-0.030894,-0.020825,-0.025079,-0.007118,-0.050372,-0.012671,0.145448,0.040564,-0.988534
1759776692.354441,-0.019593,0.073086,-0.008020,0.997101,0.007411,-0.019625,-0.033638,-0.012480,-0.052579,-0.008591,0.145434,0.040245,-0.988549
1759776692.355947,-0.018257,0.072783,-0.008611,0.997144,0.067345,-0.022797,-0.044024,-0.013708,-0.047210,-0.011581,0.144835,0.037664,-0.988739
1759776692.385369,-0.017231,0.072676,-0.008800,0.997168,0.060481,-0.008530,-0.019755,-0.013154,-0.042425,-0.009892,0.144636,0.035644,-0.988843
1759776692.422355,-0.014872,0.072264,-0.008961,0.997234,0.053866,-0.014018,-0.012314,-0.019236,-0.037843,-0.004100,0.143861,0.030956,-0.989114
1759776692.422646,-0.013935,0.071843,-0.008975,0.997278,0.029009,-0.032654,0.004908,-0.016855,-0.031660,-0.005958,0.143044,0.029084,-0.989289
1759776692.455174,-0.013411,0.071469,-0.008807,0.997314,-0.001331,-0.022723,0.024574,-0.012325,-0.032333,-0.015174,0.142318,0.028008,-0.989425
1759776692.457532,-0.012982,0.070810,-0.007979,0.997373,-0.089293,-0.028095,0.084125,-0.012754,-0.031470,-0.011271,0.141041,0.027025,-0.989635
1759776692.486484,-0.013351,0.070335,-0.007209,0.997408,-0.141409,-0.039321,0.093967,-0.011530,-0.038435,-0.012294,0.140113,0.027646,-0.989750
1759776692.524894,-0.015163,0.069249,-0.005385,0.997470,-0.250776,-0.052455,0.106155,-0.002254,-0.054951,-0.012503,0.137984,0.030994,-0.989949
1759776692.525209,-0.016462,0.068830,-0.004591,0.997482,-0.287232,-0.056801,0.095482,-0.000929,-0.058611,-0.008146,0.137163,0.033472,-0.989983
1759776692.579845,-0.018330,0.068280,-0.003913,0.997490,-0.315426,-0.059281,0.076127,0.004621,-0.061150,-0.008541,0.136074,0.037103,-0.990004
1759776692.580195,-0.020199,0.067730,-0.003235,0.997494,-0.343621,-0.061760,0.056772,0.010167,-0.063690,-0.008951,0.134989,0.040735,-0.990009
1759776692.580652,-0.022068,0.067179,-0.002557,0.997494,-0.371816,-0.064240,0.037416,0.015710,-0.066231,-0.009376,0.133909,0.044368,-0.990000
1759776692.610516,-0.026459,0.066422,-0.001915,0.997439,-0.376472,-0.044271,-0.030686,0.010366,-0.050573,0.001547,0.132403,0.053037,-0.989776
1759776692.645197,-0.030970,0.065716,-0.002228,0.997355,-0.436007,-0.072676,-0.069121,0.009803,-0.014046,-0.000028,0.130947,0.062068,-0.989445
1759776692.645547,-0.032993,0.065526,-0.002371,0.997302,-0.468897,-0.060833,-0.060365,0.011401,-0.009726,-0.004654,0.130542,0.066118,-0.989236
1759776692.702724,-0.036911,0.065033,-0.002344,0.997198,-0.473138,-0.076285,-0.051102,0.007618,-0.006268,0.000072,0.129529,0.073919,-0.988817
1759776692.703091,-0.040828,0.064539,-0.002317,0.997077,-0.477379,-0.091736,-0.041838,0.003838,-0.002806,0.004737,0.128512,0.081716,-0.988336
1759776692.703488,-0.044744,0.064044,-0.002290,0.996941,-0.481620,-0.107188,-0.032575,0.000062,0.000660,0.009339,0.127492,0.089508,-0.987793
1759776692.731560,-0.047912,0.063505,-0.002180,0.996828,-0.488292,-0.100097,-0.024413,0.001646,0.003403,0.000745,0.126398,0.095797,-0.987343
1759776692.763740,-0.055370,0.062508,-0.001806,0.996506,-0.507134,-0.051273,-0.008420,0.002597,-0.000023,-0.004203,0.124379,0.110580,-0.986054
1759776692.764069,-0.058310,0.062262,-0.001610,0.996354,-0.500452,-0.047865,-0.009369,-0.000865,-0.003104,0.002193,0.123883,0.116396,-0.985447
1759776692.793807,-0.061246,0.062001,-0.001471,0.996194,-0.482709,-0.044930,-0.017463,-0.001348,-0.004608,0.003641,0.123350,0.122207,-0.984810
1759776692.795675,-0.068121,0.061385,-0.001336,0.995786,-0.453358,-0.038044,-0.034047,0.002690,-0.001651,0.005387,0.122071,0.135831,-0.983183
1759776692.826977,-0.070747,0.061128,-0.001328,0.995619,-0.442240,-0.041706,-0.035784,0.001704,-0.002241,0.006169,0.121533,0.141037,-0.982516
1759776692.857312,-0.073317,0.060850,-0.001351,0.995450,-0.427170,-0.046027,-0.030877,0.003100,0.002295,0.008769,0.120949,0.146131,-0.981844
1759776692.857612,-0.075886,0.060572,-0.001373,0.995274,-0.412100,-0.050348,-0.025970,0.004498,0.006834,0.011343,0.120362,0.151221,-0.981145
1759776692.889287,-0.081131,0.059935,-0.001026,0.994899,-0.320282,-0.038212,0.006764,0.010502,-0.008116,0.002548,0.119093,0.161557,-0.979651
1759776692.919656,-0.082639,0.059759,-0.000801,0.994786,-0.254182,-0.035375,0.007478,0.011145,-0.012519,0.001042,0.118763,0.164512,-0.979199
1759776692.919980,-0.084147,0.059583,-0.000577,0.994670,-0.188082,-0.032538,0.008191,0.011788,-0.016920,-0.000473,0.118433,0.167465,-0.978738
1759776692.976201,-0.085947,0.059149,-0.000711,0.994542,-0.088428,-0.040934,-0.031771,0.009841,0.005866,0.002883,0.117530,0.171039,-0.978229
1759776692.976543,-0.086398,0.058997,-0.000888,0.994512,-0.088574,-0.043476,-0.027197,0.009760,0.014675,0.005411,0.117193,0.171952,-0.978110
1759776692.976963,-0.086849,0.058845,-0.001064,0.994481,-0.088720,-0.046017,-0.022624,0.009680,0.023484,0.007937,0.116855,0.172864,-0.977989
1759776693.011476,-0.088150,0.058362,-0.001123,0.994395,-0.110544,-0.044981,-0.009461,0.008831,0.017257,0.003259,0.115872,0.175444,-0.977647
1759776693.043380,-0.089899,0.057934,-0.001202,0.994264,-0.095575,-0.059926,-0.035075,-0.003958,0.011183,0.006137,0.114987,0.178906,-0.977124
1759776693.043686,-0.090648,0.057667,-0.001354,0.994211,-0.097459,-0.060248,-0.032615,-0.005077,0.014404,0.003073,0.114421,0.180403,-0.976915
1759776693.081728,-0.092210,0.057047,-0.001514,0.994103,-0.092875,-0.059966,-0.010166,-0.005086,0.011522,-0.001887,0.113141,0.183504,-0.976486
1759776693.082071,-0.092918,0.056850,-0.001442,0.994048,-0.099773,-0.046030,0.008620,-0.004640,0.009433,-0.004516,0.112756,0.184893,-0.976269
1759776693.122425,-0.094212,0.056499,-0.001072,0.993947,-0.090322,-0.020982,0.027296,-0.001550,0.002537,-0.008226,0.112111,0.187405,-0.975864
1759776693.122863,-0.094846,0.056431,-0.000805,0.993891,-0.094831,-0.004292,0.038551,0.000092,0.001040,-0.008812,0.112021,0.188624,-0.975639
1759776693.161693,-0.096238,0.056518,-0.000236,0.993752,-0.102369,0.017751,0.025408,-0.001071,-0.002283,-0.005053,0.112285,0.191300,-0.975088
1759776693.162012,-0.096953,0.056642,-0.000058,0.993676,-0.110412,0.018494,0.016636,-0.001736,-0.000602,-0.001958,0.112556,0.192687,-0.974784
1759776693.191761,-0.097673,0.056718,0.000098,0.993601,-0.113696,0.014444,0.018129,-0.000592,0.000867,0.000248,0.112730,0.194085,-0.974486
1759776693.220482,-0.099383,0.056861,0.000509,0.993423,-0.097531,0.012339,0.026201,0.006174,0.001590,-0.007871,0.113076,0.197401,-0.973780
1759776693.220732,-0.099905,0.057001,0.000710,0.993363,-0.067643,0.019814,0.029431,0.006524,0.001471,-0.005838,0.113387,0.198404,-0.973540
1759776693.251471,-0.100188,0.057160,0.000906,0.993325,-0.046549,0.026452,0.029090,0.004997,0.005224,-0.005997,0.113738,0.198934,-0.973390
1759776693.283786,-0.100600,0.057575,0.001177,0.993259,-0.008775,0.019967,-0.005691,-0.001856,0.019636,0.001744,0.114610,0.199709,-0.973129
1759776693.284078,-0.100715,0.057715,0.001178,0.993239,-0.025895,0.011464,-0.001524,-0.006384,0.027297,0.007493,0.114886,0.199932,-0.973051
1759776693.314756,-0.100880,0.057706,0.001197,0.993223,-0.033552,-0.006760,0.003809,-0.006572,0.034574,0.009222,0.114871,0.200255,-0.972987
1759776693.315950,-0.101452,0.057424,0.001284,0.993181,-0.032338,-0.033801,0.011971,-0.009318,0.033706,0.010835,0.114326,0.201372,-0.972820
1759776693.345171,-0.101668,0.057130,0.001532,0.993175,-0.021633,-0.040732,0.035790,-0.008387,0.026490,0.007586,0.113791,0.201773,-0.972800
1759776693.379140,-0.101972,0.056733,0.002303,0.993165,0.023399,-0.011140,0.062042,-0.001177,0.016151,0.006782,0.113161,0.202289,-0.972766
1759776693.379449,-0.101954,0.056666,0.002749,0.993170,0.044490,-0.014169,0.067360,-0.003656,0.013458,0.011841,0.113119,0.202203,-0.972789
1759776693.409975,-0.101706,0.056573,0.003081,0.993200,0.070061,-0.023973,0.054063,-0.005337,0.001806,0.012697,0.113002,0.201681,-0.972911
1759776693.442596,-0.100684,0.056298,0.003539,0.993318,0.102661,0.000272,0.007089,-0.001923,-0.013224,-0.003832,0.112556,0.199623,-0.973387
1759776693.442890,-0.100156,0.056410,0.003406,0.993365,0.090162,0.026454,-0.020925,-0.001976,-0.009384,-0.004032,0.112754,0.198599,-0.973573
1759776693.471848,-0.099815,0.056567,0.003114,0.993392,0.061923,0.029594,-0.034009,-0.005945,-0.002497,-0.002661,0.113008,0.197959,-0.973674
1759776693.502969,-0.099503,0.056935,0.002394,0.993404,-0.021151,0.027737,-0.037658,-0.010961,0.006965,-0.001194,0.113595,0.197421,-0.973715
1759776693.503444,-0.099735,0.056992,0.002163,0.993378,-0.042950,0.007046,-0.034216,-0.011598,0.003681,0.000311,0.113660,0.197903,-0.973610
1759776693.538865,-0.100376,0.056887,0.001605,0.993321,-0.056014,-0.002921,-0.041168,-0.007952,0.002247,-0.001725,0.113336,0.199228,-0.973377
1759776693.539149,-0.100781,0.056785,0.001342,0.993286,-0.061352,0.004960,-0.028667,-0.006911,0.000372,-0.002941,0.113078,0.200055,-0.973238
1759776693.570897,-0.101149,0.056759,0.001168,0.993250,-0.049982,0.005036,-0.028847,-0.010014,-0.004938,-0.001300,0.112987,0.200799,-0.973095
1759776693.621453,-0.101717,0.056591,0.000629,0.993202,-0.005960,-0.004370,-0.033133,-0.014128,-0.013330,-0.002838,0.112541,0.201980,-0.972902
1759776693.621797,-0.101560,0.056570,0.000380,0.993220,0.015803,0.004580,-0.031351,-0.015950,-0.008958,-0.003057,0.112449,0.201700,-0.972971
1759776693.622101,-0.101403,0.056548,0.000132,0.993237,0.037566,0.013529,-0.029569,-0.017771,-0.004587,-0.003277,0.112358,0.201420,-0.973039
1759776693.652935,-0.101141,0.056552,-0.000034,0.993264,0.029649,0.013124,-0.019647,-0.019033,0.001492,-0.003356,0.112336,0.200923,-0.973145
1759776693.683770,-0.100534,0.056571,-0.000283,0.993324,0.023304,0.024952,-0.006061,-0.009613,0.001301,-0.006916,0.112329,0.199759,-0.973385
1759776693.684117,-0.100326,0.056702,-0.000362,0.993338,0.020225,0.031711,-0.006871,-0.009235,-0.002648,-0.004825,0.112576,0.199356,-0.973439
1759776693.731057,-0.099807,0.056972,-0.000610,0.993374,0.039087,0.022164,-0.016636,-0.006993,-0.007700,0.002497,0.113067,0.198361,-0.973585
1759776693.752469,-0.099340,0.056885,-0.001090,0.993426,0.043236,0.013309,-0.039306,-0.002786,-0.002935,-0.000392,0.112805,0.197498,-0.973791
1759776693.752821,-0.098917,0.056815,-0.001591,0.993471,0.036036,0.007303,-0.038733,0.000167,0.002012,-0.000106,0.112574,0.196722,-0.973975
1759776693.789786,-0.098621,0.056785,-0.002023,0.993501,0.022349,0.014763,-0.031728,0.001214,0.002802,-0.002488,0.112434,0.196190,-0.974099
1759776693.791201,-0.098406,0.056827,-0.002337,0.993520,0.017465,0.016138,-0.024844,0.000170,-0.000224,-0.001675,0.112458,0.195802,-0.974174
1759776693.820574,-0.098231,0.056892,-0.002603,0.993533,0.014403,0.013914,-0.017998,0.001208,-0.001504,-0.001224,0.112537,0.195487,-0.974228
1759776693.832953,-0.098130,0.057008,-0.002782,0.993536,0.007525,0.010020,-0.013825,0.000995,-0.000633,-0.000221,0.112733,0.195308,-0.974241
1759776693.863359,-0.098152,0.057054,-0.002972,0.993530,-0.005372,0.003082,-0.013062,0.003489,0.000346,-0.000101,0.112786,0.195373,-0.974222
1759776693.917413,-0.098281,0.057066,-0.003103,0.993516,-0.005420,0.000719,-0.016714,0.004447,-0.001228,0.000978,0.112781,0.195641,-0.974169
1759776693.917706,-0.098410,0.057077,-0.003234,0.993502,-0.005469,-0.001644,-0.020365,0.005404,-0.002803,0.002056,0.112777,0.195910,-0.974115
1759776693.918529,-0.098466,0.057057,-0.003454,0.993497,-0.001958,-0.006655,-0.023665,0.005478,-0.001029,0.003235,0.112691,0.196045,-0.974098
1759776693.948456,-0.098467,0.056965,-0.003698,0.993502,0.002652,-0.013493,-0.029880,0.003802,0.001081,0.003207,0.112462,0.196076,-0.974118
1759776693.950619,-0.098448,0.056810,-0.003947,0.993511,-0.000754,-0.017002,-0.016689,0.003214,0.005445,0.002472,0.112106,0.196068,-0.974161
1759776693.982062,-0.098374,0.056679,-0.004085,0.993526,0.009883,-0.016396,-0.014618,0.002555,0.003541,-0.000746,0.111820,0.195937,-0.974220
1759776694.012588,-0.098207,0.056571,-0.004242,0.993548,0.021860,-0.011759,-0.013923,0.001944,0.003728,-0.002209,0.111579,0.195626,-0.974310
1759776694.041660,-0.097961,0.056533,-0.004352,0.993574,0.022220,-0.007489,-0.008847,0.000780,0.004735,-0.002044,0.111488,0.195155,-0.974415
1759776694.042147,-0.097716,0.056496,-0.004461,0.993599,0.022580,-0.003220,-0.003772,-0.000385,0.005741,-0.001880,0.111396,0.194685,-0.974520
1759776694.049365,-0.097490,0.056495,-0.004542,0.993621,0.024999,-0.000726,-0.004266,0.000228,0.002438,-0.000477,0.111384,0.194249,-0.974608
1759776694.079457,-0.097256,0.056490,-0.004601,0.993644,0.027779,0.000280,-0.007214,-0.000782,0.000895,0.000782,0.111368,0.193796,-0.974700
1759776694.109807,-0.097017,0.056474,-0.004728,0.993668,0.029198,-0.001884,-0.007731,-0.000837,-0.000654,0.002237,0.111315,0.193338,-0.974797
1759776694.110095,-0.096768,0.056429,-0.004827,0.993694,0.031987,-0.003243,-0.005347,-0.000895,0.000066,0.000441,0.111213,0.192861,-0.974903
1759776694.138296,-0.096493,0.056406,-0.004922,0.993722,0.024368,0.003575,-0.006385,-0.001313,0.002574,-0.002291,0.111153,0.192330,-0.975015
1759776694.168475,-0.096309,0.056431,-0.004983,0.993738,0.016051,-0.004677,0.002361,-0.005020,0.001649,0.001302,0.111195,0.191973,-0.975080
1759776694.170628,-0.096189,0.056352,-0.004909,0.993755,0.008277,-0.013607,0.006097,-0.003513,-0.001586,0.000595,0.111055,0.191730,-0.975144
1759776694.217408,-0.096075,0.056190,-0.004875,0.993775,0.010381,-0.010507,0.003124,-0.001542,-0.004561,-0.003993,0.110744,0.191501,-0.975225
1759776694.219447,-0.095985,0.056136,-0.004825,0.993787,0.011144,0.003422,0.008156,0.001813,-0.001820,-0.005901,0.110649,0.191319,-0.975271
1759776694.256302,-0.095916,0.056269,-0.004732,0.993786,0.005262,0.016551,0.017534,0.001157,-0.000117,-0.005041,0.110930,0.191173,-0.975268
1759776694.258869,-0.095951,0.056454,-0.004518,0.993774,-0.009108,0.020682,0.023076,-0.001659,0.000619,-0.002592,0.111338,0.191216,-0.975213
1759776694.288132,-0.096024,0.056567,-0.004346,0.993761,-0.010619,0.004352,0.007364,-0.001626,-0.002229,0.001993,0.111593,0.191342,-0.975159
1759776694.289780,-0.096099,0.056562,-0.004346,0.993754,-0.010536,-0.002982,-0.005752,-0.000380,-0.000520,0.000465,0.111581,0.191489,-0.975132
1759776694.319226,-0.096217,0.056561,-0.004401,0.993742,-0.014382,-0.001173,-0.007441,0.000846,0.003481,0.001684,0.111568,0.191728,-0.975086
1759776694.349863,-0.096308,0.056519,-0.004424,0.993736,-0.004800,-0.003139,0.001435,0.000016,0.004219,0.003421,0.111477,0.191910,-0.975061
1759776694.351213,-0.096267,0.056415,-0.004399,0.993746,0.010002,-0.013415,0.004825,0.000370,0.004206,0.004994,0.111276,0.191826,-0.975100
1759776694.381301,-0.096126,0.056234,-0.004318,0.993770,0.012885,-0.016725,0.006653,-0.000394,0.007874,-0.001454,0.110938,0.191540,-0.975195
1759776694.410492,-0.096062,0.056139,-0.004224,0.993782,0.002572,-0.009305,0.011487,-0.000137,0.007426,0.001554,0.110769,0.191404,-0.975241
1759776694.412318,-0.096098,0.056024,-0.004120,0.993785,-0.004191,-0.007284,0.010786,-0.001661,0.003330,-0.001076,0.110560,0.191464,-0.975253
1759776694.441520,-0.096137,0.055922,-0.003985,0.993788,0.004336,-0.009039,0.004649,-0.000040,0.000629,-0.002363,0.110383,0.191526,-0.975261
1759776694.472925,-0.096147,0.055878,-0.004000,0.993789,0.007823,-0.003128,-0.003335,-0.000617,-0.002501,-0.002118,0.110292,0.191546,-0.975267
1759776694.474029,-0.096117,0.055908,-0.004038,0.993791,0.008133,0.007439,-0.003427,-0.001655,-0.000604,-0.001238,0.110345,0.191492,-0.975272
1759776694.517478,-0.095987,0.055906,-0.004196,0.993803,0.015035,0.003243,-0.011351,-0.001379,-0.000507,-0.001062,0.110314,0.191253,-0.975322
1759776694.517792,-0.095857,0.055904,-0.004354,0.993814,0.021937,-0.000954,-0.019276,-0.001103,-0.000410,-0.000886,0.110282,0.191015,-0.975372
1759776694.546534,-0.095685,0.055899,-0.004565,0.993830,0.014541,0.006849,-0.019454,-0.000384,-0.000604,-0.005150,0.110234,0.190699,-0.975440
1759776694.548565,-0.095534,0.055992,-0.004775,0.993839,0.011645,0.014700,-0.018899,-0.000908,-0.001573,-0.003898,0.110382,0.190425,-0.975476
1759776694.578556,-0.095427,0.056092,-0.004997,0.993842,0.013937,0.015379,-0.018289,0.000010,-0.002699,-0.001768,0.110539,0.190239,-0.975495
1759776694.607868,-0.095270,0.056204,-0.005225,0.993850,0.014927,0.016507,-0.019245,-0.000103,-0.002251,-0.003074,0.110720,0.189956,-0.975529
1759776694.609140,-0.095136,0.056337,-0.005454,0.993854,0.011187,0.015734,-0.017768,-0.000749,-0.000215,-0.000749,0.110943,0.189717,-0.975551
1759776694.640223,-0.095065,0.056463,-0.005679,0.993852,-0.001710,0.013812,-0.018125,0.000547,0.002049,-0.000148,0.111153,0.189602,-0.975549
1759776694.648346,-0.095136,0.056546,-0.005832,0.993840,-0.011048,0.006339,-0.012158,0.000383,0.002064,0.001610,0.111285,0.189760,-0.975503
1759776694.679435,-0.095243,0.056608,-0.005939,0.993826,-0.013004,0.001364,-0.007437,0.000609,0.002565,0.001415,0.111385,0.189981,-0.975449
1759776694.710072,-0.095343,0.056591,-0.005986,0.993817,-0.007046,-0.001748,0.001331,0.000302,0.001610,0.001375,0.111340,0.190185,-0.975414
1759776694.711230,-0.095415,0.056550,-0.005943,0.993812,-0.003970,-0.005346,0.005748,0.000855,0.002980,0.000819,0.111267,0.190321,-0.975396
1759776694.740548,-0.095481,0.056505,-0.005883,0.993809,-0.004787,-0.010281,0.006600,0.000238,0.004662,0.002792,0.111188,0.190445,-0.975381
1759776694.770996,-0.095587,0.056384,-0.005799,0.993806,-0.008247,-0.010129,0.008469,0.000661,0.002449,-0.000021,0.110962,0.190643,-0.975368
1759776694.773106,-0.095693,0.056260,-0.005742,0.993803,-0.004758,-0.012654,-0.000641,0.000479,0.001524,-0.000003,0.110724,0.190847,-0.975355
1759776694.819464,-0.095749,0.056151,-0.005739,0.993804,-0.002312,-0.013614,0.001280,-0.000411,0.001393,-0.000446,0.110507,0.190957,-0.975358
1759776694.819677,-0.095806,0.056042,-0.005736,0.993805,0.000134,-0.014575,0.003201,-0.001301,0.001262,-0.000890,0.110291,0.191067,-0.975361
1759776694.849059,-0.095778,0.055892,-0.005701,0.993816,0.011141,-0.012348,0.006200,-0.001731,0.000731,-0.000418,0.110001,0.191008,-0.975405
1759776694.850693,-0.095659,0.055814,-0.005634,0.993832,0.013373,-0.010809,0.007873,-0.000410,-0.000429,-0.000634,0.109862,0.190767,-0.975468
1759776694.879172,-0.095549,0.055742,-0.005512,0.993847,0.010976,-0.008398,0.008788,-0.003333,0.000414,-0.000067,0.109744,0.190538,-0.975526
1759776694.909721,-0.095489,0.055682,-0.005442,0.993857,0.001970,-0.001507,0.001577,-0.000972,-0.002187,-0.002252,0.109642,0.190411,-0.975563
1759776694.911807,-0.095519,0.055657,-0.005443,0.993855,-0.005288,-0.005562,-0.007226,-0.001266,-0.004811,-0.002648,0.109590,0.190470,-0.975557
1759776694.940285,-0.095601,0.055610,-0.005550,0.993850,-0.011266,0.002491,-0.014563,0.000281,-0.002205,-0.006087,0.109475,0.190642,-0.975536
1759776694.946722,-0.095758,0.055599,-0.005675,0.993834,-0.015335,-0.001114,-0.007972,-0.001730,-0.000391,-0.000750,0.109426,0.190966,-0.975478
1759776694.982883,-0.095935,0.055521,-0.005735,0.993821,-0.017613,-0.012073,-0.007711,-0.002789,-0.001048,0.002436,0.109256,0.191322,-0.975428
1759776694.989301,-0.096071,0.055310,-0.005781,0.993820,-0.012654,-0.018161,-0.006635,-0.000582,-0.001951,-0.002421,0.108827,0.191593,-0.975422
1759776695.019501,-0.096162,0.055229,-0.005799,0.993815,-0.012331,-0.002056,-0.000397,0.001676,0.001515,-0.007214,0.108659,0.191775,-0.975405
1759776695.048687,-0.096326,0.055310,-0.005815,0.993795,-0.021002,0.016922,0.002000,0.000942,0.002465,-0.005872,0.108813,0.192100,-0.975324
1759776695.050969,-0.096622,0.055505,-0.005760,0.993756,-0.037645,0.022700,0.004614,-0.001410,0.003361,-0.001346,0.109204,0.192677,-0.975167
1759776695.079068,-0.096983,0.055618,-0.005722,0.993714,-0.038340,0.003440,-0.005375,-0.005228,0.000373,0.003132,0.109428,0.193384,-0.975002
1759776695.128535,-0.097383,0.055583,-0.005859,0.993676,-0.039255,0.000705,-0.008891,-0.003692,0.001820,0.001487,0.109323,0.194185,-0.974854
1759776695.128812,-0.097782,0.055548,-0.005996,0.993638,-0.040170,-0.002031,-0.012408,-0.002155,0.003267,-0.000157,0.109217,0.194987,-0.974706
1759776695.130620,-0.098184,0.055430,-0.006045,0.993605,-0.038147,-0.013039,-0.005005,-0.003990,0.004183,0.002778,0.108965,0.195783,-0.974575
1759776695.159790,-0.098518,0.055196,-0.006047,0.993585,-0.028012,-0.025431,0.000555,-0.005420,0.003474,0.003100,0.108492,0.196440,-0.974495
1759776695.188994,-0.098772,0.054927,-0.005995,0.993575,-0.021769,-0.026426,0.006835,-0.003602,0.003930,-0.002508,0.107964,0.196933,-0.974454
1759776695.190192,-0.099025,0.054780,-0.005888,0.993558,-0.022559,-0.008645,0.011388,-0.002549,0.003739,-0.003222,0.107689,0.197419,-0.974386
1759776695.221285,-0.099264,0.054636,-0.005757,0.993543,-0.023975,-0.009298,0.013224,-0.004684,0.003229,-0.001267,0.107424,0.197874,-0.974323
1759776695.250489,-0.099465,0.054496,-0.005573,0.993532,-0.007974,-0.013556,0.014992,-0.000967,-0.001304,-0.001935,0.107179,0.198250,-0.974274
1759776695.254391,-0.099507,0.054452,-0.005478,0.993531,0.000565,0.003757,0.003304,-0.001641,-0.001552,-0.004639,0.107110,0.198322,-0.974267
1759776695.284023,-0.099434,0.054530,-0.005438,0.993534,0.004263,0.016655,0.007520,-0.002409,0.000513,-0.002223,0.107274,0.198175,-0.974279
1759776695.286162,-0.099394,0.054662,-0.005421,0.993531,0.008334,0.009750,0.001851,-0.004798,-0.002208,0.000329,0.107539,0.198095,-0.974266
1759776695.316343,-0.099284,0.054684,-0.005458,0.993540,0.012389,0.005123,-0.005469,-0.001306,-0.001969,0.000632,0.107577,0.197882,-0.974305
1759776695.347364,-0.099163,0.054755,-0.005539,0.993548,0.006526,0.011686,-0.007805,-0.000190,-0.001516,-0.002282,0.107704,0.197654,-0.974337
1759776695.349541,-0.099127,0.054865,-0.005692,0.993545,0.003191,0.015957,-0.018406,-0.000520,-0.003193,-0.003265,0.107894,0.197599,-0.974327
1759776695.378044,-0.099117,0.054973,-0.005921,0.993538,-0.000729,0.012601,-0.017697,0.000631,-0.001277,-0.000879,0.108061,0.197605,-0.974307
1759776695.417702,-0.099180,0.055010,-0.006090,0.993529,-0.007896,0.007869,-0.014563,0.002044,-0.001251,-0.000178,0.108101,0.197746,-0.974274
1759776695.418026,-0.099242,0.055048,-0.006260,0.993520,-0.015064,0.003137,-0.011429,0.003458,-0.001225,0.000523,0.108140,0.197887,-0.974241
1759776695.447449,-0.099372,0.055107,-0.006345,0.993503,-0.021774,0.001917,0.000385,0.003598,0.001348,0.000477,0.108236,0.198152,-0.974177
1759776695.462445,-0.099588,0.055131,-0.006346,0.993480,-0.021855,0.001529,-0.002975,0.003082,-0.002008,0.001804,0.108279,0.198577,-0.974086
1759776695.467912,-0.099795,0.055056,-0.006369,0.993463,-0.021755,-0.011403,-0.007658,0.003506,-0.000645,0.002567,0.108122,0.198986,-0.974020
1759776695.496581,-0.099994,0.054916,-0.006392,0.993451,-0.020593,-0.017180,-0.001627,0.004144,0.001895,0.003867,0.107834,0.199380,-0.973971
1759776695.535461,-0.100146,0.054714,-0.006361,0.993447,-0.013397,-0.022652,-0.001227,0.003054,0.000715,0.002193,0.107437,0.199675,-0.973954
1759776695.535753,-0.100298,0.054512,-0.006329,0.993443,-0.006202,-0.028124,-0.000827,0.001964,-0.000465,0.000519,0.107040,0.199971,-0.973937
1759776695.568979,-0.100354,0.054261,-0.006315,0.993451,-0.002995,-0.026935,-0.000502,0.001316,0.000232,-0.000413,0.106543,0.200079,-0.973970
1759776695.570057,-0.100368,0.054062,-0.006254,0.993461,-0.003023,-0.026685,0.001973,-0.000440,-0.001087,0.001175,0.106162,0.200100,-0.974007
1759776695.600411,-0.100409,0.053810,-0.006237,0.993470,-0.001663,-0.023194,0.001016,0.000432,0.000384,-0.001713,0.105665,0.200178,-0.974045
1759776695.606826,-0.100445,0.053591,-0.006209,0.993479,-0.008029,-0.025899,0.000071,-0.002321,0.001482,0.000022,0.105235,0.200245,-0.974078
1759776695.636995,-0.100590,0.053345,-0.006190,0.993477,-0.021177,-0.023315,0.001698,-0.003374,0.003823,-0.001926,0.104750,0.200529,-0.974072
1759776695.666541,-0.100877,0.053123,-0.006061,0.993461,-0.034626,-0.026916,0.010304,-0.002322,0.001694,-0.002455,0.104329,0.201079,-0.974003
1759776695.668120,-0.101236,0.052929,-0.005900,0.993436,-0.037063,-0.020277,0.009338,-0.003843,-0.000609,-0.002650,0.103969,0.201768,-0.973899
1759776695.717751,-0.101542,0.052804,-0.005846,0.993412,-0.029470,-0.012102,0.002745,-0.002972,-0.002080,-0.002113,0.103726,0.202363,-0.973802
1759776695.718069,-0.101847,0.052679,-0.005791,0.993387,-0.021876,-0.003926,-0.003849,-0.002101,-0.003550,-0.001576,0.103482,0.202957,-0.973704
1759776695.746906,-0.102061,0.052655,-0.005848,0.993366,-0.016295,-0.002171,-0.008846,-0.001520,-0.001854,-0.000903,0.103419,0.203384,-0.973622
1759776695.750577,-0.102194,0.052640,-0.006008,0.993353,-0.008557,0.000915,-0.023695,-0.002221,-0.002121,-0.002863,0.103352,0.203662,-0.973571
1759776695.780733,-0.102262,0.052642,-0.006290,0.993344,-0.005958,0.013900,-0.022702,-0.000426,0.001250,-0.001626,0.103297,0.203825,-0.973543
1759776695.809009,-0.102315,0.052711,-0.006512,0.993333,-0.006404,0.001757,-0.022064,-0.006108,0.003463,0.002639,0.103386,0.203952,-0.973506
1759776695.810393,-0.102355,0.052576,-0.006741,0.993335,-0.000029,-0.018900,-0.018749,-0.004207,0.002851,0.004674,0.103071,0.204054,-0.973518
1759776695.839151,-0.102309,0.052378,-0.006863,0.993349,0.003052,-0.010462,-0.002987,0.000253,0.002730,-0.003619,0.102656,0.203976,-0.973579
1759776695.845836,-0.102259,0.052452,-0.006895,0.993350,0.008043,0.018406,0.002659,0.002840,0.000613,-0.010271,0.102796,0.203882,-0.973584
1759776695.874103,-0.102215,0.052628,-0.006869,0.993345,0.003392,0.022004,0.012660,-0.000016,0.003515,-0.004139,0.103151,0.203793,-0.973565
1759776695.904679,-0.102269,0.052816,-0.006724,0.993331,-0.008444,0.013786,0.018520,-0.005792,0.003515,0.000002,0.103552,0.203884,-0.973503
1759776695.906032,-0.102377,0.052890,-0.006601,0.993317,-0.005766,-0.001541,0.004354,-0.003370,-0.000842,0.004194,0.103721,0.204083,-0.973443
1759776695.936103,-0.102445,0.052824,-0.006588,0.993313,-0.009197,-0.008119,0.001925,-0.000675,0.000795,0.004740,0.103591,0.204216,-0.973429
1759776695.969912,-0.102588,0.052723,-0.006539,0.993304,-0.007445,-0.007765,0.003373,-0.001475,-0.003612,0.001540,0.103397,0.204492,-0.973392
1759776695.971968,-0.102598,0.052548,-0.006512,0.993313,0.007587,-0.019629,-0.002955,-0.001825,-0.004439,0.002014,0.103057,0.204507,-0.973425
1759776696.017559,-0.102517,0.052294,-0.006487,0.993335,0.003333,-0.020534,0.005076,-0.002062,0.000597,-0.001677,0.102561,0.204346,-0.973511
1759776696.017866,-0.102437,0.052040,-0.006462,0.993356,-0.000921,-0.021438,0.013107,-0.002299,0.005633,-0.005368,0.102064,0.204185,-0.973597
1759776696.024294,-0.102478,0.051921,-0.006285,0.993359,-0.007901,-0.017822,0.013588,-0.003909,0.000815,-0.000174,0.101864,0.204248,-0.973605
1759776696.054660,-0.102535,0.051741,-0.006174,0.993364,-0.010985,-0.011139,0.007483,-0.007617,-0.000269,-0.003823,0.101529,0.204348,-0.973619
1759776696.083000,-0.102601,0.051589,-0.006124,0.993365,-0.000627,-0.001741,-0.001037,-0.000117,-0.002860,-0.006709,0.101237,0.204472,-0.973623
1759776696.095267,-0.102564,0.051633,-0.006164,0.993366,0.004164,0.009799,-0.005289,-0.002671,-0.000610,-0.003316,0.101317,0.204404,-0.973629
1759776696.126023,-0.102499,0.051780,-0.006211,0.993365,0.010852,0.019296,-0.002178,-0.002058,0.000638,0.000915,0.101600,0.204281,-0.973626
1759776696.127350,-0.102379,0.051862,-0.006298,0.993373,0.015993,0.006645,-0.008830,-0.003648,0.000503,0.004207,0.101746,0.204054,-0.973658
1759776696.156588,-0.102194,0.051914,-0.006407,0.993388,0.015211,0.009430,-0.009321,-0.000559,0.001587,-0.000042,0.101831,0.203703,-0.973723
1759776696.164260,-0.102015,0.052024,-0.006519,0.993400,0.016676,0.013276,-0.010661,-0.000702,0.000268,-0.001485,0.102032,0.203362,-0.973773
1759776696.194245,-0.101861,0.052113,-0.006667,0.993410,0.016897,0.011880,-0.014702,0.000080,-0.000737,-0.002035,0.102182,0.203074,-0.973817
1759776696.224122,-0.101707,0.052202,-0.006815,0.993420,0.016938,0.014695,-0.009418,0.001781,-0.002034,-0.002411,0.102330,0.202788,-0.973861
1759776696.224369,-0.101608,0.052360,-0.006926,0.993421,0.011007,0.012407,-0.003225,0.000177,-0.002234,0.000789,0.102623,0.202605,-0.973868
1759776696.255613,-0.101493,0.052529,-0.006958,0.993424,0.009115,0.012979,-0.003446,0.001473,-0.002673,-0.001709,0.102954,0.202382,-0.973880
1759776696.316810,-0.101491,0.052648,-0.006976,0.993418,0.003463,0.010500,-0.003724,0.001988,-0.005756,-0.000554,0.103186,0.202381,-0.973856
1759776696.317060,-0.101489,0.052767,-0.006994,0.993412,-0.002189,0.008021,-0.004002,0.002503,-0.008839,0.000601,0.103419,0.202380,-0.973831
1759776696.317373,-0.101488,0.052886,-0.007011,0.993405,-0.007841,0.005542,-0.004279,0.003018,-0.011922,0.001756,0.103652,0.202378,-0.973807
1759776696.354269,-0.101520,0.052924,-0.007050,0.993400,-0.002740,-0.004902,-0.005772,0.003933,-0.012234,0.001914,0.103718,0.202447,-0.973785
1759776696.383925,-0.101472,0.052853,-0.007021,0.993409,0.004068,-0.011565,0.002622,0.002036,-0.017440,-0.000222,0.103585,0.202348,-0.973820
1759776696.384241,-0.101337,0.052741,-0.006920,0.993429,0.008632,-0.012361,0.011081,0.001022,-0.021111,-0.003002,0.103386,0.202072,-0.973899
1759776696.412987,-0.101182,0.052663,-0.006755,0.993450,0.006536,-0.009835,0.015889,0.000960,-0.026384,-0.004500,0.103270,0.201750,-0.973978
1759776696.443626,-0.101058,0.052628,-0.006556,0.993466,-0.000054,-0.008190,0.014591,-0.000142,-0.033055,-0.003798,0.103243,0.201485,-0.974035
1759776696.446173,-0.101000,0.052565,-0.006416,0.993476,-0.012058,-0.006652,0.004804,0.000485,-0.039699,-0.004515,0.103149,0.201357,-0.974072
1759776696.475596,-0.101042,0.052513,-0.006392,0.993475,-0.022019,-0.006014,-0.007730,0.000663,-0.044057,-0.003070,0.103049,0.201438,-0.974066
1759776696.483122,-0.101164,0.052458,-0.006493,0.993465,-0.034148,-0.003295,-0.016580,0.000856,-0.046250,-0.003045,0.102917,0.201688,-0.974028
1759776696.513062,-0.101367,0.052426,-0.006655,0.993444,-0.044589,-0.001937,-0.025895,-0.000282,-0.049138,-0.002423,0.102816,0.202103,-0.973952
1759776696.543365,-0.101618,0.052401,-0.006887,0.993419,-0.049980,0.003241,-0.026494,0.000170,-0.049423,-0.002727,0.102712,0.202621,-0.973856
1759776696.543669,-0.101867,0.052416,-0.007085,0.993391,-0.054901,0.002108,-0.026953,-0.001000,-0.050953,-0.000532,0.102696,0.203131,-0.973751
1759776696.571558,-0.102103,0.052412,-0.007257,0.993366,-0.050066,0.000604,-0.021742,-0.000529,-0.051315,0.001403,0.102647,0.203612,-0.973656
1759776696.618045,-0.102180,0.052426,-0.007347,0.993356,-0.039515,0.002533,-0.018314,0.002226,-0.051316,0.001481,0.102654,0.203773,-0.973621
1759776696.618328,-0.102257,0.052440,-0.007436,0.993347,-0.028964,0.004462,-0.014886,0.004982,-0.051316,0.001558,0.102662,0.203934,-0.973587
1759776696.622765,-0.102191,0.052540,-0.007570,0.993347,-0.012982,0.010742,-0.016108,0.003778,-0.049355,0.007907,0.102835,0.203819,-0.973593
1759776696.654509,-0.101902,0.052627,-0.007740,0.993371,0.012741,0.007093,-0.015772,0.003605,-0.043314,0.012256,0.102978,0.203268,-0.973693
1759776696.683393,-0.101395,0.052629,-0.007900,0.993422,0.034515,-0.000756,-0.012454,0.005357,-0.037988,0.014543,0.102963,0.202288,-0.973898
1759776696.684834,-0.100722,0.052652,-0.008022,0.993488,0.049665,0.005879,-0.010662,0.009922,-0.037373,0.012012,0.103003,0.200976,-0.974166
1759776696.714404,-0.099934,0.052825,-0.008222,0.993557,0.058263,0.019959,-0.020948,0.011515,-0.033497,0.015187,0.103326,0.199448,-0.974446
1759776696.744938,-0.099097,0.053055,-0.008419,0.993627,0.063115,0.022795,-0.006164,0.007647,-0.023311,0.019210,0.103766,0.197824,-0.974730
1759776696.746879,-0.098271,0.053241,-0.008347,0.993699,0.065624,0.005293,0.020039,0.003245,-0.022791,0.020995,0.104170,0.196193,-0.975016
1759776696.775374,-0.097424,0.053260,-0.008180,0.993783,0.070908,-0.020330,0.013219,-0.000332,-0.026197,0.020010,0.104264,0.194508,-0.975344
1759776696.783009,-0.096613,0.053003,-0.008111,0.993877,0.065021,-0.044211,-0.007472,0.000186,-0.024444,0.019347,0.103790,0.192903,-0.975713
1759776696.816110,-0.096004,0.052572,-0.008262,0.993957,0.042914,-0.044007,-0.027535,0.004170,-0.020311,0.019436,0.102923,0.191717,-0.976039
1759776696.823012,-0.095590,0.052186,-0.008550,0.994015,0.033901,-0.035383,-0.030104,0.006141,-0.018354,0.031850,0.102114,0.190928,-0.976278
1759776696.853368,-0.095123,0.051880,-0.008780,0.994074,0.053490,-0.036205,-0.015765,0.003355,-0.020726,0.046881,0.101475,0.190029,-0.976520
1759776696.883878,-0.094386,0.051518,-0.008910,0.994162,0.082439,-0.034072,-0.004579,0.003197,-0.020730,0.046202,0.100753,0.188589,-0.976874
1759776696.884167,-0.093399,0.051131,-0.008969,0.994274,0.101799,-0.044683,-0.002868,0.000575,-0.018365,0.043185,0.100002,0.186646,-0.977324
1759776696.919713,-0.092349,0.050660,-0.009081,0.994396,0.103384,-0.060074,-0.015097,-0.002307,-0.011755,0.036480,0.099075,0.184582,-0.977811
1759776696.921055,-0.091349,0.050082,-0.009283,0.994515,0.097486,-0.059926,-0.024556,0.001327,-0.001523,0.030396,0.097919,0.182627,-0.978294
1759776696.951166,-0.090467,0.049542,-0.009476,0.994621,0.076237,-0.047651,-0.012078,0.004138,0.011762,0.031242,0.096837,0.180899,-0.978723
1759776696.980524,-0.089797,0.049069,-0.009431,0.994706,0.054668,-0.054749,0.016197,0.001673,0.013298,0.034959,0.095924,0.179569,-0.979057
1759776696.982136,-0.089244,0.048497,-0.009225,0.994786,0.057980,-0.055048,0.019925,0.000535,0.010606,0.023360,0.094841,0.178452,-0.979367
1759776697.016108,-0.088565,0.047806,-0.009095,0.994881,0.079713,-0.082497,-0.002450,-0.006533,0.024866,0.012748,0.093511,0.177094,-0.979742
1759776697.020726,-0.087932,0.046910,-0.009053,0.994980,0.055861,-0.101013,0.009832,-0.012944,0.062122,0.001665,0.091757,0.175831,-0.980135
1759776697.049163,-0.087766,0.045998,-0.008564,0.995042,-0.004185,-0.102839,0.077017,-0.017233,0.091728,0.004441,0.090036,0.175450,-0.980363
1759776697.080876,-0.088123,0.045074,-0.007328,0.995062,-0.050296,-0.113215,0.142056,-0.018244,0.093168,0.007283,0.088411,0.176037,-0.980405
1759776697.083023,-0.088861,0.044051,-0.005625,0.995054,-0.072974,-0.117847,0.165357,-0.017320,0.082270,-0.009397,0.086667,0.177338,-0.980326
1759776697.111516,-0.089929,0.043050,-0.003975,0.995009,-0.088573,-0.102974,0.134865,-0.016645,0.078984,-0.037673,0.084956,0.179302,-0.980119
1759776697.142257,-0.091398,0.042256,-0.002707,0.994914,-0.123644,-0.067417,0.099239,-0.017180,0.088501,-0.050230,0.083588,0.182095,-0.979722
1759776697.143570,-0.093164,0.041662,-0.001639,0.994777,-0.160260,-0.058629,0.093843,-0.021195,0.104263,-0.047651,0.082583,0.185492,-0.979169
1759776697.173575,-0.095131,0.041191,-0.000467,0.994612,-0.193005,-0.047036,0.118995,-0.022652,0.113858,-0.047964,0.081849,0.189275,-0.978507
1759776697.225009,-0.097381,0.041072,0.000990,0.994399,-0.210710,-0.027272,0.131055,-0.020499,0.103792,-0.044082,0.081878,0.193589,-0.977660
1759776697.225390,-0.099629,0.040954,0.002447,0.994178,-0.228414,-0.007508,0.143116,-0.018358,0.093729,-0.040221,0.081918,0.197898,-0.976794
1759776697.226746,-0.101998,0.041098,0.003866,0.993928,-0.247346,0.020081,0.123090,-0.015409,0.079444,-0.042484,0.082485,0.202440,-0.975815
1759776697.240970,-0.104525,0.041501,0.005036,0.993643,-0.257244,0.042677,0.099635,-0.014657,0.067911,-0.036296,0.083528,0.207303,-0.974704
1759776697.273010,-0.107050,0.042018,0.005939,0.993348,-0.250572,0.044805,0.071389,-0.012988,0.056240,-0.027280,0.084749,0.212176,-0.973550
1759776697.303466,-0.109524,0.042515,0.006547,0.993053,-0.228490,0.047288,0.041584,-0.009597,0.047590,-0.021770,0.085873,0.216970,-0.972394
1759776697.305606,-0.111779,0.042890,0.006875,0.992783,-0.205871,0.038862,0.021843,-0.006112,0.045276,-0.020502,0.086698,0.221355,-0.971332
1759776697.334394,-0.113873,0.043291,0.007077,0.992526,-0.190343,0.044223,0.014491,-0.002488,0.043528,-0.016566,0.087547,0.225432,-0.970317
1759776697.366195,-0.115776,0.043615,0.007196,0.992291,-0.174408,0.036746,0.006148,-0.000221,0.038998,-0.015598,0.088223,0.229139,-0.969387
1759776697.368118,-0.117516,0.043879,0.007231,0.992075,-0.155433,0.027073,-0.005422,0.001796,0.031083,-0.012449,0.088762,0.232536,-0.968529
1759776697.380530,-0.119119,0.044059,0.007079,0.991877,-0.144417,0.025810,-0.030968,0.004839,0.022013,-0.014178,0.089088,0.235679,-0.967739
1759776697.410740,-0.120666,0.044238,0.006637,0.991685,-0.136646,0.029072,-0.057647,0.005742,0.011299,-0.008296,0.089342,0.238738,-0.966966
1759776697.440164,-0.122033,0.044360,0.005868,0.991517,-0.102334,0.020355,-0.098023,0.006666,0.001863,-0.004152,0.089399,0.241474,-0.966280
1759776697.440495,-0.123018,0.044378,0.004745,0.991400,-0.061289,0.012666,-0.126155,0.005837,0.001893,0.000375,0.089160,0.243498,-0.965795
1759776697.473735,-0.123582,0.044318,0.003420,0.991338,-0.028276,0.002818,-0.135033,0.005568,0.007011,0.001830,0.088713,0.244719,-0.965527
1759776697.479727,-0.123844,0.044196,0.002115,0.991315,-0.007206,0.005010,-0.121008,0.005381,0.010962,-0.000639,0.088148,0.245350,-0.965419
1759776697.517244,-0.123857,0.044181,0.001044,0.991315,0.013174,0.002392,-0.091427,0.001160,0.008190,0.003544,0.087853,0.245471,-0.965415
1759776697.519316,-0.123631,0.044130,0.000238,0.991347,0.035419,-0.002343,-0.067379,-0.001551,0.003616,0.003587,0.087554,0.245101,-0.965536
1759776697.547756,-0.123235,0.044054,-0.000310,0.991399,0.053353,-0.007918,-0.042069,-0.002582,-0.004898,0.003193,0.087274,0.244377,-0.965745
1759776697.578432,-0.122751,0.044015,-0.000722,0.991461,0.059881,0.002053,-0.036808,0.000643,-0.013175,-0.003856,0.087101,0.243470,-0.965990
1759776697.580503,-0.122303,0.044138,-0.001094,0.991510,0.046347,0.024044,-0.030925,0.003275,-0.017714,-0.008750,0.087258,0.242626,-0.966188
1759776697.609247,-0.122029,0.044413,-0.001423,0.991531,0.025162,0.035016,-0.025248,-0.001642,-0.020534,-0.006870,0.087727,0.242118,-0.966273
1759776697.639985,-0.121859,0.044683,-0.001804,0.991539,0.013867,0.024548,-0.036032,-0.005464,-0.021681,0.000267,0.088169,0.241817,-0.966308
1759776697.641618,-0.121715,0.044821,-0.002228,0.991550,0.002359,0.015553,-0.038581,-0.005879,-0.016219,0.004156,0.088342,0.241573,-0.966353
1759776697.672695,-0.121644,0.044936,-0.002604,0.991553,-0.004203,0.011957,-0.030700,-0.004658,-0.013432,0.008421,0.088479,0.241467,-0.966367
1759776697.686826,-0.121538,0.044976,-0.002906,0.991563,0.000791,0.005283,-0.029556,-0.005057,-0.011462,0.010541,0.088487,0.241287,-0.966411
1759776697.717157,-0.121377,0.044892,-0.003162,0.991586,0.005293,-0.006535,-0.018963,-0.003701,-0.005448,0.009147,0.088260,0.240996,-0.966505
1759776697.747380,-0.121230,0.044748,-0.003276,0.991610,0.001373,-0.011465,-0.005847,-0.002136,-0.001858,0.001258,0.087951,0.240719,-0.966602
1759776697.747687,-0.121151,0.044640,-0.003315,0.991624,-0.002102,0.001463,-0.001014,0.001799,-0.001330,-0.006373,0.087728,0.240569,-0.966659
1759776697.775126,-0.121098,0.044613,-0.003334,0.991632,-0.001186,-0.000884,-0.001968,0.000163,-0.001187,-0.003674,0.087671,0.240467,-0.966690
1759776697.777202,-0.121058,0.044532,-0.003417,0.991640,0.004168,-0.008424,-0.016895,0.000825,-0.001175,-0.007324,0.087493,0.240397,-0.966724
1759776697.817704,-0.121017,0.044471,-0.003629,0.991647,0.002047,0.002727,-0.023370,0.003029,0.002661,-0.009232,0.087320,0.240335,-0.966755
1759776697.818318,-0.121032,0.044546,-0.003901,0.991641,-0.006522,0.020785,-0.024154,0.004078,0.005553,-0.008170,0.087403,0.240388,-0.966734
1759776697.848605,-0.121086,0.044684,-0.004187,0.991627,-0.002131,0.013814,-0.026414,0.000227,0.005000,0.000342,0.087605,0.240518,-0.966683
1759776697.879698,-0.121058,0.044729,-0.004480,0.991627,0.005105,0.006521,-0.025602,-0.001195,0.006707,0.002863,0.087625,0.240489,-0.966689
1759776697.881845,-0.120980,0.044748,-0.004754,0.991634,0.011927,0.002093,-0.021483,-0.002025,0.008752,0.004270,0.087597,0.240361,-0.966723
1759776697.912316,-0.120846,0.044763,-0.004946,0.991649,0.020108,0.001685,-0.012660,-0.002572,0.009300,0.005271,0.087584,0.240117,-0.966785
1759776697.919221,-0.120589,0.044715,-0.005091,0.991682,0.039128,-0.005283,-0.009237,-0.003874,0.010718,0.003911,0.087459,0.239626,-0.966918
1759776697.949359,-0.120162,0.044592,-0.005187,0.991739,0.056437,-0.018717,-0.005053,-0.006035,0.015150,0.002883,0.087200,0.238802,-0.967145
1759776697.980171,-0.119603,0.044363,-0.005249,0.991816,0.069485,-0.022309,-0.003286,-0.005690,0.017074,-0.001710,0.086744,0.237715,-0.967454
1759776697.980452,-0.118949,0.044116,-0.005334,0.991906,0.079242,-0.019461,-0.010810,-0.004128,0.015799,-0.005764,0.086248,0.236443,-0.967810
1759776698.017260,-0.118264,0.043940,-0.005519,0.991994,0.078954,-0.008461,-0.016854,-0.004473,0.016409,-0.006161,0.085870,0.235119,-0.968166
1759776698.019431,-0.117655,0.043847,-0.005746,0.992069,0.070123,-0.002434,-0.014532,-0.005810,0.015829,-0.004490,0.085646,0.233949,-0.968469
1759776698.047872,-0.117167,0.043796,-0.005898,0.992128,0.053615,0.001917,-0.005229,-0.004354,0.012831,-0.003713,0.085521,0.233006,-0.968708
1759776698.116142,-0.116884,0.043835,-0.005813,0.992161,0.048585,0.001415,0.000569,-0.004242,0.006847,0.000040,0.085624,0.232445,-0.968833
1759776698.116486,-0.116601,0.043874,-0.005728,0.992193,0.043555,0.000914,0.006366,-0.004130,0.000863,0.003793,0.085726,0.231883,-0.968959
1759776698.116772,-0.116318,0.043912,-0.005643,0.992225,0.038526,0.000412,0.012164,-0.004018,-0.005120,0.007546,0.085829,0.231322,-0.969084
1759776698.118841,-0.116070,0.043885,-0.005532,0.992256,0.028876,-0.005625,0.012198,-0.003426,-0.007455,0.006432,0.085806,0.230827,-0.969204
1759776698.161890,-0.115907,0.043809,-0.005417,0.992279,0.014311,-0.008070,0.010605,-0.001330,-0.007817,0.003402,0.085686,0.230500,-0.969292
1759776698.165522,-0.115861,0.043703,-0.005320,0.992289,-0.002305,-0.006483,0.005791,-0.000837,-0.007836,0.001233,0.085500,0.230401,-0.969332
1759776698.192725,-0.115944,0.043618,-0.005272,0.992284,-0.018002,-0.006282,0.004045,-0.000310,-0.006696,0.000700,0.085341,0.230559,-0.969309
1759776698.199322,-0.116148,0.043547,-0.005243,0.992263,-0.024828,-0.002792,-0.003329,0.001024,-0.010344,-0.003578,0.085201,0.230955,-0.969227
1759776698.229465,-0.116344,0.043522,-0.005317,0.992241,-0.022427,0.008676,-0.010987,0.001712,-0.011935,-0.006183,0.085132,0.231345,-0.969140
1759776698.259903,-0.116456,0.043599,-0.005497,0.992223,-0.011754,0.010330,-0.020669,-0.000273,-0.010594,-0.004105,0.085239,0.231581,-0.969074
1759776698.261037,-0.116496,0.043702,-0.005735,0.992213,-0.005586,0.016372,-0.023974,-0.000555,-0.005585,-0.001339,0.085387,0.231680,-0.969037
1759776698.289182,-0.116472,0.043809,-0.005953,0.992209,-0.005065,0.006119,-0.016950,-0.001061,-0.001657,0.002110,0.085548,0.231652,-0.969030
1759776698.319827,-0.116496,0.043905,-0.006113,0.992201,-0.014023,0.012454,-0.010249,0.000172,-0.000054,-0.001485,0.085702,0.231711,-0.969002
1759776698.321867,-0.116576,0.043986,-0.006179,0.992188,-0.018691,0.006955,-0.003910,-0.003434,-0.002239,0.001388,0.085844,0.231874,-0.968951
1759776698.350541,-0.116710,0.043971,-0.006258,0.992172,-0.019047,-0.006043,-0.010240,-0.004770,-0.003637,0.000610,0.085793,0.232143,-0.968891
1759776698.362160,-0.116919,0.043918,-0.006352,0.992150,-0.024043,-0.003081,-0.010792,-0.004109,-0.003353,-0.001610,0.085661,0.232560,-0.968802
1759776698.417335,-0.117215,0.043966,-0.006520,0.992111,-0.029490,0.009289,-0.013699,-0.003358,-0.002933,-0.002641,0.085709,0.233155,-0.968655
1759776698.417727,-0.117512,0.044013,-0.006688,0.992073,-0.034937,0.021660,-0.016605,-0.002608,-0.002512,-0.003673,0.085757,0.233749,-0.968508
1759776698.418274,-0.117854,0.044184,-0.006881,0.992024,-0.040236,0.025257,-0.017383,-0.004628,-0.001986,-0.004067,0.086041,0.234436,-0.968316
1759776698.462541,-0.118216,0.044344,-0.007092,0.991972,-0.036211,0.012721,-0.024259,-0.007153,-0.001210,-0.000414,0.086300,0.235163,-0.968117
1759776698.470774,-0.118503,0.044380,-0.007369,0.991934,-0.032956,0.008714,-0.026920,-0.004676,0.003073,-0.001025,0.086297,0.235748,-0.967975
1759776698.499003,-0.118814,0.044434,-0.007616,0.991893,-0.034665,0.012355,-0.021339,-0.002833,0.003711,-0.001095,0.086338,0.236378,-0.967818
1759776698.500945,-0.119134,0.044514,-0.007815,0.991849,-0.032493,0.013747,-0.014468,-0.002960,0.002549,0.001286,0.086440,0.237022,-0.967651
1759776698.534751,-0.119415,0.044613,-0.007998,0.991809,-0.024806,0.014637,-0.014749,-0.002967,0.002052,0.005578,0.086585,0.237588,-0.967499
1759776698.536135,-0.119618,0.044646,-0.008161,0.991782,-0.015470,0.003464,-0.015822,-0.003028,0.004455,0.005543,0.086605,0.238000,-0.967396
1759776698.572757,-0.119803,0.044671,-0.008271,0.991758,-0.020867,0.007991,-0.002377,-0.000043,0.009613,0.003295,0.086623,0.238370,-0.967304
1759776698.577125,-0.120084,0.044658,-0.008225,0.991725,-0.032240,-0.002670,0.010630,-0.002666,0.008675,0.004432,0.086601,0.238915,-0.967171
1759776698.605455,-0.120453,0.044549,-0.008098,0.991686,-0.038087,-0.014385,0.008618,-0.002760,0.007540,0.001338,0.086406,0.239626,-0.967013
1759776698.636087,-0.120925,0.044485,-0.007893,0.991633,-0.051342,0.000079,0.021837,0.002080,0.005893,-0.005359,0.086316,0.240528,-0.966797
1759776698.637344,-0.121526,0.044643,-0.007623,0.991554,-0.061654,0.020618,0.026535,0.001724,0.002955,-0.006228,0.086679,0.241681,-0.966477
1759776698.671383,-0.122178,0.044909,-0.007445,0.991464,-0.058011,0.023726,0.008988,-0.001920,-0.003164,0.000655,0.087233,0.242938,-0.966112
1759776698.717563,-0.122704,0.045093,-0.007522,0.991390,-0.047636,0.019187,-0.006309,-0.001479,-0.002160,0.001688,0.087564,0.243974,-0.965821
1759776698.717876,-0.123231,0.045277,-0.007599,0.991315,-0.037261,0.014648,-0.021605,-0.001037,-0.001156,0.002720,0.087895,0.245009,-0.965528
1759776698.719247,-0.123601,0.045402,-0.007837,0.991262,-0.027656,0.014509,-0.026988,-0.000564,0.001337,0.001814,0.088074,0.245753,-0.965323
1759776698.747924,-0.123829,0.045506,-0.008097,0.991227,-0.020743,0.015173,-0.023654,-0.000010,0.004841,0.000540,0.088209,0.246221,-0.965191
1759776698.778484,-0.123984,0.045634,-0.008308,0.991200,-0.016214,0.013083,-0.015190,-0.001593,0.008596,0.000481,0.088404,0.246543,-0.965091
1759776698.779758,-0.124109,0.045742,-0.008438,0.991178,-0.014318,0.012211,-0.005047,-0.001268,0.008016,-0.001826,0.088583,0.246800,-0.965009
1759776698.809021,-0.124236,0.045864,-0.008490,0.991156,-0.010709,0.011796,-0.003118,-0.001045,0.006433,-0.002237,0.088807,0.247054,-0.964924
1759776698.839721,-0.124351,0.045970,-0.008557,0.991136,-0.008911,0.010631,-0.006485,-0.000114,0.004643,-0.002213,0.088996,0.247284,-0.964847
1759776698.842433,-0.124496,0.046060,-0.008712,0.991112,-0.010466,0.007402,-0.014816,0.000555,0.003834,-0.000453,0.089132,0.247581,-0.964759
1759776698.871353,-0.124693,0.046096,-0.008900,0.991084,-0.012605,0.003988,-0.020776,0.000610,0.002258,-0.001006,0.089151,0.247983,-0.964654
1759776698.878182,-0.124877,0.046069,-0.009123,0.991060,-0.012448,0.003198,-0.020435,0.001943,0.001646,-0.001447,0.089037,0.248361,-0.964567
1759776698.906431,-0.125010,0.046091,-0.009353,0.991040,-0.004649,0.002086,-0.022487,0.000363,-0.000116,0.000266,0.089017,0.248642,-0.964496
1759776698.937107,-0.125035,0.046087,-0.009600,0.991035,0.005103,-0.000587,-0.022147,-0.000195,-0.001267,-0.000315,0.088947,0.248713,-0.964484
1759776698.939204,-0.124972,0.046055,-0.009795,0.991042,0.013705,0.002104,-0.012901,-0.000076,-0.000491,-0.000122,0.088836,0.248608,-0.964522
1759776698.968035,-0.124814,0.046054,-0.009912,0.991061,0.021862,-0.000245,-0.006684,-0.000763,-0.002177,0.000368,0.088811,0.248310,-0.964601
1759776699.020218,-0.124524,0.046046,-0.009957,0.991098,0.025501,-0.001926,-0.003282,-0.001008,-0.002556,0.001005,0.088792,0.247748,-0.964747
1759776699.020552,-0.124234,0.046038,-0.010003,0.991134,0.029141,-0.003608,0.000121,-0.001253,-0.002935,0.001641,0.088774,0.247186,-0.964893
1759776699.020861,-0.123957,0.046030,-0.009991,0.991169,0.023732,-0.004672,0.002992,-0.001991,-0.004207,-0.000307,0.088771,0.246644,-0.965032
1759776699.048976,-0.123730,0.046013,-0.009954,0.991199,0.014298,-0.000835,0.002759,-0.001713,-0.004885,-0.000962,0.088754,0.246197,-0.965147
1759776699.057893,-0.123603,0.045972,-0.009989,0.991216,0.005593,-0.001254,-0.001468,-0.001265,-0.003913,-0.000792,0.088668,0.245954,-0.965217
1759776699.091054,-0.123581,0.045953,-0.010037,0.991219,-0.003072,0.003069,-0.008455,-0.001364,-0.004350,-0.000727,0.088618,0.245914,-0.965232
1759776699.129781,-0.123643,0.045940,-0.010182,0.991211,-0.009451,0.003306,-0.009662,-0.000901,-0.001828,-0.000768,0.088554,0.246047,-0.965204
1759776699.130110,-0.123705,0.045927,-0.010326,0.991202,-0.015830,0.003543,-0.010869,-0.000438,0.000693,-0.000810,0.088491,0.246181,-0.965176
1759776699.158931,-0.123860,0.045901,-0.010399,0.991183,-0.024477,-0.000631,-0.005986,-0.003292,0.003113,0.000810,0.088416,0.246490,-0.965104
1759776699.160855,-0.124111,0.045798,-0.010440,0.991156,-0.031566,-0.013629,-0.004149,-0.004041,0.002105,0.003312,0.088194,0.246984,-0.964998
1759776699.190218,-0.124405,0.045610,-0.010419,0.991128,-0.033817,-0.020516,0.005432,-0.002092,0.000983,0.001150,0.087818,0.247552,-0.964886
1759776699.221196,-0.124758,0.045491,-0.010387,0.991089,-0.034945,-0.002096,-0.001656,0.002175,-0.000155,-0.006513,0.087580,0.248239,-0.964732
1759776699.223027,-0.125165,0.045527,-0.010441,0.991036,-0.039974,0.011830,-0.001878,0.002634,0.003438,-0.006272,0.087625,0.249037,-0.964522
1759776699.251889,-0.125621,0.045645,-0.010465,0.990972,-0.045510,0.014621,-0.000646,-0.001131,0.004271,-0.003253,0.087837,0.249930,-0.964272
1759776699.259258,-0.126092,0.045690,-0.010487,0.990910,-0.043482,0.001510,-0.005875,-0.002874,0.004236,-0.000841,0.087904,0.250850,-0.964027
1759776699.317450,-0.126489,0.045662,-0.010525,0.990861,-0.040368,0.000993,-0.003548,-0.001684,0.004821,0.001007,0.087827,0.251627,-0.963831
1759776699.317812,-0.126886,0.045634,-0.010563,0.990811,-0.037255,0.000475,-0.001220,-0.000494,0.005406,0.002856,0.087749,0.252403,-0.963635
1759776699.319251,-0.127212,0.045563,-0.010531,0.990773,-0.028551,-0.002242,0.004459,0.000117,0.004646,0.004498,0.087605,0.253035,-0.963483
1759776699.352477,-0.127444,0.045509,-0.010477,0.990746,-0.016833,-0.005162,0.007075,-0.000800,0.001989,0.003280,0.087506,0.253483,-0.963374
1759776699.386073,-0.127617,0.045448,-0.010415,0.990727,-0.008654,-0.008444,0.004313,-0.000570,-0.000100,0.001202,0.087396,0.253814,-0.963297
1759776699.387285,-0.127737,0.045427,-0.010403,0.990713,-0.009356,0.004523,-0.001528,0.000660,0.000141,-0.004316,0.087353,0.254047,-0.963239
1759776699.416686,-0.127869,0.045455,-0.010446,0.990694,-0.006510,0.001764,-0.005483,-0.003171,-0.000664,0.001494,0.087394,0.254308,-0.963167
1759776699.417530,-0.127960,0.045446,-0.010522,0.990682,-0.002993,-0.006550,-0.012416,-0.004535,0.000421,0.002217,0.087352,0.254491,-0.963122
1759776699.447602,-0.127973,0.045430,-0.010625,0.990680,-0.000115,0.000089,-0.005365,-0.001634,0.003401,-0.000695,0.087294,0.254526,-0.963118
1759776699.479987,-0.127972,0.045519,-0.010641,0.990676,-0.003433,0.015099,0.008406,-0.001470,0.005709,-0.001950,0.087465,0.254525,-0.963103
1759776699.480805,-0.127964,0.045663,-0.010588,0.990671,0.001367,0.012015,0.008470,-0.003490,0.001645,0.000206,0.087765,0.254506,-0.963080
1759776699.512967,-0.127950,0.045752,-0.010583,0.990668,0.001682,0.010452,0.000227,-0.001912,0.000345,-0.000463,0.087942,0.254481,-0.963071
1759776699.517005,-0.127981,0.045858,-0.010620,0.990659,-0.004638,0.010168,-0.003739,-0.001272,0.000319,-0.000266,0.088141,0.254546,-0.963036
1759776699.545189,-0.128077,0.045942,-0.010708,0.990642,-0.009011,0.008904,-0.010826,-0.000515,0.000601,0.001221,0.088281,0.254740,-0.962971
1759776699.575930,-0.128226,0.046004,-0.010825,0.990618,-0.013002,0.006444,-0.010926,0.000271,0.000061,0.001413,0.088368,0.255043,-0.962883
1759776699.577396,-0.128359,0.046032,-0.010940,0.990598,-0.013314,0.002374,-0.007923,0.000513,0.000823,-0.000378,0.088390,0.255312,-0.962810
1759776699.617447,-0.128512,0.046014,-0.011026,0.990579,-0.015791,0.001719,-0.007260,0.000464,0.001138,-0.000133,0.088326,0.255618,-0.962735
1759776699.619267,-0.128724,0.046008,-0.011102,0.990550,-0.023995,0.000158,-0.006271,0.000408,0.002208,-0.001912,0.088288,0.256038,-0.962627
1759776699.647856,-0.128994,0.045984,-0.011159,0.990516,-0.028077,0.000003,-0.006124,0.000637,0.002028,-0.001112,0.088217,0.256568,-0.962492
1759776699.654413,-0.129274,0.045942,-0.011197,0.990481,-0.024431,-0.005531,-0.006838,0.000371,0.001606,0.000499,0.088115,0.257116,-0.962355
1759776699.686322,-0.129516,0.045876,-0.011241,0.990452,-0.021192,-0.009075,-0.005796,0.000799,0.000810,0.000720,0.087965,0.257590,-0.962242
1759776699.715485,-0.129723,0.045759,-0.011301,0.990429,-0.015785,-0.010787,-0.007490,0.000141,0.000326,0.001140,0.087711,0.257998,-0.962156
1759776699.716358,-0.129887,0.045638,-0.011354,0.990413,-0.013356,-0.011561,-0.011645,-0.000088,0.000157,0.001286,0.087452,0.258320,-0.962093
1759776699.746604,-0.130021,0.045494,-0.011456,0.990401,-0.011887,-0.013945,-0.012885,0.000044,0.000506,0.000891,0.087135,0.258587,-0.962050
1759776699.777229,-0.130175,0.045347,-0.011549,0.990386,-0.014151,-0.018621,-0.012629,-0.000510,0.000826,0.000652,0.086815,0.258894,-0.961996
1759776699.779261,-0.130358,0.045173,-0.011637,0.990369,-0.017585,-0.017440,-0.007571,-0.000776,0.000484,0.000121,0.086442,0.259256,-0.961932
1759776699.807781,-0.130535,0.045006,-0.011698,0.990353,-0.014930,-0.014477,-0.007215,-0.001544,0.000114,-0.000613,0.086090,0.259603,-0.961870
1759776699.815478,-0.130708,0.044861,-0.011712,0.990336,-0.014850,-0.013194,-0.001698,-0.000601,-0.000416,-0.000659,0.085794,0.259940,-0.961806
1759776699.845882,-0.130864,0.044740,-0.011685,0.990321,-0.013890,-0.013070,0.002191,-0.000808,0.000061,-0.000326,0.085556,0.260240,-0.961746
1759776699.874128,-0.131007,0.044656,-0.011632,0.990307,-0.012256,-0.008647,0.004421,-0.000954,-0.000234,-0.000665,0.085398,0.260514,-0.961686
1759776699.875915,-0.131126,0.044590,-0.011610,0.990294,-0.008980,-0.001293,0.000663,-0.001761,-0.001045,-0.001788,0.085270,0.260743,-0.961635
1759776699.919636,-0.131199,0.044554,-0.011614,0.990286,-0.008401,-0.004439,-0.000405,-0.001730,0.000513,-0.000354,0.085195,0.260884,-0.961604
1759776699.921017,-0.131310,0.044508,-0.011598,0.990274,-0.009855,-0.005918,-0.000065,-0.001112,0.000833,0.000233,0.085104,0.261098,-0.961554
1759776699.950244,-0.131386,0.044399,-0.011588,0.990269,-0.007417,-0.010301,-0.000241,-0.000091,0.000187,-0.001741,0.084890,0.261243,-0.961533
1759776699.952217,-0.131465,0.044343,-0.011556,0.990261,-0.009690,-0.001016,0.006167,0.000757,0.001261,-0.002853,0.084783,0.261394,-0.961501
1759776699.981745,-0.131533,0.044311,-0.011464,0.990255,-0.005825,-0.007260,0.003855,-0.003636,-0.001214,0.002287,0.084742,0.261519,-0.961471
1759776700.019797,-0.131584,0.044144,-0.011388,0.990256,-0.006377,-0.017507,0.006030,-0.003202,-0.000224,0.004658,0.084430,0.261609,-0.961474
1759776700.021087,-0.131634,0.043923,-0.011290,0.990260,-0.003386,-0.020967,0.004420,-0.001434,-0.002388,-0.000764,0.084018,0.261696,-0.961486
1759776700.051049,-0.131646,0.043809,-0.011257,0.990264,-0.001651,0.000184,0.001952,0.001632,-0.000981,-0.008862,0.083801,0.261715,-0.961500
1759776700.053614,-0.131714,0.043884,-0.011247,0.990252,-0.013697,0.011321,0.000883,-0.001256,0.002247,-0.008005,0.083950,0.261847,-0.961451
1759776700.085618,-0.131953,0.043998,-0.011173,0.990216,-0.033582,0.007484,0.005075,-0.004038,0.002432,-0.002766,0.084186,0.262306,-0.961305
1759776700.115127,-0.132254,0.043973,-0.011072,0.990178,-0.036700,-0.012621,0.007891,-0.003433,0.002477,0.002484,0.084154,0.262884,-0.961150
1759776700.115417,-0.132550,0.043869,-0.011002,0.990144,-0.032623,-0.016863,-0.000018,-0.001981,-0.000888,0.002646,0.083956,0.263452,-0.961012
1759776700.145973,-0.132833,0.043706,-0.010969,0.990114,-0.026831,-0.016758,-0.001003,-0.000440,-0.000353,0.003733,0.083633,0.263999,-0.960890
1759776700.175184,-0.133047,0.043533,-0.010963,0.990093,-0.012550,-0.014928,0.004308,-0.000958,0.001641,0.005264,0.083286,0.264412,-0.960807
1759776700.177067,-0.133153,0.043370,-0.010849,0.990087,-0.005022,-0.012356,0.009225,-0.000447,0.000568,0.002604,0.082992,0.264608,-0.960778
1759776700.217347,-0.133137,0.043247,-0.010719,0.990096,0.003836,-0.016680,0.012995,-0.000767,0.000389,0.000718,0.082783,0.264563,-0.960809
1759776700.219347,-0.133092,0.043148,-0.010596,0.990107,0.000948,-0.003186,0.009701,0.001400,0.000578,-0.004333,0.082623,0.264465,-0.960849
1759776700.247877,-0.133071,0.043115,-0.010476,0.990113,0.000590,-0.006098,0.008144,-0.002435,0.000640,-0.000386,0.082589,0.264414,-0.960866
1759776700.250961,-0.133071,0.042971,-0.010393,0.990120,0.005409,-0.021658,0.000489,-0.001468,-0.000064,-0.000697,0.082327,0.264405,-0.960891
1759776700.279780,-0.133033,0.042878,-0.010394,0.990129,0.004648,-0.006731,-0.000357,0.002059,0.001651,-0.003285,0.082144,0.264331,-0.960928
1759776700.310562,-0.132964,0.042890,-0.010384,0.990138,0.004482,0.008946,0.003666,0.000861,0.000940,-0.001489,0.082173,0.264197,-0.960962
1759776700.312378,-0.132887,0.042936,-0.010371,0.990146,0.013498,-0.000271,0.000243,-0.003222,-0.000059,0.002407,0.082269,0.264045,-0.960995
1759776700.342891,-0.132746,0.042898,-0.010397,0.990167,0.014731,-0.002606,0.000856,-0.001876,0.001789,0.000998,0.082192,0.263773,-0.961077
1759776700.356819,-0.132618,0.042912,-0.010395,0.990183,0.010483,-0.000769,-0.000764,-0.000827,0.002147,0.000672,0.082225,0.263524,-0.961142
1759776700.386776,-0.132533,0.042919,-0.010368,0.990195,0.005897,-0.000125,0.001149,-0.001299,0.001511,-0.000485,0.082247,0.263358,-0.961186
1759776700.417258,-0.132502,0.042878,-0.010359,0.990201,0.002987,-0.003484,0.003628,-0.001430,0.002324,0.001062,0.082170,0.263296,-0.961209
1759776700.417587,-0.132492,0.042833,-0.010287,0.990205,0.001200,-0.006239,0.006282,-0.001403,0.002042,0.000105,0.082101,0.263270,-0.961222
1759776700.445272,-0.132500,0.042747,-0.010180,0.990209,-0.002428,-0.010119,0.010676,-0.001475,0.001475,-0.000662,0.081959,0.263275,-0.961233
1759776700.451950,-0.132564,0.042636,-0.010060,0.990206,-0.008564,-0.011651,0.015164,-0.000069,0.000829,-0.001630,0.081770,0.263389,-0.961218
1759776700.480722,-0.132696,0.042527,-0.009893,0.990195,-0.010941,-0.010905,0.013423,-0.000902,-0.000990,-0.002033,0.081594,0.263630,-0.961167
1759776700.517890,-0.132847,0.042471,-0.009742,0.990178,-0.013315,-0.008077,0.010549,-0.000895,-0.003153,-0.002524,0.081519,0.263912,-0.961096
1759776700.526728,-0.132967,0.042415,-0.009693,0.990165,-0.007664,-0.002162,-0.000425,-0.000624,-0.004401,-0.001121,0.081418,0.264140,-0.961042
1759776700.556317,-0.132998,0.042388,-0.009748,0.990162,-0.000319,-0.000239,-0.010712,0.000330,-0.004548,-0.001076,0.081349,0.264205,-0.961030
1759776700.556658,-0.132958,0.042384,-0.009919,0.990165,0.006479,-0.000186,-0.015974,-0.001127,-0.004015,0.001610,0.081296,0.264141,-0.961052
1759776700.585987,-0.132851,0.042388,-0.010098,0.990178,0.008634,0.000806,-0.016549,-0.002312,-0.002057,0.001696,0.081261,0.263947,-0.961108
1759776700.593177,-0.132729,0.042385,-0.010251,0.990193,0.008371,0.001386,-0.010907,-0.002198,-0.000604,0.000754,0.081218,0.263724,-0.961173
1759776700.622124,-0.132620,0.042383,-0.010382,0.990206,0.010218,0.002984,-0.009045,-0.002855,-0.001507,0.001934,0.081182,0.263523,-0.961231
1759776700.656130,-0.132486,0.042385,-0.010466,0.990223,0.010453,0.003543,-0.006563,-0.002776,0.000220,0.000222,0.081169,0.263268,-0.961302
1759776700.658864,-0.132383,0.042439,-0.010508,0.990234,0.011990,0.004252,-0.004651,-0.003828,0.001597,-0.000979,0.081267,0.263072,-0.961347
1759776700.688570,-0.132261,0.042492,-0.010539,0.990248,0.010027,0.010456,0.004239,-0.003012,0.002661,-0.002186,0.081367,0.262838,-0.961403
1759776700.690615,-0.132126,0.042595,-0.010512,0.990261,0.007366,0.009793,0.005567,-0.003162,0.002568,-0.001063,0.081584,0.262574,-0.961457
1759776700.719147,-0.132092,0.042744,-0.010493,0.990260,0.001076,0.018779,0.003630,-0.002560,0.001283,-0.002594,0.081883,0.262508,-0.961449
1759776700.749875,-0.132111,0.042911,-0.010548,0.990249,-0.003004,0.021051,-0.010352,-0.001209,-0.002618,-0.003675,0.082198,0.262551,-0.961411
1759776700.751863,-0.132171,0.043121,-0.010765,0.990230,0.000107,0.025532,-0.022897,-0.001325,-0.002497,-0.003106,0.082555,0.262687,-0.961343
1759776700.780365,-0.132184,0.043346,-0.011102,0.990215,0.003779,0.032170,-0.032304,-0.000367,-0.000692,-0.000861,0.082908,0.262743,-0.961297
1759776700.820465,-0.132167,0.043570,-0.011486,0.990203,0.004447,0.024637,-0.033489,-0.002724,0.002789,0.003265,0.083251,0.262745,-0.961267
1759776700.820610,-0.132130,0.043727,-0.011840,0.990197,0.004744,0.022509,-0.025673,0.000855,0.002346,-0.000968,0.083468,0.262704,-0.961259
1759776700.850180,-0.132103,0.043911,-0.012085,0.990189,0.002277,0.022764,-0.015820,0.000399,0.001642,0.000729,0.083766,0.262674,-0.961242
1759776700.852698,-0.132102,0.044018,-0.012269,0.990182,-0.001074,0.002504,-0.010485,-0.003277,0.000505,0.006811,0.083930,0.262691,-0.961223
1759776700.881630,-0.132145,0.043924,-0.012356,0.990180,-0.003980,-0.011909,-0.005832,-0.001858,0.000459,0.003715,0.083719,0.262781,-0.961217
1759776700.912182,-0.132176,0.043825,-0.012377,0.990180,-0.000928,-0.004304,-0.004559,0.002694,-0.002532,-0.005033,0.083518,0.262840,-0.961218
1759776700.914309,-0.132207,0.043936,-0.012473,0.990169,-0.007582,0.020517,-0.005475,0.007014,0.000969,-0.008151,0.083709,0.262911,-0.961182
1759776700.942766,-0.132404,0.044209,-0.012528,0.990130,-0.024502,0.031127,0.001006,0.001832,0.002406,-0.002275,0.084227,0.263302,-0.961030
1759776700.973618,-0.132622,0.044400,-0.012599,0.990092,-0.015636,0.007001,-0.011380,-0.003034,-0.000876,0.003569,0.084578,0.263735,-0.960880
1759776700.975559,-0.132708,0.044336,-0.012787,0.990081,-0.007186,-0.012145,-0.021336,-0.001977,0.001237,0.001714,0.084398,0.263917,-0.960846
1759776701.004039,-0.132787,0.044242,-0.012963,0.990072,-0.009025,-0.007225,-0.016801,0.000282,0.004905,-0.004312,0.084163,0.264084,-0.960820
1759776701.011784,-0.132876,0.044175,-0.013108,0.990061,-0.005077,-0.003112,-0.008861,-0.000155,0.004585,-0.002355,0.083989,0.264268,-0.960785
1759776701.051086,-0.132882,0.044133,-0.013204,0.990061,0.002365,0.000135,-0.003844,-0.001539,0.002759,0.002199,0.083880,0.264288,-0.960789
1759776701.053596,-0.132818,0.044099,-0.013259,0.990070,0.010722,-0.005497,-0.007479,-0.001512,-0.001089,0.003603,0.083801,0.264168,-0.960829
1759776701.082787,-0.132708,0.044008,-0.013392,0.990087,0.010997,-0.009570,-0.011696,0.000097,0.000648,-0.000097,0.083589,0.263963,-0.960904
1759776701.118511,-0.132657,0.043970,-0.013514,0.990094,0.008583,0.003258,-0.007579,-0.000217,-0.000300,0.000484,0.083484,0.263875,-0.960937
1759776701.119812,-0.132573,0.043892,-0.013575,0.990108,0.012086,-0.009022,-0.006173,-0.003003,-0.001815,0.000279,0.083316,0.263714,-0.960996
1759776701.152139,-0.132427,0.043716,-0.013678,0.990134,0.014563,-0.010459,-0.011941,0.002566,-0.000467,-0.005703,0.082947,0.263438,-0.961104
1759776701.152430,-0.132362,0.043690,-0.013780,0.990142,0.001490,0.004657,-0.003676,0.002283,0.000433,-0.005398,0.082870,0.263317,-0.961143
1759776701.180257,-0.132404,0.043851,-0.013823,0.990129,-0.004676,0.010498,0.001001,-0.002023,-0.001768,0.000984,0.083177,0.263407,-0.961092
1759776701.211171,-0.132416,0.043870,-0.013878,0.990126,0.003897,-0.001275,-0.009322,-0.004198,-0.003591,0.001940,0.083198,0.263434,-0.961083
1759776701.212389,-0.132371,0.043832,-0.013951,0.990132,0.000612,-0.002393,-0.004347,-0.000857,0.000160,0.001506,0.083106,0.263353,-0.961113
1759776701.243708,-0.132360,0.043823,-0.013969,0.990134,-0.000918,-0.000224,-0.003357,-0.000901,0.000270,0.000249,0.083083,0.263333,-0.961121
1759776701.251714,-0.132377,0.043802,-0.014002,0.990132,-0.002098,-0.000533,-0.000017,-0.001763,0.000580,0.000858,0.083032,0.263367,-0.961116
1759776701.281950,-0.132387,0.043764,-0.014024,0.990132,-0.000851,-0.002221,-0.002078,-0.002059,0.000131,0.000487,0.082951,0.263389,-0.961117
1759776701.311499,-0.132384,0.043765,-0.014060,0.990132,0.003302,0.001633,-0.007519,-0.001638,0.000969,-0.000639,0.082944,0.263386,-0.961118
1759776701.311807,-0.132311,0.043731,-0.014175,0.990142,0.008945,-0.000099,-0.013310,-0.000946,0.006526,-0.003218,0.082848,0.263253,-0.961163
1759776701.340206,-0.132235,0.043679,-0.014369,0.990151,0.010108,0.004010,-0.023493,-0.000644,0.016712,-0.010668,0.082697,0.263121,-0.961212
1759776701.371075,-0.132147,0.043622,-0.014687,0.990161,0.009404,-0.014741,-0.040063,-0.014080,0.040350,-0.013419,0.082503,0.262976,-0.961268
1759776701.373022,-0.132152,0.043338,-0.014995,0.990168,-0.013031,-0.018454,-0.015201,-0.020696,0.079475,-0.031301,0.081861,0.263005,-0.961315
1759776701.417384,-0.132398,0.043188,-0.014767,0.990145,-0.025728,-0.009076,0.054558,-0.022024,0.095797,-0.032031,0.081614,0.263463,-0.961211
1759776701.419327,-0.132584,0.043389,-0.013927,0.990124,-0.002947,0.030465,0.106210,-0.017798,0.084587,-0.022132,0.082228,0.263758,-0.961078
1759776701.449805,-0.132346,0.043873,-0.012845,0.990149,0.071129,0.025591,0.112067,-0.017502,0.064786,-0.002356,0.083482,0.263211,-0.961119
1759776701.453078,-0.131454,0.043998,-0.011944,0.990273,0.132879,0.008444,0.074541,-0.007465,0.064305,-0.029529,0.084001,0.261403,-0.961568
1759776701.481687,-0.130251,0.044132,-0.011581,0.990431,0.147531,0.025852,0.018426,0.001671,0.087339,-0.059113,0.084402,0.259031,-0.962174
1759776701.514546,-0.129123,0.044482,-0.011634,0.990562,0.114510,0.065646,0.003868,0.009013,0.109988,-0.062569,0.085120,0.256843,-0.962697
1759776701.514830,-0.128248,0.045109,-0.011703,0.990647,0.103507,0.047395,0.006860,0.003363,0.111210,-0.037579,0.086373,0.255152,-0.963035
1759776701.542636,-0.127231,0.045376,-0.011769,0.990765,0.101399,0.034161,-0.002885,0.007341,0.108629,-0.054018,0.086918,0.253181,-0.963506
1759776701.550467,-0.126281,0.045883,-0.011842,0.990862,0.093922,0.050651,0.007148,0.008466,0.099400,-0.028173,0.087936,0.251342,-0.963896
1759776701.580449,-0.125424,0.046329,-0.011957,0.990949,0.094925,0.038563,-0.008111,0.009345,0.075460,0.002783,0.088820,0.249685,-0.964245
1759776701.610887,-0.124616,0.046662,-0.012215,0.991032,0.112466,0.030185,-0.028248,0.006592,0.048931,0.028235,0.089442,0.248136,-0.964587
1759776701.620233,-0.123506,0.046736,-0.012774,0.991160,0.165539,0.007382,-0.054791,0.000719,0.031227,0.041204,0.089491,0.246022,-0.965124
1759776701.652550,-0.121932,0.046512,-0.013468,0.991357,0.221636,-0.043419,-0.065633,-0.003506,0.023280,0.038759,0.088935,0.243008,-0.965939
1759776701.654209,-0.120004,0.045970,-0.014161,0.991607,0.249060,-0.037574,-0.049825,-0.003069,0.024641,0.007445,0.087769,0.239297,-0.966971
1759776701.717550,-0.117997,0.045283,-0.014605,0.991874,0.213759,-0.043326,-0.028829,-0.005642,0.043389,-0.020157,0.086384,0.235398,-0.968052
1759776701.717881,-0.115988,0.044597,-0.015048,0.992135,0.178457,-0.049078,-0.007832,-0.008217,0.062144,-0.047776,0.085001,0.231494,-0.969116
1759776701.719257,-0.114975,0.044320,-0.015023,0.992265,0.073234,-0.009610,0.029418,-0.013105,0.070965,-0.037841,0.084501,0.229503,-0.969633
1759776701.747986,-0.114977,0.044147,-0.014487,0.992281,-0.021635,-0.045345,0.078150,-0.021161,0.064127,-0.011421,0.084282,0.229458,-0.969663
1759776701.749818,-0.115739,0.043662,-0.013591,0.992226,-0.078174,-0.060068,0.086219,-0.016453,0.041484,-0.016747,0.083499,0.230866,-0.969396
1759776701.779062,-0.116823,0.043297,-0.012526,0.992130,-0.086286,-0.027082,0.108923,-0.010112,0.019365,-0.005533,0.082986,0.232892,-0.968956
1759776701.809820,-0.117799,0.043231,-0.011365,0.992031,-0.064055,-0.014393,0.112414,-0.011734,0.000096,0.028910,0.083096,0.234704,-0.968509
1759776701.811823,-0.118595,0.043062,-0.010328,0.991955,-0.044975,-0.007363,0.094957,-0.007905,-0.009243,0.035057,0.082982,0.236172,-0.968162
1759776701.840195,-0.119190,0.043250,-0.009463,0.991884,-0.033283,0.030006,0.076293,-0.004562,-0.023085,0.046824,0.083542,0.237264,-0.967846
1759776701.872149,-0.119589,0.043868,-0.008919,0.991814,-0.028668,0.103433,0.050526,0.000581,-0.034936,0.054232,0.084884,0.238002,-0.967548
1759776701.873480,-0.119707,0.044852,-0.008665,0.991758,0.009891,0.089989,0.026703,-0.007176,-0.044928,0.077286,0.086890,0.238217,-0.967317
1759776701.912171,-0.119356,0.045684,-0.008700,0.991762,0.062972,0.076916,-0.008840,-0.009525,-0.050098,0.070477,0.088538,0.237541,-0.967334
1759776701.912477,-0.118521,0.046242,-0.009056,0.991833,0.098426,0.048314,-0.036552,-0.009259,-0.043644,0.054741,0.089582,0.235944,-0.967629
1759776701.937956,-0.117509,0.046584,-0.009423,0.991934,0.086278,0.045580,-0.005105,-0.004366,-0.029232,0.034227,0.090201,0.233999,-0.968043
1759776701.968681,-0.116674,0.047221,-0.009268,0.992004,0.078932,0.060902,0.051620,-0.003767,-0.047747,0.040477,0.091524,0.232357,-0.968315
1759776701.968918,-0.115585,0.047815,-0.008767,0.992107,0.131964,0.053922,0.063067,-0.001092,-0.074603,0.030656,0.092849,0.230183,-0.968708
1759776702.022724,-0.113576,0.048536,-0.008232,0.992309,0.183380,0.062115,0.065184,-0.002878,-0.082871,0.019862,0.094456,0.226203,-0.969490
1759776702.023019,-0.111566,0.049257,-0.007697,0.992506,0.234795,0.070309,0.067301,-0.004659,-0.091134,0.009051,0.096058,0.222218,-0.970254
1759776702.029290,-0.109047,0.049997,-0.007190,0.992752,0.246206,0.077062,0.075783,0.000611,-0.086726,0.005933,0.097702,0.217233,-0.971218
1759776702.059679,-0.106426,0.050792,-0.006629,0.993000,0.241744,0.066064,0.081519,-0.003161,-0.084967,0.009782,0.099462,0.212036,-0.972187
1759776702.087725,-0.103819,0.051322,-0.005839,0.993254,0.224694,0.049104,0.098095,0.002127,-0.092631,0.000241,0.100740,0.206837,-0.973175
1759776702.089750,-0.101187,0.051805,-0.005062,0.993505,0.220793,0.033202,0.091108,0.001939,-0.094809,-0.001566,0.101914,0.201585,-0.974155
1759776702.133416,-0.098786,0.052200,-0.004226,0.993730,0.177425,0.027778,0.102013,0.003418,-0.092671,-0.005830,0.102911,0.196775,-0.975033
1759776702.134819,-0.096865,0.052449,-0.003338,0.993909,0.126936,0.008574,0.097032,0.001605,-0.097057,-0.003741,0.103612,0.192899,-0.975733
1759776702.167172,-0.095367,0.052335,-0.002379,0.994063,0.077210,-0.047595,0.091345,0.001502,-0.095453,0.000020,0.103595,0.189851,-0.976332
1759776702.167520,-0.094267,0.051711,-0.001425,0.994202,0.034107,-0.085523,0.085309,0.012242,-0.101189,-0.007896,0.102554,0.187588,-0.976879
1759776702.195237,-0.093555,0.050873,-0.000483,0.994313,-0.011745,-0.100826,0.078815,0.018818,-0.100078,-0.017937,0.101077,0.186094,-0.977319
1759776702.227923,-0.093136,0.049903,0.000356,0.994402,-0.043333,-0.109909,0.062678,0.019302,-0.091778,-0.020667,0.099313,0.185194,-0.977671
1759776702.228276,-0.093054,0.048865,0.001049,0.994461,-0.072051,-0.108398,0.039849,0.019440,-0.084329,-0.024928,0.097383,0.184975,-0.977906
1759776702.257560,-0.093175,0.047916,0.001491,0.994495,-0.093095,-0.107543,0.010092,0.017598,-0.072111,-0.018812,0.095583,0.185181,-0.978045
1759776702.317613,-0.093719,0.047163,0.001410,0.994480,-0.105025,-0.101619,-0.009883,0.016437,-0.057768,-0.014448,0.094069,0.186271,-0.977985
1759776702.317965,-0.094264,0.046410,0.001329,0.994464,-0.116955,-0.095696,-0.029859,0.015276,-0.043424,-0.010087,0.092556,0.187361,-0.977921
1759776702.318198,-0.094808,0.045656,0.001248,0.994447,-0.128885,-0.089772,-0.049834,0.014115,-0.029079,-0.005730,0.091042,0.188450,-0.977854
1759776702.355326,-0.095423,0.044997,0.000850,0.994419,-0.107191,-0.069538,-0.059757,0.014593,-0.020910,-0.007627,0.089655,0.189705,-0.977739
1759776702.356333,-0.095956,0.044573,0.000425,0.994387,-0.086942,-0.036238,-0.049473,0.011488,-0.013654,-0.008704,0.088727,0.190798,-0.977611
1759776702.387073,-0.096327,0.044428,0.000095,0.994358,-0.047103,-0.021196,-0.035627,0.006588,-0.006133,-0.001525,0.088373,0.191558,-0.977495
1759776702.388471,-0.096414,0.044278,-0.000149,0.994356,-0.019295,-0.023793,-0.025191,0.004315,-0.003260,0.001604,0.088027,0.191753,-0.977488
1759776702.417952,-0.096396,0.044098,-0.000298,0.994366,-0.015449,-0.024114,-0.011728,0.002379,0.003309,-0.002681,0.087642,0.191732,-0.977526
1759776702.448529,-0.096456,0.043995,-0.000280,0.994364,-0.015422,-0.012763,0.005168,0.001447,0.002601,-0.002717,0.087440,0.191850,-0.977521
1759776702.451058,-0.096492,0.043972,-0.000225,0.994362,-0.000716,-0.008530,0.000080,-0.001695,-0.001509,0.001827,0.087405,0.191916,-0.977511
1759776702.480674,-0.096351,0.043833,-0.000221,0.994382,0.023188,-0.018982,-0.002758,-0.000282,-0.002077,0.002147,0.087131,0.191639,-0.977590
1759776702.488082,-0.096053,0.043713,-0.000266,0.994416,0.037318,-0.011458,-0.006772,-0.000270,0.001054,-0.001018,0.086888,0.191056,-0.977726
1759776702.517943,-0.095724,0.043633,-0.000302,0.994451,0.027501,-0.001486,0.004965,-0.004809,0.008670,-0.003112,0.086724,0.190412,-0.977866
1759776702.548290,-0.095494,0.043735,-0.000270,0.994469,0.017009,0.019345,0.002948,-0.005333,0.005872,-0.000761,0.086935,0.189955,-0.977936
1759776702.548625,-0.095320,0.043912,-0.000279,0.994478,0.017542,0.018939,-0.004167,-0.007141,0.003547,0.000597,0.087287,0.189612,-0.977971
1759776702.578776,-0.095142,0.044166,-0.000449,0.994483,0.018291,0.038993,-0.023070,-0.004255,0.002208,-0.003573,0.087759,0.189274,-0.977995
1759776702.617551,-0.095205,0.044532,-0.000880,0.994461,-0.007152,0.045483,-0.030496,-0.001584,0.013186,-0.002399,0.088403,0.189434,-0.977906
1759776702.617905,-0.095269,0.044898,-0.001310,0.994438,-0.032594,0.051973,-0.037923,0.001088,0.024164,-0.001225,0.089048,0.189595,-0.977816
1759776702.646596,-0.095728,0.045368,-0.001680,0.994372,-0.049603,0.054830,-0.028791,0.002177,0.020154,0.005448,0.089904,0.190530,-0.977556
1759776702.650558,-0.096214,0.045871,-0.002011,0.994301,-0.044675,0.054122,-0.027777,0.000756,0.013779,0.003856,0.090832,0.191515,-0.977278
1759776702.689901,-0.096676,0.046227,-0.002367,0.994239,-0.031169,0.039463,-0.034818,0.003089,0.011537,0.002271,0.091464,0.192458,-0.977033
1759776702.691824,-0.097164,0.046623,-0.002710,0.994172,-0.035874,0.042391,-0.022005,0.001644,0.016348,0.005897,0.092177,0.193448,-0.976771
1759776702.720534,-0.097652,0.046940,-0.002876,0.994109,-0.035899,0.025771,-0.013392,-0.001154,0.013263,0.009195,0.092766,0.194424,-0.976521
1759776702.728096,-0.098092,0.047117,-0.003018,0.994057,-0.031791,0.003103,-0.011986,-0.002573,0.012631,0.010037,0.093082,0.195302,-0.976316
1759776702.758339,-0.098482,0.047160,-0.003070,0.994016,-0.035748,0.009808,-0.000509,0.001881,0.012979,0.000228,0.093151,0.196075,-0.976155
1759776702.766200,-0.098913,0.047369,-0.003009,0.993963,-0.036502,0.032729,0.013331,0.003867,0.009275,-0.006051,0.093571,0.196918,-0.975945
1759776702.800959,-0.099374,0.047799,-0.002802,0.993898,-0.035978,0.049306,0.027979,0.000216,0.004300,-0.003961,0.094457,0.197803,-0.975680
1759776702.807347,-0.099757,0.048315,-0.002604,0.993835,-0.024260,0.035422,0.018288,-0.006449,-0.004590,0.005752,0.095515,0.198535,-0.975429
1759776702.835711,-0.100065,0.048535,-0.002593,0.993793,-0.022563,0.016840,-0.008199,-0.004382,-0.002492,0.001995,0.095948,0.199140,-0.975263
1759776702.846971,-0.100464,0.048694,-0.002736,0.993745,-0.046499,0.016457,-0.020955,-0.004246,0.002994,0.001341,0.096229,0.199937,-0.975072
1759776702.875203,-0.101102,0.048793,-0.003024,0.993674,-0.069752,0.007608,-0.027511,-0.006970,0.006416,0.006401,0.096356,0.201221,-0.974795
1759776702.948753,-0.101673,0.048576,-0.003176,0.993626,-0.055303,0.001270,-0.022385,-0.006313,0.003704,0.002544,0.095888,0.202358,-0.974606
1759776702.949099,-0.102243,0.048360,-0.003328,0.993578,-0.040855,-0.005069,-0.017260,-0.005655,0.000992,-0.001314,0.095419,0.203495,-0.974415
1759776702.949710,-0.103068,0.048034,-0.003587,0.993507,-0.013022,0.003910,-0.006781,-0.001986,0.000375,-0.007099,0.094705,0.205142,-0.974139
1759776702.949472,-0.102814,0.048144,-0.003480,0.993529,-0.026406,-0.011408,-0.012134,-0.004997,-0.001720,-0.005174,0.094949,0.204632,-0.974223
1759776702.976650,-0.103197,0.047981,-0.003698,0.993496,-0.009307,0.008414,-0.015036,-0.003828,-0.000742,-0.003048,0.094575,0.205406,-0.974097
1759776703.007136,-0.103265,0.047912,-0.003936,0.993492,0.000419,-0.011672,-0.032517,-0.001958,-0.002184,-0.000399,0.094387,0.205562,-0.974082
1759776703.009275,-0.103284,0.047875,-0.004314,0.993490,-0.007089,0.010849,-0.039029,0.000733,0.001536,-0.001910,0.094236,0.205637,-0.974081
1759776703.037580,-0.103450,0.047902,-0.004754,0.993469,-0.024368,0.010182,-0.036836,-0.003266,0.008605,0.002139,0.094194,0.206004,-0.974007
1759776703.068996,-0.103768,0.047851,-0.005061,0.993437,-0.037215,-0.011609,-0.023127,-0.004900,0.010268,0.006723,0.094023,0.206659,-0.973885
1759776703.070966,-0.104173,0.047584,-0.005148,0.993407,-0.041782,-0.026932,-0.005106,-0.004090,0.009412,0.005323,0.093469,0.207463,-0.973767
1759776703.101067,-0.104552,0.047249,-0.005035,0.993384,-0.039285,-0.034442,0.012568,-0.003198,0.007722,0.002831,0.092820,0.208197,-0.973673
1759776703.105665,-0.104920,0.046904,-0.004799,0.993362,-0.029098,-0.046463,0.023759,-0.006822,0.009505,0.005245,0.092179,0.208897,-0.973584
1759776703.133846,-0.105316,0.046479,-0.004458,0.993342,-0.033687,-0.044176,0.027483,-0.007128,0.011009,0.002725,0.091401,0.209644,-0.973496
1759776703.164575,-0.105738,0.046026,-0.004144,0.993320,-0.037238,-0.044297,0.023323,-0.007362,0.009821,0.001279,0.090560,0.210445,-0.973402
1759776703.166598,-0.106162,0.045641,-0.003872,0.993293,-0.037440,-0.034751,0.018646,-0.005073,0.008980,-0.002358,0.089848,0.211253,-0.973293
1759776703.246409,-0.106549,0.045476,-0.003798,0.993260,-0.039836,-0.019454,0.010105,-0.005278,0.007858,-0.003107,0.089531,0.212007,-0.973158
1759776703.246726,-0.106936,0.045312,-0.003724,0.993226,-0.042233,-0.004157,0.001565,-0.005483,0.006735,-0.003856,0.089214,0.212761,-0.973023
1759776703.247043,-0.107323,0.045147,-0.003650,0.993192,-0.044629,0.011141,-0.006976,-0.005688,0.005613,-0.004606,0.088897,0.213514,-0.972887
1759776703.249211,-0.107869,0.045252,-0.003791,0.993127,-0.053110,0.027202,-0.021416,-0.003459,0.002041,-0.001478,0.089064,0.214599,-0.972633
1759776703.278984,-0.108442,0.045478,-0.004153,0.993053,-0.054793,0.028499,-0.048962,-0.006306,0.000073,0.000979,0.089424,0.215754,-0.972344
1759776703.308503,-0.109036,0.045720,-0.004752,0.992974,-0.055902,0.034475,-0.056152,-0.002578,0.002852,0.001554,0.089761,0.216975,-0.972041
1759776703.310562,-0.109568,0.045889,-0.005286,0.992905,-0.038251,0.020464,-0.047688,-0.002392,0.004362,0.004192,0.089968,0.218066,-0.971778
1759776703.339068,-0.109814,0.045993,-0.005698,0.992871,-0.006741,0.017970,-0.031766,-0.000155,0.007180,0.002495,0.090079,0.218587,-0.971651
1759776703.346989,-0.109741,0.046056,-0.005947,0.992875,0.015910,0.007907,-0.011189,0.001398,0.011010,0.001119,0.090151,0.218466,-0.971671
1759776703.376820,-0.109535,0.046133,-0.006025,0.992894,0.029995,0.008724,-0.003043,0.002487,0.008701,0.002024,0.090290,0.218069,-0.971748
1759776703.407082,-0.109191,0.046197,-0.006122,0.992928,0.034540,0.011636,-0.009048,0.003503,0.007592,0.000226,0.090404,0.217403,-0.971886
1759776703.407422,-0.108882,0.046329,-0.006315,0.992954,0.040189,0.015562,-0.022162,0.003778,0.004652,-0.001007,0.090629,0.216814,-0.971997
1759776703.435219,-0.108608,0.046443,-0.006661,0.992977,0.034019,0.014976,-0.034379,0.002986,0.009784,0.001975,0.090787,0.216309,-0.972095
1759776703.446975,-0.108391,0.046525,-0.006990,0.992994,0.027023,0.005864,-0.024390,0.004466,0.015102,0.003393,0.090882,0.215914,-0.972174
1759776703.475358,-0.108246,0.046545,-0.007217,0.993008,0.015751,0.005049,-0.008031,0.003812,0.015465,0.001942,0.090876,0.215650,-0.972233
1759776703.519842,-0.108159,0.046571,-0.007205,0.993016,0.013346,0.000013,0.001762,0.002145,0.013857,0.002445,0.090934,0.215479,-0.972265
1759776703.520180,-0.108073,0.046598,-0.007193,0.993024,0.010941,-0.005022,0.011555,0.000477,0.012249,0.002948,0.090991,0.215308,-0.972298
1759776703.552113,-0.108092,0.046585,-0.007017,0.993024,0.005498,-0.010494,0.020814,0.000865,0.008491,0.005275,0.091003,0.215330,-0.972292
1759776703.552436,-0.108138,0.046502,-0.006776,0.993025,0.001246,-0.016376,0.021975,-0.000673,0.007512,0.006500,0.090889,0.215397,-0.972288
1759776703.582728,-0.108258,0.046300,-0.006547,0.993022,-0.010352,-0.024142,0.026147,0.001218,0.006145,0.004795,0.090536,0.215611,-0.972273
1759776703.583063,-0.108450,0.046110,-0.006256,0.993012,-0.011211,-0.022503,0.021810,0.000442,0.001339,0.000030,0.090219,0.215961,-0.972225
1759776703.613670,-0.108628,0.045873,-0.006003,0.993005,-0.011473,-0.034021,0.025108,-0.003246,0.001808,0.004292,0.089801,0.216287,-0.972191
1759776703.642953,-0.108750,0.045490,-0.005749,0.993011,-0.005300,-0.043387,0.019541,-0.001885,-0.001556,0.001888,0.089094,0.216504,-0.972208
1759776703.676063,-0.108786,0.044970,-0.005553,0.993032,0.005185,-0.052703,0.013219,-0.004190,0.000668,0.001422,0.088105,0.216555,-0.972287
1759776703.705502,-0.108705,0.044582,-0.005367,0.993059,0.007100,-0.035092,0.011933,-0.001108,0.001838,-0.005177,0.087378,0.216380,-0.972391
1759776703.707162,-0.108644,0.044367,-0.005196,0.993077,0.003458,-0.015261,0.010736,-0.001826,0.003172,-0.006047,0.086990,0.216244,-0.972456
1759776703.736704,-0.108617,0.044291,-0.005111,0.993083,0.002196,-0.005545,0.000386,-0.003761,0.000335,-0.004086,0.086858,0.216184,-0.972481
1759776703.767279,-0.108590,0.044214,-0.005187,0.993089,0.003180,-0.004895,-0.016284,-0.004983,-0.000629,-0.000707,0.086691,0.216137,-0.972507
1759776703.769505,-0.108563,0.044147,-0.005422,0.993094,0.003839,-0.001690,-0.026101,-0.004037,0.001312,-0.000319,0.086507,0.216106,-0.972530
1759776703.819378,-0.108504,0.044083,-0.005718,0.993102,0.009663,-0.004464,-0.024533,-0.004697,0.001786,0.001077,0.086317,0.216016,-0.972567
1759776703.819610,-0.108445,0.044019,-0.006015,0.993109,0.015487,-0.007238,-0.022965,-0.005356,0.002261,0.002473,0.086127,0.215925,-0.972604
1759776703.850189,-0.108266,0.043904,-0.006235,0.993132,0.027708,-0.011736,-0.014934,-0.005885,0.002198,0.000670,0.085855,0.215592,-0.972702
1759776703.850525,-0.107969,0.043735,-0.006371,0.993171,0.037887,-0.019034,-0.007947,-0.006553,0.002671,0.000045,0.085498,0.215020,-0.972860
1759776703.881923,-0.107592,0.043504,-0.006414,0.993222,0.040572,-0.018174,0.005574,-0.005646,0.004710,-0.000873,0.085038,0.214284,-0.973063
1759776703.892307,-0.107195,0.043259,-0.006302,0.993276,0.043971,-0.022149,0.016334,-0.006631,0.004344,-0.001833,0.084585,0.213494,-0.973276
1759776703.920280,-0.106771,0.043002,-0.006063,0.993335,0.048830,-0.029626,0.029518,-0.007145,0.003060,-0.001187,0.084137,0.212640,-0.973502
1759776703.925621,-0.106274,0.042749,-0.005736,0.993401,0.053077,-0.024273,0.036547,-0.005774,-0.000337,-0.003334,0.083716,0.211636,-0.973757
1759776703.955332,-0.105765,0.042595,-0.005356,0.993464,0.052469,-0.010343,0.040448,-0.004362,-0.001877,-0.005353,0.083501,0.210604,-0.973999
1759776703.986226,-0.105276,0.042557,-0.005003,0.993519,0.051702,-0.002603,0.034376,-0.005752,-0.003804,-0.002670,0.083509,0.209613,-0.974212
1759776703.988415,-0.104810,0.042534,-0.004740,0.993571,0.046780,0.002713,0.023468,-0.004015,-0.004805,-0.003131,0.083527,0.208676,-0.974411
1759776704.024729,-0.104356,0.042581,-0.004595,0.993617,0.042006,0.011333,0.012452,-0.000880,-0.006431,-0.003308,0.083659,0.207772,-0.974593
1759776704.025936,-0.103939,0.042733,-0.004619,0.993654,0.037674,0.022950,-0.004374,0.000924,-0.006940,-0.004443,0.083964,0.206954,-0.974741
1759776704.058034,-0.103565,0.042951,-0.004784,0.993683,0.035227,0.031722,-0.017096,0.000509,-0.006009,-0.004535,0.084368,0.206233,-0.974859
1759776704.064160,-0.103213,0.043224,-0.005071,0.993707,0.030841,0.033317,-0.028685,-0.000224,-0.002758,-0.002280,0.084858,0.205566,-0.974957
1759776704.117987,-0.102947,0.043482,-0.005396,0.993721,0.022771,0.030093,-0.025618,0.000272,0.001512,-0.001605,0.085308,0.205071,-0.975022
1759776704.118247,-0.102681,0.043740,-0.005722,0.993736,0.014701,0.026870,-0.022552,0.000767,0.005781,-0.000931,0.085758,0.204577,-0.975087
1759776704.122509,-0.102544,0.044012,-0.005956,0.993736,0.004313,0.025954,-0.013414,0.000367,0.007686,-0.000332,0.086251,0.204327,-0.975095
1759776704.152375,-0.102518,0.044261,-0.006081,0.993727,-0.000316,0.024623,-0.006716,0.000580,0.005455,0.000901,0.086720,0.204289,-0.975062
1759776704.181561,-0.102527,0.044472,-0.006184,0.993716,0.003672,0.021154,-0.007463,0.000260,0.002252,0.002988,0.087117,0.204315,-0.975021
1759776704.183501,-0.102489,0.044652,-0.006331,0.993711,0.010640,0.015538,-0.013389,-0.000251,0.001582,0.004623,0.087445,0.204255,-0.975004
1759776704.212879,-0.102434,0.044755,-0.006485,0.993711,0.008908,0.009982,-0.011061,-0.000153,0.004554,0.003480,0.087619,0.204161,-0.975008
1759776704.247540,-0.102408,0.044830,-0.006611,0.993710,0.005337,0.008983,-0.009718,0.000480,0.005788,0.002301,0.087741,0.204121,-0.975006
1759776704.250030,-0.102387,0.044934,-0.006705,0.993707,0.003324,0.010872,-0.002672,-0.000261,0.007111,-0.000285,0.087930,0.204089,-0.974996
1759776704.280127,-0.102389,0.045041,-0.006731,0.993701,0.006076,0.015102,-0.001812,0.000681,0.003131,-0.002191,0.088136,0.204095,-0.974976
1759776704.281857,-0.102337,0.045206,-0.006739,0.993699,0.011853,0.020208,-0.002334,0.000594,0.001027,-0.003541,0.088463,0.203994,-0.974967
1759776704.310474,-0.102180,0.045406,-0.006795,0.993706,0.021256,0.021958,-0.004459,0.000610,0.003429,-0.001050,0.088851,0.203691,-0.974995
1759776704.340905,-0.101989,0.045657,-0.006864,0.993714,0.023560,0.026573,-0.004528,0.000596,0.006109,0.000058,0.089339,0.203322,-0.975027
1759776704.343172,-0.101773,0.045907,-0.006959,0.993723,0.026340,0.026682,-0.005669,-0.000510,0.006603,0.002293,0.089822,0.202908,-0.975069
1759776704.374502,-0.101488,0.046151,-0.007069,0.993740,0.032802,0.021211,-0.008803,0.000334,0.005240,0.001809,0.090290,0.202358,-0.975140
1759776704.418797,-0.101080,0.046366,-0.007232,0.993771,0.042653,0.019889,-0.008603,-0.000339,0.005625,0.002437,0.090692,0.201571,-0.975266
1759776704.419089,-0.100672,0.046580,-0.007396,0.993801,0.052505,0.018568,-0.008403,-0.001013,0.006011,0.003063,0.091094,0.200785,-0.975391
1759776704.420984,-0.100174,0.046797,-0.007545,0.993840,0.058668,0.027387,-0.004878,-0.000374,0.007790,0.000857,0.091507,0.199820,-0.975550
1759776704.452310,-0.099622,0.047130,-0.007630,0.993879,0.061288,0.043929,0.003494,0.002184,0.007886,-0.002016,0.092163,0.198744,-0.975708
1759776704.495416,-0.098918,0.047779,-0.007608,0.993919,0.077093,0.060156,0.011711,0.003403,0.004256,-0.004109,0.093472,0.197360,-0.975865
1759776704.495734,-0.098213,0.048428,-0.007586,0.993957,0.092898,0.076383,0.019929,0.004623,0.000626,-0.006205,0.094781,0.195975,-0.976018
1759776704.501181,-0.097300,0.049241,-0.007447,0.994008,0.112047,0.086301,0.037322,0.001680,-0.002999,-0.003206,0.096442,0.194167,-0.976216
1759776704.530151,-0.096152,0.050082,-0.007135,0.994080,0.135636,0.073796,0.056029,-0.002097,-0.006616,0.002010,0.098199,0.191881,-0.976493
1759776704.560045,-0.094718,0.050737,-0.006671,0.994188,0.159363,0.053666,0.066756,-0.002637,-0.009119,0.002108,0.099620,0.189012,-0.976909
1759776704.561194,-0.093080,0.051285,-0.006129,0.994318,0.169867,0.048273,0.070758,-0.000175,-0.011199,-0.002578,0.100846,0.185730,-0.977412
1759776704.594940,-0.091379,0.051781,-0.005570,0.994453,0.169768,0.042018,0.062392,0.002239,-0.014144,-0.003003,0.101970,0.182321,-0.977937
1759776704.624073,-0.089747,0.052237,-0.005165,0.994580,0.152454,0.044084,0.045890,0.002572,-0.014872,-0.003731,0.102981,0.179061,-0.978433
1759776704.625980,-0.088311,0.052618,-0.004946,0.994690,0.135175,0.030302,0.017367,-0.000667,-0.017190,0.002209,0.103803,0.176204,-0.978865
1759776704.657064,-0.087017,0.052758,-0.005078,0.994796,0.119582,0.003874,-0.023745,-0.003018,-0.013725,0.005753,0.104083,0.173664,-0.979289
1759776704.662175,-0.085963,0.052685,-0.005506,0.994889,0.087597,-0.008781,-0.048975,-0.001313,-0.006817,0.004585,0.103884,0.171627,-0.979670
1759776704.716806,-0.085414,0.052436,-0.006128,0.994946,0.062208,-0.020103,-0.056243,-0.002016,-0.005070,0.004304,0.103295,0.170607,-0.979910
1759776704.717039,-0.084865,0.052187,-0.006750,0.995002,0.036819,-0.031424,-0.063510,-0.002720,-0.003322,0.004022,0.102708,0.169587,-0.980149
1759776704.721182,-0.084488,0.051785,-0.007363,0.995051,0.030675,-0.042494,-0.058979,-0.002905,-0.001383,0.001980,0.101814,0.168902,-0.980360
1759776704.750325,-0.084155,0.051270,-0.007930,0.995101,0.032717,-0.054744,-0.053515,-0.003873,0.002156,0.001517,0.100704,0.168298,-0.980579
1759776704.780087,-0.083858,0.050688,-0.008358,0.995153,0.026166,-0.057163,-0.033488,-0.003025,0.008061,0.002040,0.099484,0.167751,-0.980797
1759776704.781235,-0.083641,0.050095,-0.008550,0.995199,0.016861,-0.060127,-0.010776,-0.001718,0.009316,0.000614,0.098279,0.167336,-0.980989
1759776704.812332,-0.083472,0.049465,-0.008482,0.995245,0.017535,-0.063958,0.011923,-0.002119,0.006699,-0.000418,0.097044,0.166990,-0.981171
1759776704.842078,-0.083276,0.048870,-0.008277,0.995293,0.021666,-0.057566,0.022575,-0.000019,0.003551,-0.001579,0.095902,0.166578,-0.981354
1759776704.844245,-0.083061,0.048385,-0.007960,0.995337,0.026985,-0.047120,0.042005,-0.000062,0.004013,-0.002365,0.094997,0.166118,-0.981519
1759776704.877930,-0.082814,0.047984,-0.007497,0.995381,0.035457,-0.046686,0.046781,-0.003380,0.000985,0.000338,0.094283,0.165582,-0.981679
1759776704.881896,-0.082485,0.047581,-0.006971,0.995431,0.038622,-0.043093,0.053245,-0.002404,-0.000841,-0.000670,0.093576,0.164879,-0.981865
1759776704.914696,-0.082097,0.047204,-0.006439,0.995485,0.045014,-0.040713,0.048574,-0.000445,-0.003764,-0.000796,0.092924,0.164060,-0.982064
1759776704.944663,-0.081611,0.046888,-0.005975,0.995543,0.053092,-0.034209,0.040111,-0.000253,-0.004469,-0.002135,0.092382,0.163054,-0.982283
1759776704.946595,-0.081059,0.046596,-0.005628,0.995604,0.060890,-0.034181,0.026358,-0.000922,-0.005731,-0.000149,0.091869,0.161930,-0.982517
1759776704.975369,-0.080481,0.046237,-0.005493,0.995668,0.062140,-0.035758,0.003791,-0.001144,-0.005538,-0.001558,0.091189,0.160773,-0.982770
1759776705.025924,-0.080010,0.045901,-0.005582,0.995721,0.047615,-0.035883,-0.005661,-0.002573,-0.001168,-0.000666,0.090517,0.159847,-0.982983
1759776705.026308,-0.079538,0.045566,-0.005671,0.995774,0.033089,-0.036007,-0.015112,-0.004002,0.003202,0.000225,0.089844,0.158921,-0.983195
1759776705.027964,-0.079262,0.045170,-0.005804,0.995813,0.014339,-0.038385,-0.019620,-0.005330,0.007010,-0.001865,0.089043,0.158384,-0.983354
1759776705.056431,-0.079202,0.044811,-0.005919,0.995833,-0.008197,-0.032395,-0.012664,-0.004961,0.009211,-0.004221,0.088312,0.158274,-0.983438
1759776705.060435,-0.079383,0.044494,-0.005953,0.995833,-0.028223,-0.025613,-0.004318,-0.004624,0.007751,-0.004369,0.087672,0.158633,-0.983437
1759776705.088901,-0.079733,0.044275,-0.005906,0.995815,-0.037394,-0.016910,0.004535,-0.004576,0.004725,-0.005104,0.087238,0.159322,-0.983365
1759776705.119552,-0.080155,0.044182,-0.005804,0.995786,-0.039716,0.004043,0.011034,-0.003914,0.003554,-0.008812,0.087060,0.160148,-0.983246
1759776705.120988,-0.080570,0.044316,-0.005631,0.995747,-0.037908,0.021344,0.019404,-0.005938,0.003794,-0.005476,0.087348,0.160955,-0.983089
1759776705.150907,-0.080973,0.044600,-0.005407,0.995703,-0.036216,0.034442,0.028441,-0.006194,0.002879,-0.003053,0.087940,0.161732,-0.982909
1759776705.180166,-0.081310,0.044993,-0.005132,0.995660,-0.029036,0.043011,0.027156,-0.003999,-0.000718,-0.001453,0.088761,0.162376,-0.982729
1759776705.182206,-0.081541,0.045452,-0.004905,0.995621,-0.017238,0.049633,0.022336,-0.002700,-0.003642,-0.001785,0.089705,0.162815,-0.982570
1759776705.211461,-0.081663,0.045958,-0.004758,0.995588,-0.006288,0.057162,0.016171,-0.000873,-0.005363,-0.003273,0.090734,0.163043,-0.982438
1759776705.248667,-0.081682,0.046532,-0.004684,0.995561,0.003671,0.062876,0.008644,-0.001210,-0.006154,-0.000616,0.091887,0.163074,-0.982326
1759776705.250722,-0.081614,0.047111,-0.004711,0.995539,0.009187,0.061022,-0.002880,0.000462,-0.006708,-0.000310,0.093034,0.162945,-0.982239
1759776705.283511,-0.081488,0.047689,-0.004870,0.995521,0.013210,0.057251,-0.016185,0.000260,-0.005425,0.001552,0.094157,0.162710,-0.982171
1759776705.283837,-0.081345,0.048202,-0.005141,0.995506,0.012213,0.053261,-0.023960,0.000850,-0.005486,0.000564,0.095135,0.162455,-0.982119
1759776705.316505,-0.081178,0.048650,-0.005473,0.995497,0.014840,0.043972,-0.032807,0.001984,-0.004990,-0.000548,0.095974,0.162158,-0.982086
1759776705.317559,-0.081010,0.049063,-0.005874,0.995488,0.015271,0.049064,-0.034943,0.003335,-0.002611,-0.001799,0.096732,0.161866,-0.982060
1759776705.373766,-0.080800,0.049391,-0.006231,0.995486,0.018074,0.034959,-0.033354,0.001720,-0.001797,0.001053,0.097329,0.161486,-0.982064
1759776705.374084,-0.080590,0.049719,-0.006588,0.995485,0.020877,0.020854,-0.031766,0.000104,-0.000985,0.003904,0.097927,0.161107,-0.982067
1759776705.402781,-0.080376,0.049862,-0.006906,0.995493,0.017278,0.010530,-0.024530,0.001073,-0.000774,0.001886,0.098163,0.160716,-0.982107
1759776705.404686,-0.080206,0.049966,-0.007174,0.995499,0.014450,0.012151,-0.022641,0.003653,-0.003035,-0.002487,0.098332,0.160407,-0.982141
1759776705.436755,-0.080072,0.050150,-0.007399,0.995499,0.011036,0.025066,-0.019604,0.003892,-0.003312,-0.008121,0.098664,0.160165,-0.982147
1759776705.439748,-0.080003,0.050431,-0.007605,0.995489,0.004856,0.034731,-0.010515,0.001976,-0.002763,-0.007771,0.099191,0.160051,-0.982112
1759776705.475591,-0.079971,0.050798,-0.007748,0.995472,0.003947,0.035069,-0.010821,-0.001043,-0.003856,-0.004331,0.099897,0.160005,-0.982048
1759776705.479671,-0.079932,0.051172,-0.007898,0.995455,-0.000093,0.038080,-0.011657,-0.001282,-0.002633,-0.002355,0.100616,0.159947,-0.981984
1759776705.520992,-0.079924,0.051573,-0.008060,0.995433,-0.005088,0.039646,-0.013323,-0.002508,-0.002554,0.000732,0.101387,0.159949,-0.981905
1759776705.523033,-0.079975,0.051956,-0.008235,0.995408,-0.006843,0.037711,-0.014646,-0.004088,-0.002994,0.000347,0.102118,0.160070,-0.981809
1759776705.554164,-0.080005,0.052303,-0.008417,0.995386,-0.005371,0.031994,-0.017018,-0.005369,-0.000919,0.001168,0.102776,0.160153,-0.981727
1759776705.583663,-0.080056,0.052581,-0.008588,0.995366,-0.009934,0.027107,-0.013149,-0.004786,0.001257,0.000837,0.103300,0.160272,-0.981653
1759776705.583989,-0.080165,0.052808,-0.008705,0.995344,-0.016743,0.023289,-0.007353,-0.003038,0.003360,-0.002323,0.103728,0.160503,-0.981570
1759776705.617272,-0.080336,0.053045,-0.008753,0.995317,-0.017152,0.019967,-0.001990,-0.001663,0.001559,0.001338,0.104187,0.160848,-0.981465
1759776705.619235,-0.080494,0.053176,-0.008792,0.995297,-0.012029,0.008453,-0.001566,-0.003172,0.000656,0.000996,0.104436,0.161165,-0.981386
1759776705.647826,-0.080599,0.053233,-0.008829,0.995285,-0.005804,0.010506,-0.004318,0.000115,0.000209,-0.001347,0.104541,0.161378,-0.981340
1759776705.679124,-0.080649,0.053276,-0.008879,0.995278,-0.002414,0.006970,-0.004363,0.000615,0.001986,-0.000181,0.104617,0.161482,-0.981315
1759776705.680893,-0.080702,0.053379,-0.008902,0.995268,-0.003284,0.007898,-0.000041,0.000654,0.003219,0.002274,0.104816,0.161591,-0.981276
1759776705.710490,-0.080721,0.053388,-0.008910,0.995266,-0.001742,-0.002384,-0.002197,-0.000172,0.002772,0.002838,0.104831,0.161628,-0.981268
1759776705.740531,-0.080739,0.053343,-0.008934,0.995267,-0.002317,-0.003834,-0.004255,0.000486,0.002248,0.000028,0.104738,0.161666,-0.981272
1759776705.744504,-0.080780,0.053333,-0.008988,0.995263,-0.004081,0.001934,-0.004875,0.002006,0.002032,-0.001379,0.104708,0.161753,-0.981260
1759776705.776059,-0.080841,0.053348,-0.009066,0.995257,-0.003684,0.001482,-0.010472,0.001815,0.001798,-0.000885,0.104724,0.161882,-0.981238
1759776705.805109,-0.080925,0.053344,-0.009208,0.995249,-0.004986,-0.006639,-0.012671,0.002568,0.005206,0.001300,0.104691,0.162063,-0.981211
1759776705.807056,-0.081042,0.053277,-0.009295,0.995242,-0.010896,-0.008298,0.000074,0.004772,0.008967,0.002801,0.104540,0.162303,-0.981188
1759776705.836413,-0.081153,0.053150,-0.009245,0.995241,-0.008006,-0.023465,0.009428,0.004918,0.007854,0.006289,0.104294,0.162516,-0.981179
1759776705.837688,-0.081192,0.052809,-0.009099,0.995257,0.004022,-0.046987,0.015877,0.007194,0.005377,0.008602,0.103640,0.162574,-0.981238
1759776705.874130,-0.081101,0.052258,-0.008858,0.995296,0.020539,-0.071700,0.021900,0.007395,0.005014,0.008203,0.102587,0.162364,-0.981384
1759776705.917102,-0.080818,0.051447,-0.008461,0.995364,0.030211,-0.082710,0.033294,0.006584,0.004674,0.005917,0.101049,0.161757,-0.981643
1759776705.917390,-0.080535,0.050636,-0.008063,0.995432,0.039883,-0.093719,0.044689,0.005774,0.004332,0.003628,0.099511,0.161151,-0.981900
1759776705.919173,-0.080150,0.049792,-0.007517,0.995510,0.046454,-0.096608,0.052199,0.004726,0.001450,0.001475,0.097932,0.160328,-0.982194
1759776705.947594,-0.079707,0.048974,-0.006946,0.995590,0.050522,-0.092285,0.051160,0.002417,-0.000826,-0.001292,0.096409,0.159392,-0.982497
1759776705.978566,-0.079246,0.048229,-0.006424,0.995667,0.050662,-0.079725,0.045034,0.001058,-0.004195,-0.004842,0.095022,0.158425,-0.982788
1759776705.980451,-0.078801,0.047600,-0.006005,0.995735,0.048452,-0.064348,0.032605,-0.000165,-0.005373,-0.005605,0.093848,0.157502,-0.983049
1759776706.009090,-0.078364,0.047092,-0.005712,0.995796,0.045202,-0.050352,0.020146,-0.002260,-0.007041,-0.006106,0.092892,0.156606,-0.983283
1759776706.039638,-0.077930,0.046704,-0.005555,0.995849,0.039818,-0.037220,0.009897,-0.003821,-0.006639,-0.007298,0.092155,0.155731,-0.983491
1759776706.042365,-0.077545,0.046441,-0.005476,0.995892,0.034291,-0.022125,0.007984,-0.004857,-0.004628,-0.005466,0.091651,0.154961,-0.983660
1759776706.072178,-0.077194,0.046293,-0.005408,0.995926,0.028216,-0.012933,0.006465,-0.005958,-0.004436,-0.005612,0.091374,0.154259,-0.983796
1759776706.079100,-0.076905,0.046205,-0.005377,0.995953,0.024278,-0.003511,0.003683,-0.005519,-0.005085,-0.005085,0.091209,0.153684,-0.983901
1759776706.108921,-0.076656,0.046190,-0.005373,0.995973,0.014357,0.009152,0.003315,-0.004899,-0.005063,-0.006888,0.091185,0.153191,-0.983981
1759776706.137706,-0.076496,0.046250,-0.005377,0.995982,0.008729,0.007943,-0.000078,-0.008396,-0.005970,-0.001930,0.091305,0.152874,-0.984019
1759776706.149399,-0.076387,0.046264,-0.005417,0.995990,0.003407,0.002405,-0.000843,-0.007547,-0.005368,-0.000441,0.091329,0.152663,-0.984049
1759776706.177680,-0.076329,0.046266,-0.005445,0.995994,0.000811,0.002896,-0.000525,-0.005943,-0.006838,-0.003303,0.091330,0.152550,-0.984067
1759776706.179782,-0.076301,0.046320,-0.005505,0.995993,0.002224,0.014430,-0.007253,-0.003544,-0.008882,-0.006624,0.091429,0.152500,-0.984065
1759776706.217231,-0.076240,0.046493,-0.005632,0.995989,0.000011,0.031327,-0.013518,-0.002858,-0.008745,-0.008059,0.091754,0.152393,-0.984052
1759776706.218865,-0.076288,0.046787,-0.005779,0.995971,-0.014568,0.040100,-0.012392,-0.004770,-0.004482,-0.005840,0.092316,0.152503,-0.983982
1759776706.249272,-0.076463,0.047125,-0.005954,0.995940,-0.027324,0.036345,-0.015144,-0.005470,-0.004536,-0.001496,0.092957,0.152867,-0.983865
1759776706.280321,-0.076705,0.047422,-0.006137,0.995906,-0.035762,0.034200,-0.020083,-0.003560,-0.003103,-0.002423,0.093514,0.153365,-0.983735
1759776706.281122,-0.077028,0.047706,-0.006331,0.995867,-0.039922,0.031848,-0.020427,-0.002141,-0.003186,-0.000561,0.094043,0.154023,-0.983582
1759776706.312330,-0.077393,0.047952,-0.006517,0.995826,-0.038053,0.023596,-0.018816,-0.002764,-0.003701,0.002550,0.094494,0.154765,-0.983422
1759776706.318387,-0.077698,0.048037,-0.006711,0.995796,-0.027519,0.004758,-0.017580,-0.003035,-0.004341,0.006759,0.094627,0.155388,-0.983311
1759776706.372439,-0.077808,0.047899,-0.006826,0.995794,-0.019544,-0.004462,-0.011482,-0.001283,-0.001537,0.002931,0.094333,0.155615,-0.983303
1759776706.372744,-0.077918,0.047761,-0.006940,0.995791,-0.011569,-0.013681,-0.005383,0.000469,0.001268,-0.000897,0.094039,0.155842,-0.983295
1759776706.379240,-0.078021,0.047594,-0.006954,0.995791,-0.011423,-0.024265,0.001150,-0.001037,0.001787,0.001934,0.093703,0.156048,-0.983295
1759776706.409187,-0.078183,0.047304,-0.006897,0.995792,-0.018052,-0.038580,0.008300,-0.002419,0.002697,0.001626,0.093131,0.156360,-0.983300
1759776706.439957,-0.078357,0.046906,-0.006775,0.995798,-0.022986,-0.036382,0.010373,0.000771,0.002258,-0.003403,0.092356,0.156691,-0.983320
1759776706.440336,-0.078623,0.046595,-0.006566,0.995793,-0.031273,-0.032532,0.024526,0.001088,0.002396,-0.002990,0.091766,0.157197,-0.983294
1759776706.472397,-0.078949,0.046369,-0.006252,0.995780,-0.032814,-0.027155,0.027596,-0.000397,0.000325,-0.001265,0.091359,0.157811,-0.983234
1759776706.479162,-0.079265,0.046113,-0.005956,0.995769,-0.029511,-0.029902,0.026228,-0.001443,-0.001664,-0.000175,0.090892,0.158408,-0.983181
1759776706.520846,-0.079566,0.045880,-0.005681,0.995757,-0.026436,-0.024452,0.020517,-0.000421,-0.003359,-0.002473,0.090467,0.158979,-0.983128
1759776706.522797,-0.079823,0.045730,-0.005479,0.995744,-0.023566,-0.014868,0.015608,-0.000303,-0.002148,-0.001796,0.090196,0.159468,-0.983074
1759776706.553768,-0.080071,0.045642,-0.005282,0.995730,-0.026628,-0.006183,0.017949,-0.000059,-0.001296,-0.001949,0.090047,0.159941,-0.983011
1759776706.557521,-0.080295,0.045617,-0.005054,0.995714,-0.029569,-0.001342,0.024522,0.000770,0.001023,-0.002424,0.090031,0.160363,-0.982944
1759776706.587468,-0.080572,0.045686,-0.004728,0.995690,-0.035084,0.003769,0.036546,0.000893,0.001539,-0.002190,0.090216,0.160882,-0.982842
1759776706.616436,-0.080905,0.045789,-0.004313,0.995660,-0.042466,0.009277,0.048816,0.001632,0.001509,-0.002842,0.090482,0.161502,-0.982716
1759776706.618435,-0.081281,0.046001,-0.003817,0.995622,-0.043396,0.024220,0.052336,0.003550,-0.002186,-0.004814,0.090979,0.162202,-0.982554
1759776706.647884,-0.081615,0.046353,-0.003358,0.995580,-0.028049,0.029231,0.043185,0.001914,-0.004169,-0.000296,0.091749,0.162819,-0.982381
1759776706.679231,-0.081823,0.046651,-0.002977,0.995550,-0.016771,0.026666,0.029486,-0.000384,-0.006172,0.001242,0.092400,0.163195,-0.982257
1759776706.680126,-0.081920,0.046935,-0.002799,0.995529,-0.007338,0.019486,0.012351,-0.001842,-0.004042,0.003329,0.092991,0.163371,-0.982172
1759776706.711157,-0.081937,0.047113,-0.002760,0.995520,-0.004655,0.008930,0.003461,-0.002164,-0.001500,0.002339,0.093351,0.163399,-0.982134
1759776706.740448,-0.081968,0.047243,-0.002769,0.995511,-0.013575,0.010038,0.000035,-0.000197,0.004651,-0.000147,0.093607,0.163462,-0.982099
1759776706.742118,-0.082112,0.047295,-0.002753,0.995497,-0.023471,0.004475,0.002385,-0.001096,0.004815,0.000505,0.093713,0.163744,-0.982042
1759776706.771518,-0.082375,0.047283,-0.002770,0.995475,-0.032055,-0.005076,-0.005813,-0.000413,0.001815,0.000191,0.093681,0.164267,-0.981957
1759776706.779278,-0.082690,0.047218,-0.002810,0.995452,-0.035987,-0.003915,-0.003142,0.000807,0.000364,-0.002384,0.093542,0.164893,-0.981866
1759776706.819632,-0.083113,0.047266,-0.002798,0.995415,-0.046476,0.007709,0.003793,0.001825,0.002360,-0.001645,0.093634,0.165728,-0.981716
1759776706.821704,-0.083661,0.047373,-0.002613,0.995364,-0.055680,0.009250,0.024122,0.002255,0.003088,0.002144,0.093870,0.166794,-0.981513
1759776706.850295,-0.084239,0.047487,-0.002279,0.995311,-0.061996,0.014433,0.034574,0.001055,0.002448,0.002084,0.094145,0.167905,-0.981297
1759776706.858060,-0.084875,0.047642,-0.001912,0.995250,-0.073610,0.009405,0.033013,-0.000073,0.000606,0.002916,0.094507,0.169126,-0.981053
1759776706.886335,-0.085652,0.047777,-0.001598,0.995178,-0.088439,0.014711,0.023420,0.000500,0.000053,-0.002348,0.094819,0.170630,-0.980762
1759776706.916978,-0.086543,0.047928,-0.001351,0.995094,-0.093796,0.005623,0.020431,-0.000294,-0.001197,-0.000440,0.095151,0.172366,-0.980427
1759776706.919174,-0.087463,0.047968,-0.001127,0.995012,-0.092314,-0.006243,0.013218,-0.001967,-0.005794,0.000262,0.095260,0.174161,-0.980099
1759776706.947990,-0.088298,0.047795,-0.000972,0.994946,-0.077718,-0.027269,0.003813,-0.002105,-0.006272,0.000092,0.094935,0.175797,-0.979838
1759776706.978537,-0.088960,0.047492,-0.000924,0.994902,-0.059323,-0.028287,-0.008618,-0.000047,-0.005305,-0.002361,0.094336,0.177101,-0.979661
1759776706.980516,-0.089521,0.047180,-0.000894,0.994866,-0.064617,-0.023741,0.005120,0.002142,0.001496,-0.002921,0.093715,0.178207,-0.979520
1759776707.008972,-0.090159,0.047000,-0.000707,0.994818,-0.075029,-0.014638,0.020033,0.001227,0.002712,-0.003326,0.093385,0.179449,-0.979325
1759776707.055890,-0.090782,0.046845,-0.000490,0.994768,-0.067037,-0.017163,0.011024,0.000261,0.000970,-0.002888,0.093111,0.180659,-0.979129
1759776707.056197,-0.091404,0.046690,-0.000273,0.994719,-0.059045,-0.019687,0.002014,-0.000705,-0.000771,-0.002451,0.092837,0.181869,-0.978931
1759776707.058417,-0.092006,0.046566,-0.000171,0.994669,-0.056581,-0.015818,0.002898,-0.001242,0.002374,-0.001617,0.092605,0.183046,-0.978733
1759776707.120819,-0.092457,0.046447,-0.000097,0.994633,-0.043042,-0.013044,0.002262,-0.002304,0.002246,0.000103,0.092378,0.183930,-0.978589
1759776707.121141,-0.092908,0.046328,-0.000024,0.994596,-0.029503,-0.010270,0.001627,-0.003366,0.002118,0.001822,0.092151,0.184814,-0.978444
1759776707.121434,-0.093129,0.046173,0.000010,0.994583,-0.014214,-0.013679,0.002319,-0.003532,0.005737,0.000497,0.091848,0.185248,-0.978390
1759776707.148948,-0.093235,0.046085,0.000050,0.994577,-0.009070,-0.005441,0.007434,-0.004290,0.007741,-0.002368,0.091679,0.185453,-0.978367
1759776707.179592,-0.093292,0.046065,0.000140,0.994573,-0.002719,-0.001183,0.008993,-0.004117,0.005029,-0.000905,0.091656,0.185558,-0.978349
1759776707.181615,-0.093280,0.046070,0.000183,0.994573,0.007995,-0.000598,0.005483,-0.005208,0.002568,-0.000485,0.091674,0.185532,-0.978353
1759776707.210199,-0.093177,0.046098,0.000167,0.994582,0.016841,0.011099,-0.002792,-0.001467,0.002667,-0.002911,0.091727,0.185328,-0.978386
1759776707.216837,-0.093050,0.046214,0.000127,0.994588,0.017369,0.017999,-0.000841,-0.000730,0.002900,-0.003872,0.091951,0.185081,-0.978412
1759776707.251188,-0.092940,0.046444,0.000090,0.994588,0.014298,0.023413,0.001014,-0.002626,0.001812,-0.001767,0.092401,0.184865,-0.978410
1759776707.259194,-0.092789,0.046655,0.000041,0.994592,0.018532,0.017891,-0.004405,-0.004060,0.000264,0.001185,0.092814,0.184571,-0.978427
1759776707.289592,-0.092609,0.046790,-0.000036,0.994603,0.018413,0.015538,-0.005629,-0.001942,0.000739,0.000757,0.093068,0.184222,-0.978468
1759776707.298937,-0.092429,0.046927,-0.000098,0.994613,0.017678,0.013992,-0.003397,-0.001596,0.000567,-0.001713,0.093331,0.183872,-0.978509
1759776707.329233,-0.092275,0.047082,-0.000153,0.994620,0.014140,0.016443,-0.001446,-0.000555,0.000197,-0.000596,0.093630,0.183572,-0.978537
1759776707.363550,-0.092146,0.047246,-0.000194,0.994624,0.009598,0.018405,-0.003156,-0.000056,0.000024,-0.001097,0.093949,0.183320,-0.978554
1759776707.364774,-0.092042,0.047398,-0.000252,0.994626,0.008917,0.016884,-0.005332,0.001775,-0.000591,-0.000074,0.094241,0.183119,-0.978563
1759776707.417415,-0.091970,0.047576,-0.000404,0.994625,0.009045,0.016484,-0.012395,0.001759,-0.000299,0.000889,0.094565,0.182989,-0.978556
1759776707.417700,-0.091897,0.047753,-0.000556,0.994623,0.009173,0.016084,-0.019457,0.001742,-0.000006,0.001853,0.094890,0.182859,-0.978549
1759776707.419201,-0.091799,0.047869,-0.000743,0.994626,0.009647,0.011967,-0.016106,0.001135,0.000295,0.002082,0.095087,0.182682,-0.978563
1759776707.447739,-0.091686,0.047942,-0.000903,0.994633,0.011367,0.008114,-0.012753,0.001353,0.001216,0.001264,0.095204,0.182474,-0.978590
1759776707.456747,-0.091562,0.047979,-0.001015,0.994642,0.013070,-0.003187,-0.005400,0.000911,0.003141,0.003132,0.095257,0.182241,-0.978629
1759776707.486985,-0.091435,0.047953,-0.001082,0.994655,0.012592,-0.005726,-0.002196,0.000384,0.001521,0.001514,0.095195,0.181996,-0.978680
1759776707.517117,-0.091327,0.047899,-0.001094,0.994668,0.013694,-0.010866,-0.000700,0.000055,0.000058,0.000060,0.095087,0.181785,-0.978730
1759776707.517429,-0.091205,0.047792,-0.001100,0.994684,0.014345,-0.012697,-0.002001,0.000335,-0.001051,0.000122,0.094875,0.181546,-0.978795
1759776707.545076,-0.091096,0.047652,-0.001128,0.994701,0.010696,-0.015894,-0.001047,-0.001026,0.000510,0.000288,0.094593,0.181333,-0.978862
1759776707.584008,-0.091017,0.047466,-0.001135,0.994717,0.005439,-0.020472,-0.000239,-0.000661,0.001246,-0.000006,0.094223,0.181180,-0.978926
1759776707.585898,-0.090992,0.047233,-0.001093,0.994730,0.001469,-0.022246,0.004369,-0.000830,0.000619,-0.000106,0.093770,0.181128,-0.978979
1759776707.615130,-0.090962,0.047010,-0.001036,0.994744,0.003657,-0.024981,0.005619,-0.001649,-0.000307,-0.001155,0.093338,0.181066,-0.979032
1759776707.616277,-0.090921,0.046777,-0.000961,0.994758,0.003692,-0.019815,0.005625,-0.000406,-0.000147,-0.001294,0.092890,0.180978,-0.979091
1759776707.647389,-0.090886,0.046554,-0.000893,0.994772,0.001818,-0.022356,0.008362,-0.001131,0.001746,0.000737,0.092460,0.180905,-0.979145
1759776707.655334,-0.090902,0.046344,-0.000785,0.994781,-0.003486,-0.017719,0.006396,-0.000270,0.001521,-0.002607,0.092062,0.180928,-0.979178
1759776707.683874,-0.090947,0.046184,-0.000745,0.994784,-0.003671,-0.015723,-0.002503,-0.002010,0.000651,-0.001627,0.091750,0.181014,-0.979191
1759776707.717833,-0.090992,0.045988,-0.000791,0.994789,-0.006067,-0.015266,-0.008598,-0.001480,0.003431,-0.001760,0.091353,0.181107,-0.979211
1759776707.720461,-0.091112,0.045808,-0.000823,0.994786,-0.009904,-0.020984,-0.004158,-0.003145,0.005934,-0.000278,0.090989,0.181350,-0.979200
1759776707.750582,-0.091230,0.045635,-0.000811,0.994783,-0.008174,-0.012034,0.000989,-0.001612,0.002617,-0.003526,0.090647,0.181582,-0.979189
1759776707.754416,-0.091284,0.045583,-0.000794,0.994781,0.002306,0.007282,0.001469,0.000653,-0.000526,-0.006574,0.090545,0.181688,-0.979179
1759776707.782619,-0.091227,0.045741,-0.000772,0.994779,0.010703,0.020744,0.002981,-0.000373,0.001509,-0.003711,0.090864,0.181573,-0.979171
1759776707.813416,-0.091135,0.045967,-0.000748,0.994777,0.014806,0.025603,0.004608,-0.001208,0.001835,-0.000473,0.091318,0.181387,-0.979163
1759776707.814602,-0.090965,0.046202,-0.000780,0.994781,0.020093,0.021885,-0.003520,-0.002291,-0.000267,0.001028,0.091780,0.181053,-0.979181
1759776707.845107,-0.090729,0.046381,-0.000924,0.994795,0.022515,0.013515,-0.016143,-0.002742,0.000586,0.000938,0.092112,0.180599,-0.979234
1759776707.874208,-0.090528,0.046485,-0.001153,0.994808,0.020135,0.013890,-0.020801,-0.002040,0.001074,0.000551,0.092279,0.180223,-0.979288
1759776707.875883,-0.090372,0.046572,-0.001380,0.994818,0.015917,0.010177,-0.017833,-0.002780,-0.000943,0.001825,0.092411,0.179935,-0.979328
1759776707.905244,-0.090229,0.046601,-0.001578,0.994829,0.014170,0.002157,-0.019493,-0.003460,0.000068,-0.000321,0.092436,0.179673,-0.979374
1759776707.935866,-0.090143,0.046532,-0.001774,0.994840,0.003162,-0.008882,-0.017354,-0.003664,0.003885,-0.002611,0.092264,0.179521,-0.979418
1759776707.937248,-0.090252,0.046461,-0.001880,0.994833,-0.017882,-0.001490,-0.001639,-0.001694,0.001896,-0.000452,0.092102,0.179746,-0.979392
1759776707.967408,-0.090460,0.046405,-0.001862,0.994817,-0.025877,0.000292,0.002118,-0.003923,-0.003294,-0.000468,0.091992,0.180154,-0.979327
1759776707.974158,-0.090716,0.046339,-0.001831,0.994796,-0.020608,-0.001730,-0.005051,-0.001184,-0.007056,-0.003702,0.091863,0.180657,-0.979247
1759776708.031278,-0.090922,0.046385,-0.001987,0.994775,-0.021505,0.008059,-0.010595,-0.002337,-0.004514,-0.003280,0.091924,0.181077,-0.979163
1759776708.031507,-0.091127,0.046432,-0.002142,0.994754,-0.022401,0.017849,-0.016139,-0.003489,-0.001973,-0.002858,0.091986,0.181498,-0.979080
1759776708.033013,-0.091317,0.046520,-0.002349,0.994732,-0.017671,0.008081,-0.021294,-0.005997,-0.001487,0.000840,0.092121,0.181891,-0.978994
1759776708.063123,-0.091458,0.046529,-0.002598,0.994718,-0.016007,0.001977,-0.021713,-0.005152,0.000655,0.000663,0.092091,0.182191,-0.978941
1759776708.092543,-0.091571,0.046519,-0.002806,0.994707,-0.013458,0.002474,-0.020670,-0.003725,-0.001610,-0.003451,0.092032,0.182435,-0.978901
1759776708.093768,-0.091647,0.046560,-0.002992,0.994698,-0.006866,0.007793,-0.018742,-0.003171,-0.002851,-0.002215,0.092078,0.182602,-0.978866
1759776708.124674,-0.091644,0.046621,-0.003188,0.994695,0.004557,0.009306,-0.013772,-0.002045,-0.001513,0.000176,0.092163,0.182612,-0.978856
1759776708.153896,-0.091564,0.046665,-0.003321,0.994700,0.013654,0.011958,-0.015434,-0.000811,-0.002937,0.000636,0.092227,0.182467,-0.978877
1759776708.155784,-0.091342,0.046698,-0.003497,0.994718,0.023394,0.005304,-0.011541,-0.000309,-0.000345,0.001625,0.092265,0.182045,-0.978952
1759776708.185088,-0.091042,0.046741,-0.003673,0.994743,0.029114,0.006473,-0.012070,0.002035,0.001746,0.000226,0.092322,0.181471,-0.979053
1759776708.216157,-0.090736,0.046811,-0.003795,0.994767,0.028883,0.011562,-0.008821,0.003405,0.000094,0.000026,0.092442,0.180877,-0.979152
1759776708.217988,-0.090438,0.046921,-0.003874,0.994789,0.029809,0.012736,-0.005715,0.004646,-0.001702,0.001147,0.092652,0.180296,-0.979239
1759776708.252424,-0.090131,0.047010,-0.003967,0.994812,0.030654,0.005691,-0.005330,0.001970,-0.002247,0.002000,0.092817,0.179700,-0.979333
1759776708.254820,-0.089811,0.047026,-0.004020,0.994840,0.033767,-0.004552,-0.003379,0.001940,-0.004207,0.002952,0.092844,0.179073,-0.979445
1759776708.336573,-0.089505,0.046970,-0.004046,0.994870,0.028874,-0.004464,-0.001964,0.002619,-0.005311,0.000956,0.092735,0.178472,-0.979565
1759776708.336920,-0.089199,0.046915,-0.004071,0.994900,0.023981,-0.004376,-0.000548,0.003299,-0.006415,-0.001041,0.092625,0.177870,-0.979685
1759776708.337200,-0.088893,0.046860,-0.004097,0.994930,0.019088,-0.004289,0.000867,0.003978,-0.007518,-0.003037,0.092516,0.177269,-0.979804
1759776708.339498,-0.088713,0.046801,-0.004136,0.994949,0.011589,-0.003263,-0.004697,0.004826,-0.008055,-0.003503,0.092396,0.176917,-0.979879
1759776708.369783,-0.088621,0.046787,-0.004206,0.994957,0.002334,-0.006839,-0.007193,0.002076,-0.007732,-0.002621,0.092357,0.176742,-0.979914
1759776708.371728,-0.088621,0.046716,-0.004306,0.994960,-0.006202,-0.010060,-0.012706,0.002188,-0.006378,-0.000792,0.092198,0.176750,-0.979928
1759776708.400108,-0.088699,0.046619,-0.004412,0.994957,-0.015348,-0.015007,-0.009088,0.001960,-0.004340,0.000108,0.091985,0.176914,-0.979918
1759776708.430791,-0.088856,0.046516,-0.004446,0.994948,-0.022400,-0.017023,-0.000677,0.003208,-0.004201,0.000587,0.091772,0.177228,-0.979882
1759776708.442782,-0.089013,0.046384,-0.004432,0.994940,-0.020885,-0.012473,-0.000035,0.001848,-0.005161,0.000006,0.091509,0.177536,-0.979850
1759776708.474813,-0.089147,0.046249,-0.004448,0.994934,-0.015461,-0.013902,-0.008029,0.000256,-0.003973,-0.003442,0.091237,0.177802,-0.979828
1759776708.476749,-0.089244,0.046172,-0.004462,0.994929,-0.011774,-0.007676,-0.001167,-0.000754,-0.001878,-0.002054,0.091079,0.177994,-0.979808
1759776708.505238,-0.089330,0.046055,-0.004445,0.994927,-0.009803,-0.017845,-0.001556,-0.003985,-0.000313,-0.000145,0.090849,0.178164,-0.979798
1759776708.512823,-0.089403,0.045839,-0.004417,0.994930,-0.007015,-0.026689,-0.000004,-0.002185,-0.001838,0.002923,0.090423,0.178305,-0.979812
1759776708.542062,-0.089419,0.045604,-0.004389,0.994940,-0.002603,-0.018707,-0.000553,-0.000390,-0.002153,-0.003658,0.089962,0.178334,-0.979849
1759776708.570139,-0.089388,0.045498,-0.004340,0.994948,0.002119,-0.004980,0.001296,0.000185,-0.001738,-0.004966,0.089760,0.178267,-0.979880
1759776708.572103,-0.089355,0.045496,-0.004328,0.994951,-0.001793,0.007925,0.005644,-0.000384,0.002864,-0.005658,0.089759,0.178202,-0.979892
1759776708.618555,-0.089433,0.045590,-0.004238,0.994940,-0.012587,0.011480,0.010434,-0.004305,0.003240,-0.003317,0.089962,0.178347,-0.979847
1759776708.618815,-0.089571,0.045708,-0.004166,0.994922,-0.015334,0.004939,0.004967,-0.002967,0.000408,-0.000123,0.090205,0.178614,-0.979776
1759776708.648438,-0.089758,0.045752,-0.004154,0.994903,-0.020180,0.006689,-0.001410,-0.001937,-0.000577,0.000851,0.090293,0.178981,-0.979701
1759776708.652028,-0.089964,0.045801,-0.004200,0.994882,-0.019854,0.004486,-0.008897,-0.002065,-0.002309,0.000609,0.090378,0.179391,-0.979618
1759776708.680264,-0.090158,0.045827,-0.004321,0.994863,-0.014754,0.006506,-0.008193,-0.002407,-0.002670,0.002551,0.090404,0.179786,-0.979543
1759776708.711005,-0.090277,0.045817,-0.004406,0.994852,-0.007893,-0.003381,-0.006641,-0.002964,0.000073,0.002336,0.090368,0.180028,-0.979502
1759776708.713055,-0.090394,0.045725,-0.004479,0.994846,-0.013253,-0.008970,-0.006151,-0.003113,0.003489,-0.001470,0.090170,0.180266,-0.979476
1759776708.741781,-0.090606,0.045676,-0.004472,0.994829,-0.029708,-0.003277,0.005797,-0.002856,0.004819,0.001178,0.090069,0.180683,-0.979409
1759776708.772187,-0.090920,0.045566,-0.004366,0.994806,-0.037239,-0.011501,0.008900,-0.004128,0.002379,-0.000272,0.089864,0.181293,-0.979315
1759776708.773480,-0.091250,0.045348,-0.004231,0.994786,-0.031721,-0.020447,0.007037,-0.000343,0.001996,-0.001586,0.089451,0.181932,-0.979234
1759776708.807478,-0.091578,0.045169,-0.004149,0.994764,-0.031439,-0.011546,0.007903,0.000633,0.001897,-0.001926,0.089104,0.182572,-0.979147
1759776708.808647,-0.091927,0.045147,-0.004012,0.994734,-0.032823,0.002070,0.011507,-0.000890,0.000837,-0.002755,0.089082,0.183248,-0.979022
