timestamp,quat_x,quat_y,quat_z,quat_w,rot_x,rot_y,rot_z,acc_x,acc_y,acc_z,grav_x,grav_y,grav_z,pitch_rad
1762016262.058058,0.13343,-1.8e-05,-0.0,0.991058,-0.001106,-0.001797,0.003352,0.000279,0.002417,0.003102,-3.6e-05,-0.264473,-0.964393,3.6000003113244404e-05
1762016262.094005,0.133436,-4.5e-05,2e-06,0.991057,0.002774,-0.003983,0.000963,0.000166,0.001437,0.001844,-9e-05,-0.264486,-0.964389,9.000004531876922e-05
1762016262.094309,0.133443,-7.3e-05,3e-06,0.991056,0.006654,-0.006169,-0.001426,5.3e-05,0.000457,0.000586,-0.000145,-0.264499,-0.964386,0.0001449999933290096
1762016262.125531,0.133135,-2.7e-05,-6.7e-05,0.991098,0.014662,-0.00841,-0.007928,0.000358,-0.001992,-0.001647,-3.7e-05,-0.263899,-0.96455,3.70000113661524e-05
1762016262.125929,0.132215,0.00032,-0.000213,0.991221,0.022975,-0.009209,-0.008508,-0.000416,-0.00272,-0.002678,0.00069,-0.262108,-0.965038,-0.0006900002544348859
1762016262.159167,0.132789,7.9e-05,-0.000306,0.991144,0.019468,0.000924,-0.002848,-0.000395,-0.0017,-0.003937,0.000237,-0.263226,-0.964734,-0.00023700004084956759
1762016262.190008,0.133113,8.5e-05,-0.000278,0.991101,0.021023,0.002898,0.002912,-0.000463,-0.001831,-0.002507,0.000243,-0.263856,-0.964562,-0.00024300001458656234
1762016262.190335,0.133436,9.2e-05,-0.000251,0.991057,0.022577,0.004872,0.008672,-0.000532,-0.001963,-0.001077,0.000249,-0.264486,-0.96439,-0.00024899988077515064
1762016262.228964,0.133887,9.8e-05,-4.5e-05,0.990997,0.027639,0.011637,0.011615,0.00037,-0.005224,-0.00223,0.000206,-0.265363,-0.964149,-0.00020599991304120642
1762016262.229204,0.133936,0.000214,2.5e-05,0.99099,0.028305,0.012204,0.015505,-0.000886,-0.006,0.000287,0.000417,-0.265459,-0.964122,-0.0004170000359681316
1762016262.2591,0.134246,0.000121,0.000264,0.990948,0.027784,0.001853,0.011958,3.3e-05,-0.008405,0.004896,0.000168,-0.266061,-0.963956,-0.00016800002986427595
1762016262.289881,0.134494,0.000112,0.000336,0.990914,0.023893,-0.004313,0.011936,-0.001261,-0.007166,0.005438,0.000132,-0.266545,-0.963822,-0.00013200005964259044
1762016262.290235,0.134743,0.000104,0.000409,0.99088,0.020003,-0.010479,0.011915,-0.002556,-0.005927,0.00598,9.5e-05,-0.267029,-0.963689,-9.499995337504767e-05
1762016262.325512,0.135301,-0.000122,0.000618,0.990804,0.005604,-0.013337,0.015709,-0.005413,-0.006404,0.000863,-0.00041,-0.268114,-0.963387,0.00041000005312951906
1762016262.325845,0.135534,-0.000187,0.000706,0.990772,0.000597,-0.009084,0.017211,-0.005694,-0.00889,-0.002367,-0.000562,-0.268566,-0.963261,0.0005620000952478797
1762016262.361959,0.135954,-0.000282,0.000952,0.990715,0.001899,0.003461,0.015082,-0.004293,-0.011112,-0.003769,-0.000818,-0.269383,-0.963033,0.0008179999158030126
1762016262.391701,0.136088,-0.000327,0.001025,0.990696,0.002949,0.007557,0.008681,-0.004188,-0.011693,-0.002464,-0.000927,-0.269643,-0.96296,0.0009270000547231551
1762016262.392015,0.136222,-0.000372,0.001097,0.990678,0.003999,0.011653,0.00228,-0.004084,-0.012274,-0.001159,-0.001037,-0.269903,-0.962887,0.0010370001446145594
1762016262.427798,0.136543,-0.000416,0.001013,0.990634,-0.001815,0.010727,-0.01448,-0.003048,-0.006857,0.000122,-0.001101,-0.270527,-0.962712,0.001100999966525802
1762016262.428298,0.136661,-0.000443,0.000946,0.990617,-0.00701,0.010055,-0.019106,-0.003029,-0.003246,0.00033,-0.001137,-0.270758,-0.962647,0.0011369999982837617
1762016262.459407,0.136827,-0.000496,0.000663,0.990595,-0.023743,0.007204,-0.018653,-0.001464,0.001232,-0.000999,-0.001164,-0.271079,-0.962556,0.0011640007096676583
1762016262.489576,0.136814,-0.0005,0.000556,0.990597,-0.02762,0.009477,-0.018443,-0.000615,0.001267,-0.000553,-0.001143,-0.271054,-0.962564,0.0011429996593987904
1762016262.489914,0.136801,-0.000504,0.00045,0.990598,-0.031496,0.011751,-0.018234,0.000233,0.001302,-0.000106,-0.001122,-0.271029,-0.962571,0.0011219997261547414
1762016262.520483,0.136559,-0.000446,0.000205,0.990632,-0.02222,0.007435,-0.01646,0.003038,0.004034,0.00232,-0.000939,-0.27056,-0.962703,0.0009389998274010735
1762016262.555333,0.136441,-0.000455,0.000129,0.990648,-0.019059,0.002947,-0.014069,0.003241,0.005985,0.002546,-0.000937,-0.27033,-0.962767,0.0009370003792502235
1762016262.555893,0.136322,-0.000464,5.3e-05,0.990664,-0.015897,-0.001541,-0.011677,0.003444,0.007935,0.002771,-0.000935,-0.270099,-0.962832,0.0009350002277466278
1762016262.586643,0.136036,-0.000596,-1.5e-05,0.990704,-0.015395,-0.008735,0.003003,0.003532,0.009515,-0.000483,-0.001176,-0.269543,-0.962988,0.0011759998594816242
1762016262.58714,0.135897,-0.000651,-9e-06,0.990723,-0.015038,-0.010793,0.005021,0.003622,0.007066,-0.001742,-0.001288,-0.269273,-0.963063,0.0012880003886796248
1762016262.633154,0.135645,-0.000707,0.000104,0.990757,-0.006012,-0.007906,0.012062,0.002281,0.003077,-0.003487,-0.001428,-0.268782,-0.9632,0.0014280004548326954
1762016262.633373,0.135576,-0.00072,0.000163,0.990767,-0.004044,-0.004701,0.012204,0.001591,0.002663,-0.002953,-0.001471,-0.268648,-0.963237,0.0014710009498010877
1762016262.664416,0.135327,-0.000703,0.000393,0.990801,-0.000803,-0.003062,0.015418,0.001728,0.00148,-0.002797,-0.0015,-0.268163,-0.963372,0.0015000011212867605
1762016262.670028,0.135233,-0.000658,0.000546,0.990813,0.003058,0.000549,0.005942,-0.000616,-0.001066,-0.002331,-0.001451,-0.267981,-0.963423,0.0014510006552064796
1762016262.698106,0.135205,-0.000644,0.000582,0.990817,0.004568,0.001712,0.000348,-0.000136,-0.001333,-0.003378,-0.001434,-0.267927,-0.963438,0.001434000696869501
1762016262.729186,0.135202,-0.000589,0.000571,0.990818,0.004942,0.006026,-0.004089,6.2e-05,-0.001105,-0.003392,-0.001321,-0.26792,-0.96344,0.001321000711120988
1762016262.729515,0.135198,-0.000533,0.00056,0.990818,0.005315,0.010341,-0.008527,0.00026,-0.000877,-0.003406,-0.001208,-0.267912,-0.963443,0.0012079998629913665
1762016262.76072,0.135203,-0.000313,0.000453,0.990818,0.00014,0.014524,-0.009097,-0.000217,0.000488,-0.001251,-0.000743,-0.267922,-0.96344,0.0007430002973054443
1762016262.791107,0.135224,-0.000243,0.000419,0.990815,0.001188,0.01043,-0.007533,-0.000124,0.000279,-0.000715,-0.000596,-0.267963,-0.963429,0.0005960000464222492
1762016262.791408,0.135245,-0.000174,0.000384,0.990812,0.002236,0.006335,-0.005969,-3.1e-05,7e-05,-0.000179,-0.000449,-0.268004,-0.963418,0.00044899988300396666
1762016262.821793,0.135252,-5.2e-05,0.00032,0.990811,0.000504,0.005094,-0.005227,-0.000696,0.000391,0.001119,-0.000189,-0.268018,-0.963414,0.00018899998038804006
1762016262.852428,0.13523,-2.4e-05,0.000302,0.990814,0.000659,0.004062,-0.003045,-0.000541,-3.1e-05,0.000936,-0.000129,-0.267976,-0.963426,0.00012899994806811433
1762016262.852746,0.135208,4e-06,0.000283,0.990817,0.000813,0.00303,-0.000864,-0.000385,-0.000453,0.000754,-6.9e-05,-0.267933,-0.963437,6.90000362722246e-05
1762016262.882903,0.135186,1.8e-05,0.000307,0.99082,-0.00022,0.000517,0.002309,-0.00046,-0.000576,0.001572,-4.7e-05,-0.26789,-0.96345,4.699997753230843e-05
1762016262.889177,0.135175,-4.5e-05,0.000367,0.990822,-0.000469,-0.003285,0.006189,-0.002191,-0.002342,-0.001597,-0.000189,-0.267868,-0.963456,0.0001889999288250972
1762016262.931157,0.135181,-8.2e-05,0.000418,0.990821,-0.001181,-0.002825,0.007041,-0.001545,-0.00311,-0.002668,-0.000274,-0.267881,-0.963452,0.00027399999499735385
1762016262.931495,0.135188,-0.000118,0.000468,0.99082,-0.001893,-0.002365,0.007893,-0.000899,-0.003878,-0.003738,-0.00036,-0.267893,-0.963449,0.00035999987013907056
1762016262.962953,0.135125,-0.000124,0.000555,0.990828,-0.002342,-0.003096,0.003516,-0.002221,-0.003626,-0.000189,-0.000396,-0.267772,-0.963482,0.00039600009645533957
1762016262.967656,0.135118,-0.0002,0.000588,0.990829,-0.003081,0.002981,0.002306,-0.0009,-0.004063,-0.003545,-0.000555,-0.267758,-0.963486,0.0005550000488094833
1762016262.996852,0.135096,-0.000154,0.000628,0.990832,-0.003466,0.00731,0.003685,-0.001888,-0.002832,-0.002388,-0.000475,-0.267715,-0.963498,0.0004750000314341581
1762016263.02707,0.135095,-9.1e-05,0.000641,0.990832,-0.003831,0.010028,0.00265,-0.001742,-0.00262,-0.001979,-0.000355,-0.267713,-0.963499,0.0003549998833139244
1762016263.027322,0.135093,-2.9e-05,0.000655,0.990833,-0.004196,0.012746,0.001615,-0.001596,-0.002407,-0.00157,-0.000234,-0.26771,-0.963499,0.00023400011657830216
1762016263.058882,0.135046,7.7e-05,0.000699,0.990839,-0.007015,0.005054,0.00128,-0.000242,-0.001426,0.00148,-3.7e-05,-0.267618,-0.963525,3.7000003321459615e-05
1762016263.096365,0.134999,6.8e-05,0.000688,0.990845,-0.008808,0.00292,-0.001518,-0.000398,-0.001355,0.001435,-5.1e-05,-0.267526,-0.963551,5.0999982353728654e-05
1762016263.096589,0.134951,5.9e-05,0.000676,0.990852,-0.010601,0.000786,-0.004315,-0.000554,-0.001284,0.001389,-6.5e-05,-0.267433,-0.963576,6.50000285973647e-05
1762016263.126614,0.134833,4.5e-05,0.000519,0.990868,-0.011036,-0.002631,-0.01385,0.000523,-0.000428,-0.000446,-5e-05,-0.267203,-0.96364,5.0000012638113127e-05
1762016263.126899,0.134766,3e-05,0.000421,0.990877,-0.010257,0.000193,-0.012883,-0.00038,0.001415,-0.000182,-5.4e-05,-0.267073,-0.963676,5.400001559928376e-05
1762016263.159971,0.134672,8.7e-05,0.000215,0.99089,-0.00793,0.002493,-0.009789,0.000307,0.001356,-0.002092,0.000114,-0.26689,-0.963727,-0.000113999999356299
1762016263.166777,0.134617,0.000182,8.4e-05,0.990898,-0.005266,0.005665,-0.008237,0.001003,0.002428,-0.001436,0.000337,-0.266784,-0.963756,-0.00033700010010510845
1762016263.228891,0.134536,0.000234,4.2e-05,0.990909,-0.007284,0.005576,-0.007623,0.001099,0.002897,-0.000986,0.000453,-0.266626,-0.9638,-0.00045299999984552765
1762016263.229221,0.134455,0.000287,-1e-06,0.99092,-0.009303,0.005487,-0.007008,0.001195,0.003365,-0.000537,0.000569,-0.266468,-0.963844,-0.0005689998101815073
1762016263.229494,0.134374,0.00034,-4.3e-05,0.990931,-0.011321,0.005398,-0.006394,0.001291,0.003834,-8.8e-05,0.000685,-0.26631,-0.963887,-0.0006850001788927341
1762016263.256793,0.134156,0.000313,-0.0001,0.99096,-0.006595,-0.023467,0.012936,-0.004235,0.011673,0.014918,0.000646,-0.265886,-0.964004,-0.0006460002082631832
1762016263.287993,0.13413,-6.6e-05,7.1e-05,0.990964,-0.003468,-0.04978,0.030218,-0.005487,0.006993,0.008441,-0.000151,-0.265837,-0.964018,0.0001509999977279282
1762016263.288686,0.134105,-0.000445,0.000242,0.990967,-0.000342,-0.076093,0.0475,-0.006739,0.002313,0.001963,-0.000947,-0.265787,-0.964031,0.0009470004279483529
1762016263.31812,0.133864,-0.001645,0.001015,0.990998,-0.023124,-0.047037,0.062495,-0.005127,-0.018587,-0.018641,-0.003533,-0.265315,-0.964155,0.0035330084180521643
1762016263.349018,0.133707,-0.00182,0.001359,0.991018,-0.011798,-0.015048,0.044673,-0.000245,-0.038264,-0.016956,-0.003971,-0.265007,-0.964238,0.003971011628653838
1762016263.349271,0.133549,-0.001995,0.001703,0.991039,-0.000471,0.01694,0.026851,0.004637,-0.057942,-0.015272,-0.004409,-0.264698,-0.964321,0.004409015471834564
1762016263.381471,0.133877,-0.001519,0.001617,0.990996,0.035527,0.042067,-0.039087,0.013531,-0.052878,0.001299,-0.003443,-0.265338,-0.964149,0.003443007830668339
1762016263.385996,0.134357,-0.000865,0.000902,0.990932,0.007765,0.041946,-0.081777,0.028775,-0.03947,0.005488,-0.001957,-0.266276,-0.963895,0.001957000946765301
1762016263.414277,0.134492,-0.000484,0.000224,0.990915,-0.022209,0.03584,-0.101267,0.033214,-0.032155,0.009693,-0.001019,-0.26654,-0.963823,0.0010190004895434444
1762016263.445112,0.134452,-0.000217,-0.000511,0.99092,-0.043231,0.017412,-0.112775,0.034173,-0.025322,0.015273,-0.000293,-0.266462,-0.963845,0.00029300011153026963
1762016263.44535,0.134411,5e-05,-0.001245,0.990925,-0.064254,-0.001017,-0.124284,0.035132,-0.01849,0.020852,0.000433,-0.266383,-0.963867,-0.0004330000819732745
1762016263.47553,0.133535,-0.000139,-0.003186,0.991039,-0.10762,-0.079409,-0.089885,0.022885,0.01745,0.024678,0.000574,-0.264677,-0.964337,-0.0005740000047215348
1762016263.54207,0.132364,-0.001228,-0.003273,0.991195,-0.130033,-0.104283,-0.034812,0.016896,0.024824,0.018248,-0.001567,-0.262405,-0.964957,0.0015669999742492823
1762016263.542534,0.131193,-0.002316,-0.00336,0.991348,-0.152446,-0.129158,0.020261,0.010908,0.032197,0.011808,-0.00371,-0.260131,-0.965566,0.0037100092498603206
1762016263.542881,0.130021,-0.003404,-0.003447,0.991499,-0.174859,-0.154033,0.075334,0.00492,0.039567,0.005358,-0.005855,-0.257855,-0.966166,0.005855032804320384
1762016263.545184,0.127059,-0.005961,-0.002363,0.991874,-0.212825,-0.164174,0.172852,-0.007829,0.046196,-0.000563,-0.011225,-0.252081,-0.967641,0.011225236098382602
1762016263.574215,0.125402,-0.007178,-0.001188,0.992079,-0.227204,-0.165896,0.201702,-0.011547,0.043098,0.000336,-0.013945,-0.248834,-0.968446,0.01394544867436545
1762016263.606889,0.123804,-0.008316,4.4e-05,0.992272,-0.238165,-0.161004,0.217453,-0.009522,0.036284,-0.002332,-0.016515,-0.245695,-0.969207,0.01651574267131228
1762016263.607183,0.122206,-0.009455,0.001275,0.992459,-0.249127,-0.156113,0.233204,-0.007504,0.029461,-0.005016,-0.019078,-0.242546,-0.969952,0.019079163079201045
1762016263.651672,0.118756,-0.011448,0.003891,0.99285,-0.261935,-0.125201,0.220386,-0.005169,0.020949,-0.006881,-0.023657,-0.235725,-0.971532,0.023659202961322602
1762016263.651978,0.117064,-0.012273,0.005066,0.993036,-0.273697,-0.116104,0.213164,-0.007321,0.022526,-0.005636,-0.025561,-0.232374,-0.972291,0.025563773659250482
1762016263.682904,0.11215,-0.01444,0.007996,0.993554,-0.313673,-0.115911,0.192966,-0.018951,0.029906,-0.00349,-0.030487,-0.222624,-0.974428,0.030491712049338156
1762016263.715654,0.106954,-0.016696,0.010774,0.994065,-0.315125,-0.125144,0.184492,-0.030397,0.023256,-0.008626,-0.035499,-0.212279,-0.976564,0.035506463651301896
1762016263.745717,0.105179,-0.017701,0.011766,0.994226,-0.279533,-0.125174,0.170413,-0.032758,0.011755,-0.009307,-0.037672,-0.208728,-0.977248,0.037680912272339426
1762016263.746216,0.103404,-0.018705,0.012758,0.994382,-0.243942,-0.125203,0.156335,-0.035125,0.000248,-0.010004,-0.039839,-0.205169,-0.977915,0.039849561633076264
1762016263.746507,0.101628,-0.01971,0.01375,0.994532,-0.20835,-0.125233,0.142257,-0.0375,-0.011267,-0.010718,-0.041998,-0.201603,-0.978566,0.042010376685788574
1762016263.776745,0.099375,-0.021845,0.014929,0.994698,-0.066844,-0.102978,0.032293,-0.034538,-0.018175,-0.013265,-0.046426,-0.197043,-0.979295,0.046442693424685
1762016263.830734,0.099612,-0.022323,0.014582,0.994669,-0.010894,-0.07863,-0.012861,-0.032581,-0.020838,-0.014372,-0.047314,-0.19751,-0.979158,0.0473316896355672
1762016263.831076,0.099849,-0.022801,0.014235,0.994639,0.045057,-0.054281,-0.058015,-0.030624,-0.023501,-0.01548,-0.048201,-0.197978,-0.979021,0.04821966612842575
1762016263.831409,0.100086,-0.023279,0.013888,0.99461,0.101007,-0.029932,-0.103169,-0.028667,-0.026164,-0.016588,-0.049088,-0.198446,-0.978882,0.049107725170810156
1762016263.86152,0.102183,-0.023165,0.012056,0.994423,0.135029,0.056739,-0.119221,-0.011678,0.005603,-0.023526,-0.048536,-0.202668,-0.978044,0.0485550735257762
1762016263.90497,0.104081,-0.02166,0.011084,0.994271,0.05563,0.144394,0.01545,0.000218,0.041505,-0.014618,-0.04538,-0.20649,-0.977396,0.04539558075366281
1762016263.905301,0.104246,-0.021018,0.011506,0.994263,0.043033,0.147154,0.059928,-0.000297,0.019514,-0.002294,-0.044195,-0.206811,-0.977382,0.04420940928655032
1762016263.905579,0.10441,-0.020377,0.011929,0.994254,0.030435,0.149914,0.104407,-0.000813,-0.002477,0.010029,-0.04301,-0.207134,-0.977367,0.0430232584043158
1762016263.935376,0.105608,-0.01889,0.013077,0.994142,0.125787,0.078888,-0.010291,0.014349,-0.054014,0.007128,-0.040321,-0.209485,-0.97698,0.040331940219186346
1762016263.944254,0.107413,-0.017951,0.012154,0.993978,0.169774,0.038456,-0.152001,0.011465,-0.034593,0.006279,-0.038297,-0.213096,-0.97628,0.038306382888356694
1762016263.972952,0.10848,-0.017677,0.010956,0.993881,0.152387,0.009708,-0.181516,0.005922,-0.011875,0.010619,-0.037515,-0.215245,-0.975839,0.03752381384132062
1762016264.001823,0.109509,-0.017603,0.00959,0.993784,0.125834,-0.013458,-0.199208,0.00247,0.000727,0.006103,-0.037087,-0.21732,-0.975396,0.03709549256217413
1762016264.033261,0.111632,-0.017487,0.006109,0.993577,0.082107,-0.026282,-0.229055,0.00148,0.018462,-0.00458,-0.036114,-0.221616,-0.974465,0.03612185636707369
1762016264.03374,0.112327,-0.017394,0.004591,0.993508,0.081413,-0.012493,-0.222401,0.002586,0.0307,-0.011539,-0.035593,-0.223037,-0.97416,0.03560051826447206
1762016264.063275,0.112853,-0.017186,0.003246,0.993458,0.066288,0.015795,-0.190657,0.003652,0.044064,-0.01604,-0.03488,-0.224117,-0.973938,0.034887071714527595
1762016264.126809,0.11365,-0.016239,0.000803,0.993388,0.029485,0.077642,-0.094476,0.002796,0.052949,-0.010607,-0.032446,-0.225772,-0.97364,0.032451686029119874
1762016264.127831,0.11387,-0.015281,0.000692,0.993378,0.03763,0.087646,-0.061306,0.002947,0.043779,-0.00837,-0.030518,-0.22621,-0.9736,0.03052275024175915
1762016264.128431,0.114089,-0.014323,0.000581,0.993367,0.045776,0.097651,-0.028136,0.003097,0.034607,-0.006136,-0.028589,-0.226648,-0.973557,0.02859289760797057
1762016264.128789,0.114308,-0.013365,0.000471,0.993355,0.053921,0.107656,0.005034,0.003247,0.025435,-0.003906,-0.02666,-0.227084,-0.97351,0.0266631642183623
1762016264.160046,0.114504,-0.01272,0.000617,0.993341,0.06068,0.100344,0.011422,0.00092,0.020833,-0.000385,-0.025413,-0.227467,-0.973454,0.02541573938693408
1762016264.190691,0.115254,-0.01136,0.001049,0.99327,0.081647,0.061534,0.018762,-0.005135,0.009111,0.005873,-0.022809,-0.228933,-0.973175,0.022810976488859266
1762016264.190973,0.11568,-0.011044,0.001213,0.993224,0.085647,0.0437,0.017468,-0.005057,0.005691,0.002791,-0.022218,-0.229766,-0.972992,0.02221983406094849
1762016264.221225,0.116162,-0.010814,0.001357,0.993171,0.090078,0.034655,0.016608,-0.004087,0.00047,0.000752,-0.021795,-0.230707,-0.972779,0.02179672888708828
1762016264.251694,0.117536,-0.010415,0.001686,0.993013,0.112253,0.01379,0.014279,-0.003558,-0.015699,0.002999,-0.021081,-0.233393,-0.972154,0.021082560679884066
1762016264.252009,0.118346,-0.010322,0.00176,0.992917,0.13397,0.010546,0.006272,-0.005677,-0.026464,0.002732,-0.020915,-0.234979,-0.971775,0.02091653331001201
1762016264.282376,0.119312,-0.010311,0.001779,0.992802,0.157699,0.001923,-0.003611,-0.004706,-0.035905,0.002529,-0.020897,-0.23687,-0.971317,0.02089851287986248
1762016264.28442,0.122018,-0.010278,0.001436,0.992474,0.204856,0.008427,-0.064045,0.003448,-0.057515,-0.006155,-0.020751,-0.24217,-0.970012,0.02075248752921544
1762016264.320187,0.123225,-0.010108,0.000917,0.992327,0.209533,0.023371,-0.100662,0.006067,-0.056995,-0.005909,-0.020287,-0.244541,-0.969427,0.020288386021774393
1762016264.358308,0.126535,-0.009324,-0.00103,0.991918,0.204696,0.052448,-0.165133,0.003809,-0.039307,0.001556,-0.018237,-0.251045,-0.967804,0.018238004098053935
1762016264.35861,0.127645,-0.008937,-0.001868,0.991778,0.193505,0.053812,-0.163128,0.00273,-0.02948,0.003935,-0.017251,-0.253224,-0.967254,0.01725185323921208
1762016264.388937,0.128857,-0.008503,-0.002762,0.991623,0.177987,0.04906,-0.146477,-0.000338,-0.017594,0.007609,-0.016152,-0.255602,-0.966647,0.016152704877335267
1762016264.389275,0.130069,-0.008069,-0.003656,0.991465,0.162469,0.044309,-0.129826,-0.003411,-0.005712,0.011277,-0.015049,-0.257977,-0.966034,0.015049565875324133
1762016264.431378,0.132185,-0.007393,-0.004903,0.991185,0.083717,0.023707,-0.040109,-0.009477,0.026864,0.004923,-0.01336,-0.262112,-0.964945,0.013360397180373663
1762016264.431607,0.132601,-0.007284,-0.005025,0.99113,0.054497,0.019042,-0.004263,-0.010217,0.0343,0.000823,-0.013106,-0.262923,-0.964728,0.013106372701805619
1762016264.463774,0.132731,-0.007048,-0.004218,0.991118,-0.044072,0.033584,0.1012,-0.017437,0.041734,-0.007887,-0.012851,-0.263163,-0.964666,0.01285135114800124
1762016264.465784,0.131638,-0.006842,-0.00205,0.991272,-0.075227,0.049152,0.160482,-0.014945,0.016692,-0.007874,-0.013026,-0.261007,-0.965249,0.013026368638979163
1762016264.49435,0.131034,-0.006573,-0.000809,0.991356,-0.062061,0.067267,0.149811,-0.01042,0.004062,-0.006648,-0.01282,-0.259813,-0.965574,0.012820349289336558
1762016264.524268,0.130616,-0.006189,0.000169,0.991414,-0.040381,0.083231,0.122817,-0.006558,-0.001149,-0.004773,-0.012315,-0.258988,-0.965802,0.0123153116308068
1762016264.524669,0.130199,-0.005804,0.001147,0.99147,-0.0187,0.099195,0.095822,-0.002697,-0.00636,-0.002899,-0.011808,-0.258163,-0.966029,0.011808276820605082
1762016264.558111,0.129921,-0.004393,0.002299,0.991512,0.005438,0.106072,0.036069,0.000328,0.01196,0.00666,-0.009308,-0.257615,-0.966203,0.009308132715482219
1762016264.591334,0.129966,-0.003114,0.00285,0.991509,0.003529,0.069967,0.013269,-0.000651,0.029627,0.01292,-0.006916,-0.257708,-0.966198,0.0069160557585516225
1762016264.591643,0.129946,-0.002756,0.003023,0.991513,-0.010958,0.050311,0.018613,0.00114,0.031487,0.006044,-0.006251,-0.25767,-0.966213,0.006251039256125097
1762016264.620725,0.129791,-0.00253,0.003199,0.991533,-0.023443,0.039357,0.022345,0.002198,0.030036,0.000322,-0.005848,-0.257368,-0.966296,0.005848032028692759
1762016264.633202,0.1294,-0.002272,0.003557,0.991583,-0.034095,0.035234,0.032468,0.005469,0.025326,-0.00523,-0.005426,-0.256605,-0.966501,0.005426027302159045
1762016264.662784,0.129058,-0.002109,0.003883,0.991627,-0.031578,0.024296,0.042639,0.001685,0.021593,-0.003866,-0.005184,-0.255938,-0.966679,0.005184024715568463
1762016264.726313,0.128429,-0.001901,0.004845,0.991705,-0.005335,0.01374,0.065466,-0.001837,0.006959,-0.005526,-0.005015,-0.254709,-0.967005,0.005015019780579683
1762016264.72664,0.128561,-0.001876,0.005289,0.991686,0.015673,0.013625,0.065606,-0.001208,0.003072,-0.005235,-0.005081,-0.254964,-0.966937,0.005081022828423184
1762016264.726962,0.128692,-0.001851,0.005734,0.991666,0.036682,0.013511,0.065745,-0.00058,-0.000815,-0.004945,-0.005148,-0.255219,-0.96687,0.005148020585044514
1762016264.727304,0.128824,-0.001826,0.006178,0.991647,0.05769,0.013396,0.065885,4.8e-05,-0.004702,-0.004654,-0.005214,-0.255473,-0.966802,0.005214024285032338
1762016264.789499,0.130907,-0.001333,0.00731,0.991367,0.112403,0.028189,0.00848,0.000708,-0.018435,-0.000103,-0.004557,-0.259534,-0.965723,0.00455701673790252
1762016264.789736,0.132122,-0.001087,0.007287,0.991206,0.126409,0.024433,-0.013338,0.002031,-0.017859,-0.000602,-0.004081,-0.261904,-0.965085,0.004081012517579984
1762016264.820215,0.133441,-0.000815,0.007104,0.991031,0.135814,0.022599,-0.025958,0.003645,-0.017582,0.000896,-0.003511,-0.264476,-0.964386,0.00351100679443225
1762016264.822139,0.134834,-0.000557,0.006832,0.990844,0.138378,0.021127,-0.03858,0.00481,-0.016192,-8.5e-05,-0.002947,-0.267192,-0.963639,0.002947003717569972
1762016264.847026,0.136235,-0.000283,0.006472,0.990655,0.135667,0.019799,-0.040884,0.005735,-0.015459,0.001168,-0.002325,-0.26992,-0.96288,0.002325001970965396
1762016264.875373,0.137602,-3.1e-05,0.006062,0.990469,0.13202,0.014203,-0.043717,0.009229,-0.016315,0.00209,-0.00173,-0.272582,-0.962131,0.0017300008622749695
1762016264.881954,0.138938,0.000155,0.00561,0.990285,0.132421,0.006916,-0.04701,0.009069,-0.014631,0.00455,-0.001251,-0.275177,-0.961393,0.0012510000468425487
1762016264.910492,0.140242,0.000281,0.005146,0.990104,0.123923,0.001463,-0.047162,0.008157,-0.010757,0.003985,-0.000887,-0.277712,-0.960664,0.0008870000885436239
1762016264.939205,0.141474,0.000371,0.00472,0.989931,0.118467,-0.007418,-0.035404,0.006606,-0.008162,0.005532,-0.000601,-0.280103,-0.95997,0.0006009999001409727
1762016264.941462,0.142627,0.000337,0.004405,0.989767,0.109468,-0.014788,-0.023928,0.005624,-0.005158,0.004797,-0.00059,-0.282339,-0.959315,0.0005899997603974116
1762016264.971657,0.143708,0.000226,0.004227,0.989611,0.102165,-0.015383,-0.007456,0.003373,-0.004663,0.00231,-0.000768,-0.284433,-0.958696,0.0007679997906736304
1762016265.025262,0.144643,0.000154,0.004186,0.989475,0.094848,-0.012242,-0.003436,0.002242,-0.007666,0.002805,-0.000907,-0.286243,-0.958157,0.0009069998004008291
1762016265.025596,0.145578,8.1e-05,0.004146,0.989338,0.087532,-0.009102,0.000585,0.001109,-0.01067,0.003296,-0.001046,-0.288052,-0.957614,0.0010460003885313797
1762016265.026204,0.146444,2.8e-05,0.004084,0.989211,0.085244,-0.006038,-0.010424,-0.000466,-0.015282,0.003431,-0.001141,-0.289728,-0.957108,0.0011410006243736527
1762016265.058466,0.147262,5.2e-05,0.00388,0.98909,0.073356,-0.003493,-0.023396,-0.003104,-0.012728,0.001937,-0.001041,-0.291312,-0.956628,0.0010409997219584211
1762016265.062083,0.147918,5.3e-05,0.003566,0.988993,0.053311,-0.005578,-0.031501,-0.004223,-0.008739,0.001294,-0.000949,-0.29258,-0.956241,0.0009489997594847662
1762016265.09915,0.148353,6.8e-05,0.003192,0.988929,0.030592,-0.004661,-0.036479,-0.005473,-0.006778,-0.000585,-0.000812,-0.293421,-0.955983,0.0008120000734483991
1762016265.100873,0.148611,6e-05,0.002795,0.988892,0.016529,-0.004989,-0.038016,-0.005589,-0.005781,-0.001603,-0.000712,-0.29392,-0.95583,0.0007119998955985198
1762016265.12943,0.148757,5.6e-05,0.002421,0.988871,0.006246,-0.004015,-0.034412,-0.005486,-0.002389,-0.001009,-0.000609,-0.294203,-0.955743,0.0006089998981411242
1762016265.161258,0.148794,7.2e-05,0.002098,0.988866,-0.00398,-0.000235,-0.02762,-0.005955,-0.000228,3.3e-05,-0.000481,-0.294275,-0.955721,0.000480999865390604
1762016265.163277,0.148738,9.7e-05,0.001858,0.988875,-0.01208,-0.000619,-0.015305,-0.00653,0.004217,0.001585,-0.00036,-0.294168,-0.955754,0.00035999989071485003
1762016265.191853,0.148592,9.3e-05,0.00176,0.988897,-0.021152,0.00155,-0.002909,-0.005634,0.005615,0.000634,-0.000339,-0.293885,-0.955841,0.0003389999174331903
1762016265.223744,0.148359,6.9e-05,0.001849,0.988932,-0.028098,0.00574,0.015938,-0.004416,0.005673,-0.001502,-0.000412,-0.293434,-0.955979,0.0004120001083643518
1762016265.224988,0.148077,9.6e-05,0.00207,0.988974,-0.028139,0.009451,0.024261,-0.002872,0.003151,-0.000743,-0.000424,-0.292888,-0.956147,0.00042399987576727775
1762016265.254958,0.147781,0.000129,0.002367,0.989017,-0.025134,0.011575,0.028958,-0.002428,0.000328,-0.000428,-0.000445,-0.292317,-0.956321,0.00044500017454097
1762016265.259819,0.147561,0.000145,0.002639,0.989049,-0.01618,0.004087,0.020558,-0.000976,-0.004619,0.001613,-0.000493,-0.291891,-0.956452,0.0004929997667575116
1762016265.287941,0.147436,0.000124,0.002793,0.989068,-0.002046,-0.000737,0.006879,-0.001079,-0.007913,0.001148,-0.000578,-0.29165,-0.956525,0.0005779999939750266
1762016265.328466,0.147477,5.1e-05,0.002774,0.989062,0.012036,-0.007602,-0.005191,0.000492,-0.005016,-0.000982,-0.000716,-0.291729,-0.956501,0.000715999887511898
1762016265.328677,0.147643,-2.6e-05,0.002651,0.989037,0.019704,-0.00857,-0.01193,0.001508,-0.001223,-0.00367,-0.000834,-0.29205,-0.956403,0.000833999847956434
1762016265.357582,0.147845,-8.4e-05,0.002529,0.989007,0.015998,-0.004767,-0.008545,0.000401,0.00346,-0.002692,-0.000914,-0.292439,-0.956284,0.0009139999020614333
1762016265.358358,0.148023,-0.000157,0.002487,0.988981,0.01555,-0.00613,0.002923,-0.000721,0.004951,-0.001541,-0.001047,-0.292783,-0.956178,0.001047000532096841
1762016265.390342,0.148198,-0.000229,0.002573,0.988954,0.013225,-0.007925,0.016027,-0.001491,0.004411,-0.00023,-0.001215,-0.29312,-0.956075,0.0012150001675638104
1762016265.420808,0.14832,-0.00034,0.0028,0.988935,0.009785,-0.004185,0.026042,-0.001743,0.001575,-0.000291,-0.001504,-0.293357,-0.956002,0.0015040002545796437
1762016265.4339,0.148386,-0.000403,0.003055,0.988925,0.004093,0.000553,0.02766,-0.002491,0.001082,-0.000422,-0.001703,-0.293482,-0.955963,0.0017030009577977203
1762016265.438376,0.148374,-0.000412,0.003336,0.988926,-0.002372,0.002343,0.022024,-0.002036,-0.000897,0.001309,-0.001806,-0.293459,-0.95597,0.0018060009029968029
1762016265.470893,0.148273,-0.000432,0.003559,0.98894,-0.00863,0.001063,0.016831,-0.002463,-0.005042,0.002368,-0.001909,-0.293264,-0.95603,0.001909000416051623
1762016265.500062,0.148147,-0.000459,0.00366,0.988958,-0.007895,-0.002202,0.005503,-0.002052,-0.007343,0.001721,-0.001992,-0.293019,-0.956105,0.001992000447442244
1762016265.500745,0.148061,-0.000504,0.003646,0.988971,-0.008317,-0.003897,-0.004741,-0.002153,-0.006745,0.000416,-0.002077,-0.292852,-0.956156,0.002077000554360426
1762016265.542953,0.147984,-0.000546,0.003564,0.988983,-0.006893,-0.005921,-0.010119,-0.001733,-0.004539,-0.003114,-0.002136,-0.292704,-0.956201,0.0021360010405749343
1762016265.54523,0.147895,-0.000572,0.003439,0.988997,-0.016139,0.002305,-0.01228,-0.000709,-0.000448,-0.002421,-0.002148,-0.292531,-0.956254,0.0021480008866825114
1762016265.575444,0.147721,-0.000574,0.00335,0.989023,-0.021239,-0.003611,-0.002219,-0.003067,0.00252,-0.001689,-0.002125,-0.292195,-0.956356,0.00212500241487929
1762016265.580242,0.147508,-0.000607,0.003378,0.989055,-0.020145,-0.004708,0.00587,-0.000326,0.001022,-0.001959,-0.002197,-0.291783,-0.956482,0.0021970018089196358
1762016265.633269,0.147349,-0.000574,0.003407,0.989079,-0.013827,0.000662,0.002789,-0.000497,-0.001526,-0.00075,-0.002139,-0.291476,-0.956576,0.0021390011202330355
1762016265.633563,0.14719,-0.000541,0.003436,0.989102,-0.007509,0.006033,-0.000292,-0.000667,-0.004074,0.00046,-0.002082,-0.291168,-0.95667,0.002082000850561285
1762016265.639022,0.147155,-0.000504,0.00343,0.989107,0.002044,0.002376,-0.001679,-0.001395,-0.003331,0.002717,-0.002007,-0.291101,-0.95669,0.002007001772518599
1762016265.668844,0.147211,-0.000536,0.003409,0.989099,0.008381,-0.005443,-0.002101,-0.000484,-0.000719,0.001677,-0.002064,-0.291208,-0.956657,0.0020640025232696118
1762016265.697979,0.147266,-0.000627,0.003384,0.989091,0.005043,-0.010143,0.001517,-0.001096,0.001845,0.000673,-0.002237,-0.291315,-0.956625,0.002237000944058222
1762016265.702333,0.147287,-0.000744,0.003402,0.989088,-0.00358,-0.007489,0.008518,-0.002855,0.004101,-0.00097,-0.002474,-0.291354,-0.956612,0.002474002780399482
1762016265.733801,0.14722,-0.000834,0.003546,0.989097,-0.007085,-0.003001,0.017266,-0.002519,0.002117,-0.001108,-0.002694,-0.291223,-0.956651,0.002694004297006973
1762016265.740617,0.147122,-0.000859,0.00375,0.989111,-0.00744,0.003518,0.017957,-0.001332,-0.002091,-0.000781,-0.002803,-0.291033,-0.956709,0.0028030034257788506
1762016265.770802,0.147036,-0.000848,0.003939,0.989123,-0.008377,0.001876,0.017049,-0.001227,-0.002985,0.000353,-0.002835,-0.290866,-0.95676,0.002835002713521745
1762016265.800253,0.146933,-0.000841,0.004112,0.989138,-0.01206,0.001545,0.008681,-0.001722,-0.005279,-0.000459,-0.002873,-0.290668,-0.95682,0.002873003014683688
1762016265.800546,0.146787,-0.000869,0.004143,0.989159,-0.016208,0.000325,-0.004551,-0.002173,-0.00681,-0.00064,-0.002935,-0.290384,-0.956906,0.002935003370701098
1762016265.832235,0.146614,-0.000871,0.004032,0.989185,-0.020272,-1.3e-05,-0.017765,-0.002108,-0.007199,-0.001745,-0.002905,-0.29005,-0.957007,0.002905004318929897
1762016265.86276,0.146319,-0.00079,0.003761,0.98923,-0.037667,0.013411,-0.031538,-0.002246,-0.003243,-0.00276,-0.002664,-0.289479,-0.957181,0.0026640022784386835
1762016265.864714,0.145934,-0.000621,0.00346,0.989288,-0.040075,0.01472,-0.02656,-0.002383,0.000508,-0.001495,-0.002238,-0.288737,-0.957406,0.0022380015183733975
1762016265.926418,0.145594,-0.00047,0.003289,0.989339,-0.03541,0.01193,-0.017649,-0.00104,0.001469,-0.000233,-0.001887,-0.288081,-0.957604,0.0018870014556125814
1762016265.926784,0.145255,-0.000319,0.003118,0.989389,-0.030744,0.00914,-0.008739,0.000304,0.00243,0.001028,-0.001537,-0.287425,-0.957802,0.0015370004789745388
1762016265.927621,0.144992,-0.000274,0.003094,0.989428,-0.022012,0.001354,0.001332,-0.000299,0.002929,0.00225,-0.00144,-0.286916,-0.957955,0.0014400000320538876
1762016265.959363,0.144758,-0.000299,0.003141,0.989462,-0.017034,-0.004794,0.005265,-0.000574,-0.000374,0.001547,-0.001501,-0.286464,-0.95809,0.001501000320166158
1762016265.959703,0.144578,-0.000402,0.003211,0.989488,-0.01318,-0.010488,0.01007,-0.000631,-0.001063,0.0014,-0.001725,-0.286114,-0.958194,0.001725000908746752
1762016265.988213,0.144442,-0.000555,0.00334,0.989507,-0.0152,-0.013047,0.015151,-0.000129,-0.000217,0.000286,-0.002063,-0.285849,-0.958272,0.002063002357913545
1762016266.018813,0.144243,-0.000729,0.003485,0.989536,-0.023938,-0.013118,0.017123,-0.001028,-0.001449,-0.001699,-0.002447,-0.285463,-0.958387,0.002447001519578289
1762016266.020116,0.143966,-0.000865,0.003653,0.989576,-0.030525,-0.009194,0.014351,-0.001727,-0.002692,-0.001014,-0.002763,-0.284923,-0.958546,0.002763004642560252
1762016266.069055,0.143653,-0.000952,0.003766,0.989621,-0.030788,-0.008263,0.01222,-0.002363,-0.00524,0.000344,-0.002966,-0.284316,-0.958726,0.0029660044553906357
1762016266.069416,0.14334,-0.00104,0.003878,0.989665,-0.03105,-0.007331,0.010089,-0.002999,-0.007789,0.001701,-0.003169,-0.283709,-0.958905,0.0031690058773389106
1762016266.100099,0.142986,-0.00113,0.003929,0.989716,-0.035394,-0.00922,0.00123,-0.00248,-0.009092,0.001545,-0.003361,-0.283021,-0.959108,0.003361005759126686
1762016266.102124,0.14262,-0.001245,0.003939,0.989769,-0.038946,-0.012213,0.000343,-0.002731,-0.010404,0.001513,-0.003587,-0.282312,-0.959316,0.0035870074773013067
1762016266.13084,0.142233,-0.001377,0.003926,0.989824,-0.046323,-0.008204,-0.001085,-0.001485,-0.012266,0.000654,-0.003843,-0.28156,-0.959536,0.003843009195087909
1762016266.161247,0.141757,-0.001454,0.003903,0.989893,-0.054531,-0.006353,0.000947,-0.003068,-0.012018,0.002448,-0.003986,-0.280637,-0.959806,0.003986009415924321
1762016266.162647,0.141137,-0.001529,0.003899,0.989981,-0.069925,-0.0073,0.00041,-0.000363,-0.01534,0.003418,-0.004128,-0.279435,-0.960156,0.004128010683723144
1762016266.226448,0.140339,-0.001586,0.003901,0.990095,-0.081058,-0.006176,-0.0018,0.000922,-0.019949,0.005774,-0.004235,-0.277886,-0.960605,0.004235011536576291
1762016266.226697,0.139541,-0.001643,0.003903,0.990207,-0.092192,-0.005053,-0.00401,0.002208,-0.024559,0.008127,-0.004343,-0.276337,-0.961051,0.004343013601082703
1762016266.228376,0.138616,-0.001777,0.003828,0.990337,-0.100282,-0.013552,-0.006055,0.001663,-0.022762,0.008308,-0.004582,-0.274541,-0.961565,0.004582013731492613
1762016266.25999,0.137543,-0.001904,0.003749,0.990487,-0.123195,-0.011532,-0.004158,0.00125,-0.021731,0.006536,-0.004803,-0.272454,-0.962157,0.004803017641671042
1762016266.26023,0.136244,-0.001996,0.003711,0.990666,-0.147961,-0.015062,-0.001039,0.003121,-0.024593,0.008969,-0.004966,-0.26993,-0.962867,0.004966021092427002
1762016266.288001,0.134804,-0.002164,0.003654,0.990863,-0.162482,-0.014718,0.000221,0.002861,-0.029106,0.010088,-0.005274,-0.267128,-0.963647,0.005274022540362367
1762016266.321544,0.13319,-0.002348,0.003634,0.991081,-0.174198,-0.015214,0.002533,0.003558,-0.034362,0.012356,-0.005622,-0.263988,-0.96451,0.0056220273359560875
1762016266.322893,0.131531,-0.002497,0.003622,0.991302,-0.179108,-0.015543,-0.00097,0.003494,-0.03944,0.015827,-0.005903,-0.260757,-0.965386,0.005903036680885223
1762016266.354261,0.129823,-0.002671,0.003583,0.991527,-0.176757,-0.017871,-0.004454,0.00638,-0.0437,0.0182,-0.006227,-0.257426,-0.966278,0.006227039949664249
1762016266.358791,0.128156,-0.002861,0.003403,0.991744,-0.180546,-0.018061,-0.020838,0.005966,-0.043513,0.015507,-0.006546,-0.254176,-0.967136,0.006546045665067521
1762016266.387028,0.126456,-0.003036,0.003068,0.991963,-0.185755,-0.026274,-0.033223,0.003858,-0.038551,0.016247,-0.006799,-0.250861,-0.967999,0.006799053975251428
1762016266.417753,0.124651,-0.003253,0.002622,0.992192,-0.201341,-0.028804,-0.043332,0.00188,-0.034742,0.01129,-0.007109,-0.247338,-0.968903,0.007109061133200203
1762016266.422503,0.122711,-0.003491,0.00212,0.992434,-0.212137,-0.030126,-0.049728,0.002449,-0.03319,0.00705,-0.007449,-0.243551,-0.969859,0.007449072401571076
1762016266.450652,0.12071,-0.003734,0.001567,0.99268,-0.218113,-0.026483,-0.049253,-0.000568,-0.029453,0.005712,-0.007791,-0.23964,-0.97083,0.007791083035046015
1762016266.481536,0.118696,-0.00399,0.00105,0.992922,-0.213702,-0.031384,-0.039828,-0.002114,-0.022365,0.003832,-0.008173,-0.235704,-0.97179,0.008173095170643921
1762016266.486976,0.116644,-0.004261,0.000708,0.993164,-0.216096,-0.027459,-0.021324,-0.004436,-0.017477,0.002437,-0.008629,-0.231688,-0.972752,0.008629106042704397
1762016266.525889,0.114537,-0.004473,0.000552,0.993409,-0.23641,-0.015284,-0.003128,-0.003155,-0.013561,-0.001239,-0.009014,-0.22756,-0.973722,0.009014125051234839
1762016266.526202,0.112167,-0.004577,0.000581,0.993679,-0.263081,0.001843,0.011915,-0.003588,-0.013371,0.00109,-0.009227,-0.222911,-0.974795,0.00922713211587504
1762016266.556262,0.1095,-0.004558,0.000753,0.993976,-0.283654,0.007462,0.02341,-0.005579,-0.017042,0.005499,-0.009226,-0.217674,-0.975978,0.009226130217009444
1762016266.557631,0.106766,-0.004527,0.001009,0.994273,-0.277915,0.004116,0.027881,-0.007177,-0.015922,0.011842,-0.009217,-0.212301,-0.977161,0.009217129181581442
1762016266.590116,0.104086,-0.004617,0.001331,0.994557,-0.271624,-0.001942,0.038029,-0.005656,-0.01198,0.009866,-0.009461,-0.207027,-0.978289,0.00946114561100636
1762016266.619252,0.101378,-0.004691,0.001728,0.994835,-0.287401,-0.002252,0.044107,-0.006059,-0.007457,0.010485,-0.009684,-0.201692,-0.979401,0.009684152521845176
1762016266.621567,0.098507,-0.004784,0.002224,0.995122,-0.296203,-0.002623,0.051202,-0.005261,-0.012102,0.01097,-0.009959,-0.196031,-0.980547,0.00995916585816808
1762016266.656185,0.095654,-0.004813,0.002704,0.995399,-0.283137,0.005106,0.046776,-0.006544,-0.012289,0.009595,-0.0101,-0.190402,-0.981654,0.010100174212878218
1762016266.65732,0.093062,-0.004787,0.003229,0.995644,-0.264192,0.023093,0.052783,-0.004669,-0.007964,0.005876,-0.010134,-0.185282,-0.982633,0.010134174832168488
1762016266.687537,0.090556,-0.004627,0.003748,0.995874,-0.254648,0.025757,0.044967,-0.00712,-0.005837,0.003058,-0.009895,-0.180329,-0.983557,0.009895157364594264
1762016266.716755,0.087925,-0.004395,0.004216,0.996108,-0.274415,0.040718,0.047247,-0.008065,-0.000294,0.005968,-0.009497,-0.175129,-0.9845,0.00949713987124333
1762016266.718706,0.085306,-0.004061,0.004742,0.996335,-0.25981,0.038221,0.044324,-0.005913,-0.005394,0.00821,-0.008901,-0.169949,-0.985413,0.008901114552360145
1762016266.747902,0.082819,-0.003743,0.005142,0.996544,-0.248741,0.038661,0.034327,-0.005108,0.000765,0.002747,-0.008311,-0.165027,-0.986254,0.008311095946307226
1762016266.778627,0.080397,-0.003323,0.005479,0.996742,-0.246442,0.053719,0.025095,-0.005205,0.000345,0.000856,-0.007506,-0.160233,-0.987051,0.007506068115241148
1762016266.779976,0.078011,-0.002769,0.005735,0.996932,-0.233428,0.060316,0.012157,-0.004463,-0.001878,0.002683,-0.006416,-0.155511,-0.987813,0.0064160460758849285
1762016266.825185,0.075879,-0.002258,0.005819,0.997097,-0.206335,0.061613,-0.008923,-0.002014,0.001552,-0.003682,-0.005386,-0.151291,-0.988475,0.005386023882812392
1762016266.827132,0.073842,-0.001651,0.005646,0.997253,-0.211468,0.069737,-0.032895,-0.004765,0.01133,-0.006003,-0.004126,-0.14726,-0.989089,0.004126012570427357
1762016266.855513,0.071618,-0.000951,0.005269,0.997418,-0.232888,0.068649,-0.047487,-0.006812,0.017563,-0.002467,-0.002652,-0.142857,-0.98974,0.0026520025475391335
1762016266.857547,0.069175,-0.000339,0.004753,0.997593,-0.263465,0.058559,-0.066637,-0.007457,0.021001,0.000227,-0.001334,-0.138013,-0.99043,0.0013339997602539477
1762016266.887061,0.066488,0.00018,0.004074,0.997779,-0.275264,0.042075,-0.071817,-0.008562,0.021083,0.005985,-0.000183,-0.132681,-0.991159,0.00018299996034684088
1762016266.919395,0.063753,0.000485,0.00342,0.99796,-0.267549,0.020376,-0.066283,-0.006666,0.018468,0.011425,0.000531,-0.12725,-0.991871,-0.0005309997793391065
1762016266.919631,0.061171,0.000567,0.002748,0.998123,-0.248946,0.000377,-0.073299,-0.000815,0.016303,0.007994,0.000796,-0.122116,-0.992516,-0.0007959997014513573
1762016266.948088,0.058666,0.000478,0.001922,0.998276,-0.248694,-0.018113,-0.084775,-0.001564,0.019786,0.006599,0.000729,-0.117132,-0.993116,-0.0007290001278761175
1762016266.979252,0.056177,0.000253,0.001106,0.99842,-0.247053,-0.029754,-0.081496,-0.000774,0.021826,0.00462,0.000381,-0.112176,-0.993688,-0.00038100011561564585
1762016266.993527,0.053692,-0.000121,0.000238,0.998558,-0.252635,-0.034269,-0.086905,-0.003215,0.02747,-0.003161,-0.000266,-0.107228,-0.994234,0.0002660001146579555
1762016266.998406,0.051129,-0.00045,-0.000578,0.998692,-0.260371,-0.04022,-0.078191,-0.003396,0.031299,-0.003471,-0.000841,-0.102124,-0.994771,0.0008410003677957664
1762016267.027244,0.048512,-0.000802,-0.001337,0.998821,-0.253011,-0.039585,-0.067293,-0.002826,0.029504,-0.000142,-0.001472,-0.096912,-0.995292,0.0014720003344897738
1762016267.057526,0.046089,-0.001269,-0.001946,0.998935,-0.234517,-0.046795,-0.05174,-0.000721,0.033269,-0.004139,-0.002355,-0.092084,-0.995748,0.002355003250015117
1762016267.057808,0.043688,-0.00171,-0.002426,0.999041,-0.241324,-0.044636,-0.03902,0.001546,0.042201,-0.010981,-0.003204,-0.087301,-0.996177,0.0032040049282968776
1762016267.085491,0.041225,-0.002185,-0.002727,0.999144,-0.240831,-0.050137,-0.022106,-0.000504,0.045768,-0.015278,-0.004141,-0.08239,-0.996592,0.004141010024434486
1762016267.127789,0.038746,-0.002532,-0.002883,0.999242,-0.230163,-0.040041,-0.010835,-0.001382,0.04376,-0.015143,-0.004837,-0.077448,-0.996985,0.004837017218348327
1762016267.128106,0.036267,-0.00288,-0.003039,0.999333,-0.219494,-0.029945,0.000436,-0.002258,0.04175,-0.015033,-0.005536,-0.072504,-0.997353,0.005536026938115061
1762016267.157017,0.034116,-0.00315,-0.003029,0.999408,-0.188695,-0.02035,0.000404,-0.001246,0.039879,-0.013488,-0.00609,-0.068211,-0.997652,0.0060900396495353224
1762016267.158804,0.032378,-0.00339,-0.003,0.999465,-0.153272,-0.023838,0.001802,-0.00497,0.042337,-0.014076,-0.006583,-0.064742,-0.99788,0.006583049664585363
1762016267.188469,0.030889,-0.003601,-0.003018,0.999512,-0.128478,-0.022038,0.00131,-0.005267,0.042533,-0.014123,-0.007013,-0.06177,-0.998066,0.007013055890044354
1762016267.218683,0.029592,-0.003803,-0.003035,0.99955,-0.119515,-0.021548,-0.005432,-0.003896,0.041408,-0.013209,-0.007423,-0.059182,-0.99822,0.0074230652814167705
1762016267.220768,0.028415,-0.004017,-0.003111,0.999583,-0.104354,-0.019588,-0.007701,-0.004605,0.038892,-0.013144,-0.007854,-0.056831,-0.998353,0.007854080118072222
1762016267.249089,0.027334,-0.004201,-0.003246,0.999612,-0.096035,-0.012366,-0.013618,-0.003682,0.040414,-0.00982,-0.008222,-0.054675,-0.99847,0.008222095525917303
1762016267.255466,0.026356,-0.004299,-0.003373,0.999638,-0.085504,-0.011108,-0.013845,-0.004786,0.035472,-0.006905,-0.008418,-0.052723,-0.998574,0.008418096852082151
1762016267.285782,0.025533,-0.004437,-0.003495,0.999658,-0.062237,-0.013103,-0.01291,-0.004232,0.0288,-0.005642,-0.008693,-0.051079,-0.998657,0.008693107593772228
1762016267.325059,0.024871,-0.004578,-0.003679,0.999673,-0.051838,-0.010734,-0.014233,-0.005198,0.030753,-0.00649,-0.00897,-0.04976,-0.998721,0.00897011960115391
1762016267.325324,0.024338,-0.00465,-0.003823,0.999686,-0.043744,-0.003492,-0.009578,-0.006492,0.027177,-0.006547,-0.009112,-0.048695,-0.998772,0.009112127284039597
1762016267.350729,0.023795,-0.004684,-0.003911,0.999698,-0.041579,0.00461,-0.004147,-0.006458,0.024174,-0.001117,-0.009179,-0.047612,-0.998824,0.009179126423109052
1762016267.354785,0.023433,-0.004688,-0.003907,0.999707,-0.016196,0.000768,0.001578,-0.005946,0.015574,-0.002955,-0.009189,-0.04689,-0.998858,0.00918912741914979
1762016267.421006,0.023356,-0.004585,-0.003871,0.999709,-0.011967,0.01155,0.002417,-0.006868,0.013164,-0.004746,-0.008986,-0.046733,-0.998867,0.00898612091502837
1762016267.421339,0.023278,-0.004482,-0.003836,0.999712,-0.007739,0.022332,0.003256,-0.00779,0.010755,-0.006538,-0.008783,-0.046577,-0.998876,0.008783113709996142
1762016267.421567,0.02312,-0.004259,-0.003796,0.999716,-0.010326,0.019631,0.001695,-0.005541,0.004313,-0.00329,-0.00834,-0.04626,-0.998895,0.008340093498383024
1762016267.436665,0.022997,-0.004073,-0.003829,0.99972,0.000125,0.010407,0.003699,-0.006311,0.004306,-0.003288,-0.007967,-0.046012,-0.998909,0.007967085210228299
1762016267.465574,0.023024,-0.003971,-0.003847,0.99972,0.006457,0.016433,-0.006364,-0.003911,-0.002087,-0.00662,-0.007762,-0.046065,-0.998908,0.007762080174126453
1762016267.49567,0.023127,-0.003822,-0.003952,0.999717,0.008766,0.018808,-0.014641,-0.002202,-0.000786,-0.00726,-0.007459,-0.046271,-0.998901,0.007459069727126793
1762016267.496491,0.023106,-0.003606,-0.004049,0.999718,-0.002754,0.021366,-0.012818,-0.002501,-0.003426,-0.004509,-0.007022,-0.046228,-0.998906,0.007022059347253566
1762016267.531391,0.023055,-0.003406,-0.004162,0.99972,0.000669,0.015951,-0.010537,-0.001571,-0.005246,-0.001474,-0.006619,-0.046125,-0.998914,0.006619046656719925
1762016267.547488,0.023088,-0.003249,-0.004301,0.999719,0.001488,0.011303,-0.011486,-0.000489,-0.002832,-0.002692,-0.006297,-0.046192,-0.998913,0.006297039932382883
1762016267.575791,0.023028,-0.003154,-0.004418,0.99972,-0.013895,0.007806,-0.010993,-0.001531,-0.000989,0.001099,-0.006102,-0.046071,-0.99892,0.006102035006607014
1762016267.577197,0.022796,-0.003155,-0.004525,0.999725,-0.029913,-0.002705,-0.011489,-0.002749,0.000164,0.004376,-0.006102,-0.045607,-0.998941,0.006102036786930495
1762016267.606824,0.022523,-0.003292,-0.0046,0.99973,-0.021807,-0.015782,-0.002716,-0.001806,-0.005827,0.004908,-0.006374,-0.045063,-0.998964,0.00637404196553772
1762016267.637424,0.022321,-0.003409,-0.004609,0.999734,-0.015433,-0.006723,0.003451,-0.001901,-0.003058,-0.000731,-0.006611,-0.044662,-0.99898,0.006611050008163574
1762016267.639432,0.022155,-0.00344,-0.00458,0.999738,-0.022584,0.001609,0.002046,-0.002181,-0.006493,-2.1e-05,-0.006676,-0.044329,-0.998995,0.006676047457572251
1762016267.672755,0.021879,-0.003411,-0.004557,0.999744,-0.030027,-0.000122,0.005131,-0.00258,-0.004989,0.005372,-0.00662,-0.043779,-0.999019,0.006620050380957655
1762016267.674009,0.021577,-0.00341,-0.004498,0.999751,-0.033558,-0.000436,0.00051,-0.001739,-0.003807,0.00275,-0.006624,-0.043175,-0.999046,0.006624045566314868
1762016267.726397,0.021096,-0.00343,-0.004524,0.999761,-0.051321,-0.000319,-0.005036,-0.00165,-0.002376,0.001981,-0.006667,-0.042212,-0.999086,0.006667052267224665
1762016267.726758,0.020614,-0.00345,-0.004549,0.999771,-0.069085,-0.000202,-0.010582,-0.001561,-0.000944,0.00121,-0.00671,-0.04125,-0.999126,0.006710052532175174
1762016267.75665,0.019904,-0.003503,-0.004656,0.999785,-0.071522,-0.015393,-0.0144,-0.002147,-0.003652,0.005439,-0.006818,-0.039833,-0.999183,0.006818053435623883
1762016267.774575,0.019175,-0.003729,-0.004788,0.999798,-0.071447,-0.021278,-0.014105,-0.001601,0.001989,0.001054,-0.007273,-0.038377,-0.999237,0.007273063128774122
1762016267.803729,0.018437,-0.003924,-0.004872,0.99981,-0.071027,-0.019238,-0.006425,-0.00082,0.004288,-0.002097,-0.007667,-0.036905,-0.999289,0.007667077925094035
1762016267.831742,0.017746,-0.004081,-0.004891,0.999822,-0.06711,-0.012878,-0.001586,-0.000451,0.006904,-0.003746,-0.007988,-0.035526,-0.999337,0.007988083576815165
1762016267.833634,0.017115,-0.004198,-0.004898,0.999833,-0.058874,-0.009607,0.001082,-0.000697,0.007619,-0.003198,-0.008227,-0.034266,-0.999379,0.008227091870620418
1762016267.863114,0.016575,-0.00429,-0.004885,0.999841,-0.0485,-0.009335,-8.1e-05,-0.001961,0.007622,-0.003083,-0.008417,-0.033186,-0.999414,0.008417097284320284
1762016267.893054,0.016121,-0.004406,-0.004893,0.999848,-0.038675,-0.008553,-0.002092,-0.000879,0.007788,-0.003478,-0.008653,-0.03228,-0.999441,0.008653111509992213
1762016267.894102,0.015748,-0.004512,-0.004933,0.999854,-0.029951,-0.007972,-0.006748,-0.00091,0.008059,-0.003063,-0.008868,-0.031535,-0.999463,0.00886811895864265
1762016267.92441,0.015474,-0.004599,-0.005029,0.999857,-0.025204,-0.007822,-0.011815,-0.001167,0.00901,-0.002936,-0.009041,-0.030991,-0.999479,0.00904112112381948
1762016267.954207,0.015226,-0.004683,-0.00515,0.99986,-0.022951,-0.006981,-0.012249,-0.001536,0.0103,-0.002951,-0.009208,-0.030496,-0.999492,0.009208134492953211
1762016267.955292,0.014992,-0.004751,-0.005266,0.999862,-0.018224,-0.007036,-0.009756,-0.00134,0.009332,-0.002111,-0.009343,-0.03003,-0.999505,0.009343139027645454
1762016267.990741,0.014799,-0.004834,-0.005355,0.999864,-0.013584,-0.006352,-0.008207,-0.00165,0.00936,-0.001428,-0.009508,-0.029646,-0.999515,0.009508145532604801
1762016267.992326,0.014651,-0.004917,-0.005433,0.999866,-0.010912,-0.006889,-0.005203,-0.002141,0.008005,-0.001788,-0.009673,-0.029351,-0.999522,0.009673154350657734
1762016268.026481,0.014503,-0.004992,-0.005485,0.999867,-0.010531,-0.006842,-0.003886,-0.002683,0.005951,0.000199,-0.009823,-0.029056,-0.99953,0.009823153247455118
1762016268.056116,0.014377,-0.005076,-0.005517,0.999869,-0.00836,-0.006738,-0.002224,-0.003064,0.004239,0.000477,-0.009992,-0.028805,-0.999535,0.0099921673520783
1762016268.058603,0.014298,-0.005163,-0.005552,0.999869,-0.003614,-0.006424,-0.003721,-0.002267,0.0027,-0.000275,-0.010165,-0.028649,-0.999538,0.010165173507016123
1762016268.113949,0.014252,-0.005224,-0.005599,0.999869,-0.00594,-0.005033,-0.003914,-0.00239,0.002329,-0.000108,-0.010287,-0.028558,-0.999539,0.010287183528157638
1762016268.114239,0.014205,-0.005286,-0.005646,0.999869,-0.008267,-0.003643,-0.004107,-0.002513,0.001957,5.8e-05,-0.01041,-0.028467,-0.999541,0.010410183088690479
1762016268.119351,0.014129,-0.005359,-0.005704,0.99987,-0.006091,-0.005566,-0.003563,-0.00305,-0.000684,0.001267,-0.010555,-0.028316,-0.999543,0.01055519909460153
1762016268.149274,0.01412,-0.005461,-0.005764,0.999869,0.003519,-0.011599,-0.006771,-0.00348,-0.000413,-0.000408,-0.010757,-0.0283,-0.999542,0.010757203093049405
1762016268.154149,0.014169,-0.005566,-0.005855,0.999867,0.004003,-0.007881,-0.008584,-0.003574,0.002309,-0.003137,-0.010964,-0.028399,-0.999537,0.010964214592955565
1762016268.184669,0.014178,-0.005617,-0.005963,0.999866,-0.005184,-0.001432,-0.008253,-0.00295,0.00303,-0.003245,-0.011064,-0.02842,-0.999535,0.01106422394387416
1762016268.212981,0.014072,-0.005649,-0.00608,0.999867,-0.010634,-0.006249,-0.011467,-0.003551,0.001792,0.002068,-0.011126,-0.028208,-0.99954,0.011126231277292589
1762016268.21492,0.013937,-0.00574,-0.006235,0.999867,-0.013978,-0.01286,-0.017262,-0.003015,0.002052,0.001462,-0.011304,-0.027941,-0.999546,0.011304236874556306
1762016268.244302,0.013797,-0.005877,-0.006437,0.999867,-0.013521,-0.013723,-0.02131,-0.002341,0.001662,0.000897,-0.011575,-0.027666,-0.99955,0.011575260855633668
1762016268.27775,0.01364,-0.006063,-0.00669,0.999866,-0.015891,-0.016297,-0.025005,-0.00168,0.002119,-8.3e-05,-0.011942,-0.027357,-0.999554,0.011942288545587605
1762016268.279526,0.013466,-0.006233,-0.006947,0.999866,-0.01273,-0.020487,-0.025976,-0.002837,0.001312,0.002908,-0.012278,-0.027016,-0.99956,0.012278303548810354
1762016268.325335,0.013368,-0.006431,-0.007177,0.999864,-0.009851,-0.018451,-0.022325,-0.003152,0.002791,0.000658,-0.012668,-0.026824,-0.99956,0.012668337588194054
1762016268.325644,0.013269,-0.006628,-0.007408,0.999863,-0.006973,-0.016415,-0.018674,-0.003468,0.00427,-0.001592,-0.013058,-0.026633,-0.99956,0.013058370976657331
1762016268.354213,0.013154,-0.006777,-0.007562,0.999862,-0.012007,-0.008744,-0.010935,-0.004435,0.004489,-0.00204,-0.013354,-0.026406,-0.999562,0.013354398282369522
1762016268.356343,0.013021,-0.006884,-0.007649,0.999862,-0.010482,-0.010964,-0.003408,-0.004059,0.003553,-0.002806,-0.013567,-0.026143,-0.999566,0.013567418211672977
1762016268.385605,0.012893,-0.006965,-0.007668,0.999863,-0.007464,-0.005157,0.000195,-0.004189,0.003592,-0.00361,-0.01373,-0.02589,-0.99957,0.013730438351946735
1762016268.393382,0.012823,-0.006984,-0.007648,0.999864,-0.006287,0.000753,0.003184,-0.003631,0.002638,-0.003115,-0.01377,-0.02575,-0.999574,0.013770429298593338
1762016268.423382,0.012718,-0.006983,-0.007595,0.999866,-0.007148,0.002509,0.00444,-0.003023,0.000919,-0.000925,-0.013771,-0.025539,-0.999579,0.013771434892772282
1762016268.453127,0.012612,-0.006936,-0.007553,0.999868,-0.006997,0.003925,0.002884,-0.003135,-0.000914,0.000473,-0.01368,-0.025326,-0.999586,0.01368042179485811
1762016268.453284,0.012527,-0.006896,-0.00753,0.999869,-0.005399,0.004858,0.000154,-0.001964,-0.000271,0.000141,-0.013602,-0.025154,-0.999591,0.013602420106005153
1762016268.482133,0.012467,-0.006823,-0.007544,0.999871,-0.007881,0.005611,-0.000912,-0.003221,0.001406,0.000377,-0.013457,-0.025034,-0.999596,0.013457406491016921
1762016268.516144,0.012352,-0.006785,-0.007544,0.999872,-0.013787,0.002922,0.00097,-0.002848,0.001876,0.000653,-0.013381,-0.024804,-0.999603,0.013381396353943434
1762016268.518265,0.012196,-0.006794,-0.007536,0.999874,-0.013161,-0.001029,0.002515,-0.002732,0.001732,0.000421,-0.013402,-0.024492,-0.99961,0.013402403750708582
1762016268.546753,0.012084,-0.006822,-0.007512,0.999875,-0.009654,-9.8e-05,0.002855,-0.002173,0.001886,-0.002219,-0.01346,-0.024267,-0.999615,0.013460405067424588
1762016268.553054,0.011972,-0.006803,-0.007504,0.999877,-0.011714,0.004675,0.000741,-0.003105,0.002355,-0.002177,-0.013425,-0.024043,-0.999621,0.013425400344196122
1762016268.583232,0.011839,-0.006729,-0.00752,0.999879,-0.013939,0.008887,-0.002031,-0.002426,0.001426,-0.001184,-0.013278,-0.023776,-0.999629,0.013278391913533631
1762016268.672827,0.011784,-0.006625,-0.007593,0.99988,-0.011163,0.008588,-0.003141,-0.002276,0.001698,-0.000304,-0.013069,-0.023665,-0.999635,0.013069365755594342
1762016268.673112,0.011729,-0.006521,-0.007667,0.999881,-0.008386,0.008289,-0.00425,-0.002126,0.001969,0.000577,-0.01286,-0.023555,-0.99964,0.012860352257150594
1762016268.673728,0.011619,-0.006313,-0.007815,0.999882,-0.002833,0.007691,-0.006469,-0.001827,0.002511,0.002337,-0.012443,-0.023335,-0.99965,0.012443324389504266
1762016268.674133,0.011605,-0.006264,-0.007888,0.999882,0.000933,0.005163,-0.006486,-0.001532,0.002564,0.001283,-0.012343,-0.023307,-0.999652,0.012343315361922784
1762016268.673368,0.011674,-0.006417,-0.007741,0.999881,-0.00561,0.00799,-0.00536,-0.001976,0.00224,0.001457,-0.012652,-0.023445,-0.999645,0.012652338405586144
1762016268.703231,0.011625,-0.006229,-0.007953,0.999881,0.002109,0.003396,-0.004297,-0.00197,0.003954,0.000262,-0.012271,-0.023346,-0.999652,0.012271309607396733
1762016268.732901,0.011624,-0.006187,-0.007981,0.999881,-0.001734,0.004037,-0.001018,-0.00209,0.003395,0.000238,-0.012188,-0.023343,-0.999653,0.012188304430170766
1762016268.734118,0.011586,-0.006176,-0.007953,0.999882,-0.00049,0.001752,0.004108,-0.002258,0.003173,0.000962,-0.012167,-0.023267,-0.999655,0.012167303204179278
1762016268.769931,0.011621,-0.006168,-0.007886,0.999882,0.0051,0.002952,0.007887,-0.00249,0.003125,-0.000996,-0.01215,-0.023336,-0.999654,0.012150297065278093
1762016268.771974,0.011679,-0.006135,-0.007799,0.999883,0.005925,0.004091,0.007818,-0.002278,0.002602,-0.001446,-0.012086,-0.023452,-0.999652,0.012086293114798731
1762016268.800474,0.011687,-0.006075,-0.007727,0.999883,-0.001496,0.008007,0.007177,-0.0032,0.001518,-0.000631,-0.011968,-0.023465,-0.999653,0.011968285961978825
1762016268.831109,0.011654,-0.006034,-0.007662,0.999885,-0.002378,0.002648,0.004592,-0.002341,-0.00099,0.001558,-0.011889,-0.023398,-0.999656,0.011889274552545372
1762016268.833212,0.011652,-0.006025,-0.007613,0.999885,-0.000216,0.000129,0.001525,-0.002125,-0.000495,0.000171,-0.011872,-0.023392,-0.999656,0.011872277425132974
1762016268.861731,0.01166,-0.006041,-0.007622,0.999885,0.000481,0.00066,-0.00153,-0.002233,0.000199,-0.00166,-0.011903,-0.02341,-0.999655,0.011903282110775954
1762016268.925276,0.011669,-0.006037,-0.007634,0.999885,0.000215,0.001296,-0.001923,-0.002323,0.001132,-0.001744,-0.011894,-0.023427,-0.999655,0.011894278011120868
1762016268.925625,0.011677,-0.006032,-0.007645,0.999884,-5e-05,0.001932,-0.002316,-0.002412,0.002066,-0.001828,-0.011884,-0.023444,-0.999655,0.011884273984388091
1762016268.92585,0.011686,-0.006028,-0.007656,0.999884,-0.000316,0.002568,-0.002709,-0.002501,0.002999,-0.001913,-0.011875,-0.023461,-0.999654,0.011875281760268459
1762016268.931955,0.011655,-0.005986,-0.007667,0.999885,-0.007279,0.002747,-0.003166,-0.003156,0.003628,-0.001289,-0.011792,-0.0234,-0.999657,0.011792269001218167
1762016268.962287,0.011564,-0.005968,-0.007676,0.999886,-0.007484,-0.000555,-0.00045,-0.002281,0.001124,7.9e-05,-0.011756,-0.023218,-0.999661,0.011756274366064396
1762016268.992515,0.011507,-0.005992,-0.00768,0.999886,-0.002618,-0.0021,-0.001532,-0.002095,0.000463,-0.00051,-0.011806,-0.023103,-0.999663,0.011806278737881988
1762016268.994624,0.011493,-0.006002,-0.007721,0.999886,0.000601,0.002473,-0.004435,-0.00308,0.000122,-0.001323,-0.011825,-0.023075,-0.999664,0.011825273240083898
1762016269.0254,0.011488,-0.00598,-0.007779,0.999886,3.5e-05,0.005206,-0.006086,-0.002895,0.00056,-0.000851,-0.011779,-0.023067,-0.999665,0.011779266838805686
1762016269.031616,0.011466,-0.005913,-0.00783,0.999886,-0.000926,0.005064,-0.00533,-0.003804,0.001883,0.000685,-0.011646,-0.023021,-0.999667,0.011646264980887609
1762016269.062254,0.011467,-0.005883,-0.007893,0.999886,0.000647,0.004329,-0.004647,-0.003044,0.001693,-0.000321,-0.011583,-0.023025,-0.999668,0.01158325655126929
1762016269.092618,0.011499,-0.005819,-0.007942,0.999885,0.002319,0.006879,-0.004334,-0.003885,0.001601,-0.000573,-0.011454,-0.023087,-0.999668,0.01145424866648012
1762016269.092896,0.011543,-0.005741,-0.007984,0.999885,0.005022,0.008986,-0.007023,-0.002815,0.000676,-0.000805,-0.011296,-0.023176,-0.999668,0.011296235514703224
1762016269.120543,0.011582,-0.005641,-0.00807,0.999884,0.005818,0.01088,-0.01066,-0.00328,0.000977,-0.000704,-0.011093,-0.023252,-0.999668,0.01109322851647636
1762016269.151147,0.011643,-0.005524,-0.008179,0.999884,0.004325,0.009935,-0.011715,-0.003481,0.003925,-0.001957,-0.010856,-0.023374,-0.999668,0.010856211580589527
1762016269.162462,0.011662,-0.005414,-0.008294,0.999883,-0.001993,0.010588,-0.010787,-0.002939,0.005841,-0.001678,-0.010632,-0.023412,-0.999669,0.010632204193075012
1762016269.193916,0.011607,-0.005342,-0.008398,0.999883,-0.005849,0.005575,-0.00794,-0.003022,0.00519,0.000798,-0.010488,-0.023301,-0.999673,0.01048819731201545
1762016269.194194,0.011541,-0.005324,-0.008482,0.999883,-0.002139,0.002331,-0.006561,-0.001789,0.002862,0.000647,-0.01045,-0.023169,-0.999677,0.010450189632107225
1762016269.226585,0.011537,-0.005298,-0.00858,0.999883,0.001482,0.00185,-0.008801,-0.001262,0.00345,0.000496,-0.010396,-0.023163,-0.999678,0.010396183605059684
1762016269.228704,0.011536,-0.00528,-0.008653,0.999882,-0.000659,0.002882,-0.005765,-0.001833,0.003574,0.001479,-0.01036,-0.02316,-0.999678,0.01036018626962536
1762016269.257839,0.011525,-0.005247,-0.008684,0.999882,0.001088,0.001628,-0.003138,-0.002117,0.00242,0.003141,-0.010293,-0.023138,-0.999679,0.010293184764825786
1762016269.290413,0.011569,-0.005255,-0.008712,0.999881,0.006839,-0.001402,-0.001866,-0.001956,0.00141,0.001214,-0.010308,-0.023227,-0.999677,0.010308183313696503
1762016269.290744,0.011628,-0.005256,-0.008738,0.99988,0.006083,-0.001642,-0.000301,-0.002035,0.001828,-0.000487,-0.010308,-0.023345,-0.999674,0.010308185904014451
1762016269.331306,0.011652,-0.005278,-0.00874,0.99988,-0.00148,-0.001783,0.001632,-0.002464,0.002146,-0.002089,-0.010351,-0.023394,-0.999673,0.010351182108912017
1762016269.333256,0.011586,-0.005272,-0.008724,0.999881,-0.006375,0.000308,0.002137,-0.003218,0.000836,0.001113,-0.01034,-0.023261,-0.999676,0.010340183770472966
1762016269.361919,0.011582,-0.005289,-0.00868,0.999881,0.000414,-0.00012,0.002228,-0.002694,-0.000838,-0.00122,-0.010375,-0.023253,-0.999676,0.01037518381549598
1762016269.376937,0.011645,-0.005308,-0.008666,0.999881,0.010165,-0.001746,0.001019,-0.002207,-2.4e-05,-0.000709,-0.010412,-0.023379,-0.999672,0.010412192848070672
1762016269.406882,0.011714,-0.005297,-0.008652,0.99988,0.003298,0.004543,-0.003147,-0.002573,0.000117,-0.000957,-0.01039,-0.023517,-0.999669,0.010390191565002005
1762016269.410615,0.011734,-0.005261,-0.008675,0.99988,0.000468,0.004771,-0.004027,-0.002153,0.000396,-0.000593,-0.010316,-0.023557,-0.999669,0.010316185756844256
1762016269.439022,0.011705,-0.00522,-0.00871,0.99988,-0.001863,0.002766,-0.002104,-0.002852,-1.2e-05,0.000248,-0.010236,-0.023498,-0.999672,0.01023617343643563
1762016269.468198,0.011705,-0.005207,-0.008737,0.99988,-0.003913,0.002237,-0.001442,-0.002608,0.000864,-0.000542,-0.010209,-0.023497,-0.999672,0.010209175097415923
1762016269.46898,0.011625,-0.005202,-0.008753,0.999881,-0.010116,0.002956,-0.00281,-0.003538,0.001591,-0.001062,-0.010199,-0.023338,-0.999676,0.010199172811662138
1762016269.525293,0.011546,-0.005166,-0.008784,0.999881,-0.007501,0.004349,-0.004104,-0.003347,0.001907,-0.001396,-0.010129,-0.02318,-0.99968,0.010129173150280413
1762016269.525629,0.011467,-0.005131,-0.008814,0.999882,-0.004887,0.005742,-0.005398,-0.003156,0.002223,-0.00173,-0.010058,-0.023022,-0.999684,0.010058173233910507
1762016269.529884,0.011412,-0.005051,-0.008884,0.999883,-0.006014,0.009586,-0.007262,-0.00405,0.0031,-0.001664,-0.009899,-0.022911,-0.999689,0.009899156720717756
1762016269.558252,0.011329,-0.004934,-0.008968,0.999883,-0.006869,0.010536,-0.00729,-0.004314,0.001359,0.000484,-0.009664,-0.022743,-0.999695,0.009664146903768888
1762016269.588623,0.011279,-0.004868,-0.009053,0.999884,-0.000753,0.007123,-0.010909,-0.002503,-3e-05,-0.000661,-0.009531,-0.022645,-0.999698,0.009531145605312406
1762016269.590803,0.011288,-0.004799,-0.009161,0.999883,0.00416,0.008227,-0.013841,-0.001225,0.000872,-0.001151,-0.009391,-0.02266,-0.999699,0.00939113917957749
1762016269.619137,0.011292,-0.004731,-0.009309,0.999882,-0.002001,0.006452,-0.01305,-0.001659,0.002003,-0.001148,-0.009251,-0.02267,-0.9997,0.009251133807459625
1762016269.663852,0.011222,-0.004714,-0.009441,0.999881,-0.003453,0.002705,-0.011616,-0.002013,0.001858,-0.00065,-0.009215,-0.022531,-0.999704,0.009215127428064305
1762016269.664089,0.011152,-0.004697,-0.009573,0.999881,-0.004904,-0.001042,-0.010183,-0.002367,0.001713,-0.000153,-0.009179,-0.022392,-0.999707,0.009179130085715706
1762016269.668472,0.011092,-0.004708,-0.009679,0.99988,-0.004711,-0.002912,-0.007824,-0.002487,0.002898,-0.001206,-0.009201,-0.022273,-0.99971,0.009201126014492387
1762016269.696754,0.011024,-0.004727,-0.009763,0.99988,-0.009637,-0.000359,-0.006144,-0.002999,0.003976,-0.00135,-0.009238,-0.022137,-0.999712,0.009238133847717564
1762016269.727774,0.010875,-0.004716,-0.009798,0.999882,-0.016124,0.000505,-0.00125,-0.002995,0.003937,-0.000141,-0.009218,-0.021839,-0.999719,0.009218130584578849
1762016269.729612,0.010677,-0.004716,-0.009761,0.999884,-0.017109,0.001119,0.005124,-0.002663,0.00255,-0.000723,-0.009222,-0.021444,-0.999728,0.009222126272551527
1762016269.758043,0.010502,-0.0047,-0.009686,0.999887,-0.014152,0.003627,0.006603,-0.002709,0.001604,-0.000575,-0.009196,-0.021093,-0.999735,0.009196131680316062
1762016269.790487,0.010352,-0.004666,-0.009585,0.99989,-0.014715,0.003597,0.008625,-0.003127,0.002181,0.000189,-0.009133,-0.02079,-0.999742,0.009133128330520584
1762016269.790725,0.010183,-0.004626,-0.009502,0.999892,-0.016855,0.002535,0.004361,-0.003491,0.002063,0.000906,-0.009058,-0.020452,-0.99975,0.009058122083484386
1762016269.82913,0.010013,-0.00465,-0.00944,0.999895,-0.009639,-0.003157,0.001637,-0.003244,0.001034,0.000503,-0.00911,-0.020113,-0.999756,0.009110127907492452
1762016269.829412,0.009925,-0.004689,-0.009445,0.999895,-0.004177,-0.003806,-0.003292,-0.003331,0.002367,-0.002228,-0.00919,-0.019936,-0.999759,0.009190129555235007
1762016269.860976,0.009859,-0.004708,-0.009476,0.999895,-0.00552,-0.000318,-0.00528,-0.004557,0.00332,-0.002756,-0.009227,-0.019806,-0.999761,0.009227133367059489
1762016269.908048,0.009824,-0.00471,-0.009523,0.999895,-0.000501,0.000957,-0.004997,-0.00407,0.002495,-0.002975,-0.009232,-0.019735,-0.999763,0.009232127654470056
1762016269.908383,0.009788,-0.004713,-0.009569,0.999895,0.004518,0.002233,-0.004714,-0.003584,0.001669,-0.003194,-0.009237,-0.019665,-0.999764,0.009237130942424357
1762016269.909857,0.009832,-0.00467,-0.009633,0.999894,0.009703,0.006854,-0.007605,-0.002365,0.001413,-0.001903,-0.00915,-0.019752,-0.999763,0.009150128046846815
1762016269.939281,0.009913,-0.004564,-0.009724,0.999893,0.006748,0.01218,-0.008114,-0.003405,0.002249,-0.001241,-0.008934,-0.019912,-0.999762,0.008934117239315614
1762016269.969848,0.009964,-0.004479,-0.009792,0.999892,0.004749,0.006928,-0.003957,-0.003037,0.00104,0.002112,-0.008762,-0.020013,-0.999761,0.008762114965574429
1762016269.971834,0.010039,-0.004446,-0.009846,0.999891,0.007966,0.001699,-0.003117,-0.001977,0.000241,0.001177,-0.008693,-0.020163,-0.999759,0.0086931087379876
1762016270.000803,0.010137,-0.004444,-0.009874,0.99989,0.008727,0.001454,-0.002954,-0.001508,0.001192,-0.000505,-0.008687,-0.02036,-0.999755,0.00868710903016595
1762016270.03518,0.010193,-0.004425,-0.009907,0.999889,0.001741,0.005509,-0.002561,-0.001609,0.001682,-0.002899,-0.008648,-0.020472,-0.999753,0.008648108006796886
1762016270.036011,0.010168,-0.004348,-0.009925,0.99989,-0.004616,0.008334,-0.001338,-0.002822,0.001409,-0.001551,-0.008493,-0.02042,-0.999755,0.008493105640265489
1762016270.068891,0.010093,-0.004258,-0.009946,0.99989,-0.006541,0.00667,-0.003088,-0.001971,0.001713,-0.000813,-0.008314,-0.020269,-0.99976,0.008314095731655341
1762016270.069176,0.010052,-0.004188,-0.009984,0.999891,-0.003803,0.004823,-0.004866,-0.00149,0.002658,0.0003,-0.008175,-0.020186,-0.999763,0.008175089582234504
1762016270.126717,0.009988,-0.00416,-0.010055,0.999891,-0.007184,0.003535,-0.005903,-0.001746,0.003295,0.00129,-0.008118,-0.020058,-0.999766,0.008118088031211735
1762016270.12703,0.009924,-0.004132,-0.010127,0.999891,-0.010565,0.002248,-0.006939,-0.002002,0.003932,0.00228,-0.008062,-0.01993,-0.999769,0.008062086310973124
1762016270.128423,0.009854,-0.004135,-0.010196,0.999891,-0.004784,-0.002399,-0.006054,-0.001956,0.002397,0.001953,-0.008069,-0.01979,-0.999772,0.008069084315746705
1762016270.156776,0.009821,-0.004171,-0.010267,0.99989,0.000257,-0.003427,-0.005322,-0.00236,0.001922,0.000911,-0.00814,-0.019725,-0.999772,0.00814009238901422
1762016270.187452,0.009834,-0.004195,-0.01032,0.99989,0.000354,-0.00145,-0.003763,-0.002396,0.001691,-0.000326,-0.008186,-0.019752,-0.999771,0.008186094683471536
1762016270.188708,0.009839,-0.004205,-0.010341,0.999889,4e-06,-0.001407,-0.00232,-0.00335,0.001034,-9.5e-05,-0.008205,-0.019763,-0.999771,0.008205092268185074
1762016270.217844,0.009836,-0.004249,-0.010361,0.999889,0.000187,-0.003255,8.5e-05,-0.003215,0.00148,-0.001645,-0.008293,-0.019758,-0.99977,0.008293098355148515
1762016270.248928,0.009819,-0.004279,-0.01038,0.999889,-0.002134,-0.000552,-0.000342,-0.004518,0.002109,-0.000804,-0.008354,-0.019726,-0.999771,0.008354093176214704
1762016270.250892,0.009795,-0.004333,-0.010355,0.999889,-0.005011,-0.003236,0.003606,-0.00296,0.000786,-0.000919,-0.008463,-0.019678,-0.999771,0.008463097224496645
1762016270.27926,0.009725,-0.004394,-0.010331,0.99989,-0.004926,-0.005585,0.002879,-0.0027,-0.001387,0.001606,-0.008586,-0.019538,-0.999772,0.008586107621825125
1762016270.31019,0.009694,-0.004435,-0.010343,0.99989,-0.001151,-0.000688,-0.000521,-0.001962,-0.002451,-0.001534,-0.008669,-0.019479,-0.999773,0.008669105834675915
1762016270.311457,0.009712,-0.004438,-0.010383,0.999889,0.004456,0.001637,-0.002948,-0.002506,-0.000823,-0.0013,-0.008673,-0.019513,-0.999772,0.008673108605078049
1762016270.34066,0.009736,-0.004397,-0.010431,0.999889,0.000302,0.002897,-0.00319,-0.002246,0.001873,4e-05,-0.008589,-0.019562,-0.999772,0.008589103481802094
1762016270.371168,0.009684,-0.004414,-0.010468,0.999889,-0.007643,0.000168,-0.002388,-0.003027,0.002778,0.001716,-0.008625,-0.019459,-0.999773,0.008625110843775294
1762016270.371388,0.009617,-0.004465,-0.01048,0.999889,-0.007483,-0.006435,-0.002152,-0.003051,0.001261,0.000798,-0.008728,-0.019325,-0.999775,0.00872811219542857
1762016270.427845,0.009548,-0.004547,-0.010502,0.999889,-0.008447,-0.003825,-0.001927,-0.003956,0.002302,-0.000695,-0.008892,-0.019189,-0.999776,0.00889212013666156
1762016270.428232,0.009479,-0.004629,-0.010524,0.999889,-0.009411,-0.001214,-0.001702,-0.004861,0.003343,-0.002189,-0.009057,-0.019053,-0.999777,0.009057127922621595
1762016270.443301,0.009395,-0.004653,-0.010539,0.999889,-0.008918,-0.000494,0.000251,-0.005175,0.002838,-0.000999,-0.009106,-0.018886,-0.99978,0.00910612744830168
1762016270.473526,0.009292,-0.00465,-0.010538,0.99989,-0.006667,0.001785,0.000362,-0.004382,0.000995,-0.001607,-0.009102,-0.01868,-0.999784,0.00910212643153314
1762016270.473771,0.009254,-0.004625,-0.010548,0.999891,-0.001105,0.002897,-0.004059,-0.003678,0.001051,-0.002681,-0.009053,-0.018604,-0.999786,0.009053123159358373
1762016270.502031,0.009244,-0.004562,-0.010605,0.999891,-0.001225,0.004079,-0.006143,-0.003466,0.001539,-0.00183,-0.008926,-0.018583,-0.999787,0.008926122786422934
1762016270.532391,0.009212,-0.00451,-0.010701,0.99989,-0.004547,0.004728,-0.01005,-0.003939,0.00281,8.7e-05,-0.008822,-0.018519,-0.99979,0.008822110796791953
1762016270.534418,0.009169,-0.004486,-0.010801,0.999889,-0.001093,0.000692,-0.009738,-0.002891,0.001532,0.00153,-0.008774,-0.018434,-0.999792,0.00877410889931951
1762016270.563485,0.009191,-0.00451,-0.010899,0.999888,0.005306,-0.000736,-0.008844,-0.00163,0.002116,-0.000881,-0.008819,-0.018479,-0.99979,0.008819117440654646
1762016270.569199,0.009243,-0.00451,-0.010984,0.999887,0.003071,0.001181,-0.006734,-0.002313,0.004537,-0.002085,-0.008816,-0.018583,-0.999788,0.008816118194076721
1762016270.622815,0.009212,-0.004488,-0.011006,0.999887,0.001395,-0.000227,-0.003101,-0.002807,0.002695,-0.000416,-0.008771,-0.018522,-0.99979,0.008771112292225665
1762016270.623109,0.009182,-0.004465,-0.011029,0.999887,-0.000282,-0.001635,0.000533,-0.003301,0.000853,0.001252,-0.008726,-0.01846,-0.999792,0.008726106561559704
1762016270.624822,0.009182,-0.004491,-0.011006,0.999887,0.004466,-0.00214,0.000978,-0.002381,0.000701,0.000275,-0.00878,-0.018461,-0.999791,0.008780113070706011
1762016270.661198,0.00921,-0.004517,-0.010989,0.999887,0.00253,-0.002908,-0.001149,-0.002035,0.000645,-9.2e-05,-0.008831,-0.018518,-0.99979,0.008831110605676063
1762016270.690453,0.009172,-0.004572,-0.010981,0.999887,-0.003451,-0.002358,-0.000162,-0.002479,0.000815,-0.000327,-0.008943,-0.018442,-0.99979,0.008943118634816897
1762016270.692586,0.009125,-0.004626,-0.010965,0.999887,-0.001975,-0.003388,-0.00092,-0.002345,-0.000137,-0.000318,-0.00905,-0.018349,-0.999791,0.009050120680989813
1762016270.728709,0.009105,-0.004663,-0.010983,0.999887,-0.001019,-0.002991,-0.002059,-0.00202,0.000334,-0.000314,-0.009126,-0.01831,-0.999791,0.009126124016186482
1762016270.73315,0.009095,-0.004696,-0.011012,0.999887,-0.002562,-0.00129,-0.003733,-0.002645,0.001676,-0.001367,-0.00919,-0.018291,-0.99979,0.0091901336789468
1762016270.7636,0.009046,-0.004705,-0.011042,0.999887,-0.007128,0.000668,-0.001498,-0.003285,0.001389,-0.000897,-0.009209,-0.018194,-0.999792,0.009209130763488756
1762016270.77744,0.008967,-0.004725,-0.011048,0.999888,-0.004881,-0.002684,-0.000752,-0.002364,0.000896,-0.000526,-0.009251,-0.018037,-0.999795,0.009251127532730743
1762016270.807029,0.008933,-0.004775,-0.011064,0.999887,-0.001061,-0.00399,-0.002674,-0.002604,0.000909,-0.000489,-0.009352,-0.01797,-0.999795,0.009352134348968243
1762016270.807282,0.008916,-0.004836,-0.011082,0.999887,-0.00416,-0.002044,-0.003303,-0.003926,0.000863,-0.001106,-0.009474,-0.017937,-0.999794,0.009474143933937
1762016270.836332,0.008848,-0.004875,-0.011084,0.999888,-0.006046,-0.000153,-0.004597,-0.003148,-0.000964,-0.000603,-0.009554,-0.017802,-0.999796,0.009554144245377875
1762016270.865496,0.008795,-0.004867,-0.011127,0.999888,-0.001248,0.000562,-0.00601,-0.003751,-0.000406,-0.000616,-0.009538,-0.017696,-0.999798,0.009538143847592346
1762016270.867387,0.008817,-0.004874,-0.011215,0.999886,0.00728,-0.000507,-0.009881,-0.003645,0.00294,-0.000282,-0.009548,-0.017742,-0.999797,0.009548145154767413
1762016270.896524,0.008966,-0.004927,-0.011374,0.999883,0.01556,-0.00448,-0.017465,-0.003636,0.010688,-0.006754,-0.009648,-0.018042,-0.999791,0.009648146591177601
1762016270.9265,0.009291,-0.00503,-0.011617,0.999877,0.048204,-0.01393,-0.02959,-0.004871,0.019036,-0.014487,-0.009843,-0.018696,-0.999777,0.009843156609385489
1762016270.927694,0.010013,-0.005232,-0.012011,0.999864,0.099954,-0.02412,-0.046329,-0.004848,0.033109,-0.025831,-0.010221,-0.020149,-0.999745,0.010221175333540208
1762016270.958699,0.011262,-0.005504,-0.012583,0.999842,0.148962,-0.022938,-0.064094,-0.004605,0.050729,-0.038138,-0.010722,-0.022659,-0.999686,0.010722202818539748
1762016271.024022,0.013454,-0.005659,-0.013212,0.999806,0.193876,-0.015078,-0.056414,-0.005654,0.064934,-0.038808,-0.010959,-0.027052,-0.999574,0.010959218870541042
1762016271.024345,0.015646,-0.005813,-0.01384,0.999765,0.23879,-0.007218,-0.048734,-0.006708,0.079139,-0.039498,-0.011191,-0.031445,-0.999443,0.011191231719375536
1762016271.024715,0.017837,-0.005968,-0.014469,0.999718,0.283703,0.000642,-0.041053,-0.007767,0.093343,-0.040206,-0.011417,-0.035837,-0.999292,0.011417252956078077
1762016271.025058,0.020805,-0.006111,-0.0149,0.999654,0.342991,-0.013881,-0.033526,-0.012673,0.104126,-0.038265,-0.011597,-0.041777,-0.99906,0.01159725595196853
1762016271.057616,0.024401,-0.006311,-0.015221,0.999566,0.395632,-0.021087,-0.030435,-0.014303,0.104116,-0.033739,-0.011873,-0.048973,-0.99873,0.011873273414614562
1762016271.089427,0.028586,-0.006585,-0.015578,0.999448,0.458815,-0.023362,-0.044325,-0.0157,0.097286,-0.028745,-0.012273,-0.057345,-0.998279,0.012273307897959305
1762016271.089679,0.033485,-0.006839,-0.016111,0.999286,0.535481,-0.016725,-0.067613,-0.018044,0.090289,-0.021121,-0.01259,-0.067143,-0.997664,0.012590331698316441
1762016271.120003,0.039181,-0.007096,-0.016859,0.999065,0.614905,-0.016754,-0.085807,-0.018989,0.091211,-0.019091,-0.012858,-0.078528,-0.996829,0.01285835413051589
1762016271.124821,0.04552,-0.007223,-0.017702,0.99878,0.668789,0.007791,-0.093915,-0.019379,0.092029,-0.017039,-0.012818,-0.091185,-0.995751,0.01281835705704737
1762016271.155304,0.052305,-0.007136,-0.01857,0.998433,0.707503,0.021976,-0.091188,-0.01961,0.089007,-0.010228,-0.012306,-0.104711,-0.994427,0.012306305146341524
1762016271.163343,0.059417,-0.006903,-0.019371,0.998021,0.730128,0.043847,-0.086928,-0.017442,0.083869,-0.005021,-0.011476,-0.118866,-0.992844,0.011476251721796957
1762016271.200348,0.066701,-0.006522,-0.020038,0.99755,0.751747,0.053468,-0.066003,-0.016312,0.075751,0.002204,-0.010338,-0.133338,-0.991017,0.010338181099290947
1762016271.205384,0.074112,-0.006075,-0.020529,0.99702,0.759777,0.053711,-0.052114,-0.01278,0.06951,0.007649,-0.00907,-0.148032,-0.988941,0.009070124183001974
1762016271.233168,0.081529,-0.005687,-0.020919,0.996435,0.73833,0.058028,-0.042061,-0.007534,0.071782,0.002549,-0.007922,-0.162714,-0.986641,0.0079220865606087
1762016271.276589,0.08839,-0.005136,-0.020845,0.995855,0.69735,0.06354,-0.00631,-0.005432,0.064389,0.00939,-0.006545,-0.176261,-0.984322,0.0065450448412397635
1762016271.276904,0.095247,-0.004586,-0.02077,0.995226,0.656369,0.069051,0.02944,-0.003328,0.056963,0.016044,-0.005171,-0.189775,-0.981814,0.005171022992141288
1762016271.305332,0.101575,-0.004031,-0.020263,0.994613,0.611829,0.076292,0.061626,-0.001597,0.042048,0.020461,-0.003901,-0.202218,-0.979333,0.0039010089926197512
1762016271.307311,0.107371,-0.0035,-0.019465,0.994022,0.558302,0.072257,0.074369,-0.00593,0.025604,0.020372,-0.002778,-0.213594,-0.976919,0.0027780023970712005
1762016271.339041,0.112549,-0.00294,-0.018583,0.993468,0.49992,0.075638,0.080607,-0.007473,0.011365,0.028192,-0.001658,-0.223736,-0.974648,0.001658001364334931
1762016271.343576,0.117281,-0.002434,-0.01767,0.992939,0.469193,0.066914,0.07963,-0.004357,-0.005296,0.031036,-0.00069,-0.232992,-0.972478,0.0006900003277681788
1762016271.373219,0.121824,-0.001948,-0.016849,0.992407,0.457401,0.061596,0.067065,-0.002063,-0.017114,0.028758,0.000239,-0.241865,-0.97031,-0.00023899997461752692
1762016271.403703,0.126261,-0.001507,-0.01621,0.991863,0.437429,0.061303,0.045382,-0.001525,-0.02244,0.026629,0.001105,-0.250516,-0.968112,-0.001105000041538849
1762016271.405779,0.130462,-0.001045,-0.015736,0.991328,0.408331,0.05506,0.035029,-0.005271,-0.024853,0.02722,0.002034,-0.258695,-0.965957,-0.0020340012336456568
1762016271.440569,0.13434,-0.000594,-0.015349,0.990816,0.375424,0.050016,0.03099,-0.008604,-0.026909,0.029031,0.002946,-0.26623,-0.963905,-0.0029460043485059874
1762016271.441443,0.137947,-0.000255,-0.014948,0.990327,0.347479,0.036431,0.040785,-0.007272,-0.030351,0.026379,0.003618,-0.273233,-0.961941,-0.0036180081651760315
1762016271.472428,0.141252,2e-05,-0.014469,0.989868,0.31375,0.038191,0.043694,-0.004592,-0.031729,0.015975,0.004127,-0.27964,-0.960096,-0.004127011940392783
1762016271.501897,0.144155,0.000415,-0.013916,0.989457,0.263954,0.063458,0.05633,-0.004638,-0.033834,0.010619,0.004834,-0.28526,-0.958438,-0.004834018742062935
1762016271.50367,0.146647,0.001012,-0.013182,0.989101,0.230739,0.081294,0.06304,-0.003986,-0.048515,0.010615,0.005868,-0.29007,-0.956987,-0.005868036151304205
1762016271.533143,0.148865,0.001821,-0.012421,0.988778,0.214463,0.102719,0.061708,-0.00075,-0.063662,0.013961,0.007299,-0.294344,-0.955672,-0.0072990624851152685
1762016271.572443,0.151056,0.002735,-0.011703,0.988452,0.218848,0.110402,0.047546,0.00494,-0.075546,0.015632,0.008942,-0.298559,-0.954349,-0.008942121631125618
1762016271.574622,0.153198,0.003805,-0.011135,0.988125,0.214046,0.11991,0.03502,0.003061,-0.077152,0.01739,0.01093,-0.302673,-0.953032,-0.01093021543520386
1762016271.60491,0.15528,0.004962,-0.010684,0.9878,0.196867,0.126213,0.020815,0.000203,-0.077913,0.022381,0.013121,-0.306666,-0.951727,-0.013121373374847516
1762016271.60632,0.157282,0.006168,-0.010314,0.987481,0.189581,0.122871,0.016263,-0.00154,-0.079873,0.029659,0.015426,-0.310498,-0.950449,-0.015426609773380996
1762016271.636217,0.159282,0.007184,-0.009932,0.987157,0.196018,0.100971,0.02293,0.002407,-0.082992,0.029928,0.017347,-0.314331,-0.949155,-0.017347869168919738
1762016271.66533,0.161269,0.008027,-0.009597,0.986831,0.18185,0.087483,0.015224,0.005076,-0.077474,0.026076,0.018938,-0.318137,-0.947855,-0.01893914261608645
1762016271.667284,0.162935,0.008839,-0.009307,0.986553,0.136363,0.084907,0.021755,0.000405,-0.070895,0.024728,0.020473,-0.321325,-0.946748,-0.02047442354845382
1762016271.699946,0.164192,0.009555,-0.008895,0.986342,0.102187,0.071704,0.031954,-0.001702,-0.074619,0.029299,0.02177,-0.32373,-0.945899,-0.02177172034532022
1762016271.704719,0.1652,0.010101,-0.008467,0.986172,0.081965,0.050697,0.032609,-0.002746,-0.070648,0.030416,0.022721,-0.32566,-0.945214,-0.022722953278745902
1762016271.732917,0.166009,0.010448,-0.008022,0.986036,0.060505,0.032102,0.047488,0.000797,-0.064168,0.026757,0.023268,-0.327215,-0.944663,-0.023270108908880108
1762016271.774962,0.166307,0.010536,-0.00748,0.985989,0.027576,0.021074,0.050164,0.002303,-0.058494,0.024845,0.023264,-0.327797,-0.944462,-0.023266092503941183
1762016271.775235,0.166605,0.010623,-0.006938,0.985942,-0.005352,0.010047,0.052841,0.003809,-0.052819,0.022934,0.02326,-0.328379,-0.94426,-0.023262089252887277
1762016271.807688,0.166534,0.010597,-0.006392,0.985958,-0.031008,-0.001308,0.052653,0.004353,-0.050591,0.022818,0.023026,-0.328256,-0.944308,-0.02302803754060783
1762016271.80784,0.166202,0.010445,-0.00589,0.986019,-0.05259,-0.015386,0.044215,0.004451,-0.046846,0.020675,0.022556,-0.327634,-0.944536,-0.022557901056063805
1762016271.835518,0.165612,0.01019,-0.005494,0.986123,-0.07751,-0.023709,0.039023,0.00364,-0.038829,0.017113,0.021918,-0.326517,-0.944937,-0.021919758740094067
1762016271.873877,0.164674,0.009909,-0.005283,0.986284,-0.099243,-0.019428,0.024794,0.002886,-0.032083,0.007773,0.021287,-0.324725,-0.945569,-0.021288605896231258
1762016271.874166,0.163735,0.009628,-0.005071,0.986444,-0.120976,-0.015147,0.010565,0.002132,-0.025339,-0.001571,0.020656,-0.322932,-0.946197,-0.02065746389982739
1762016271.899463,0.162614,0.009507,-0.004961,0.986631,-0.121754,-0.004547,0.007669,0.001811,-0.024798,-0.00679,0.020374,-0.320786,-0.946932,-0.020375420295952986
1762016271.903639,0.161483,0.00957,-0.004941,0.986817,-0.11308,0.016138,-0.002541,-0.000104,-0.028131,-0.004519,0.020484,-0.318614,-0.947663,-0.020485436485798474
1762016271.934996,0.160546,0.009817,-0.005004,0.986967,-0.087881,0.023996,-0.022888,-0.002174,-0.03068,0.001917,0.020985,-0.316809,-0.948257,-0.020986544165418394
1762016271.964248,0.159781,0.010078,-0.005314,0.987087,-0.075522,0.015457,-0.044405,-0.00325,-0.021522,0.008688,0.021594,-0.315329,-0.948737,-0.02159567236737831
1762016271.966141,0.159006,0.010221,-0.0058,0.987208,-0.091405,-0.00113,-0.058977,-0.001087,-0.005227,0.005438,0.022025,-0.313826,-0.949225,-0.022026781558208187
1762016271.996625,0.157924,0.010266,-0.006399,0.987377,-0.131399,-0.008654,-0.060611,-0.001892,0.01035,0.003725,0.022294,-0.31173,-0.949909,-0.022295850264476808
1762016272.025878,0.156476,0.010168,-0.006931,0.987605,-0.162746,-0.030154,-0.044271,-0.002317,0.015995,0.002148,0.022253,-0.308932,-0.950824,-0.022254831938262484
1762016272.028379,0.154816,0.0099,-0.007354,0.987866,-0.173988,-0.039837,-0.033709,-0.002046,0.014918,-0.001597,0.021836,-0.305729,-0.951868,-0.021837738684760594
1762016272.056886,0.153189,0.009579,-0.007673,0.988121,-0.15223,-0.038538,-0.021038,-0.002549,0.011685,-0.000628,0.021281,-0.302592,-0.952883,-0.021282597988125363
1762016272.063027,0.151872,0.009226,-0.007867,0.988326,-0.110547,-0.035433,-0.010091,-0.001956,0.006873,-0.003541,0.020626,-0.300054,-0.953699,-0.020627466719702725
1762016272.093372,0.151019,0.008964,-0.007977,0.988458,-0.062172,-0.022738,-0.004955,-0.002643,0.003175,-0.00389,0.02013,-0.29841,-0.954226,-0.020131349642595855
1762016272.122757,0.150546,0.008824,-0.008088,0.98853,-0.029224,-0.009848,-0.01004,-0.004574,0.003224,-0.004814,0.019882,-0.297496,-0.954516,-0.019883310521013123
1762016272.123063,0.150364,0.008809,-0.008218,0.988557,-0.01297,0.006155,-0.019078,-0.00281,0.00404,-0.008279,0.019888,-0.297142,-0.954626,-0.019889314269931353
1762016272.173938,0.150286,0.008933,-0.008418,0.988566,-0.00872,0.00703,-0.017886,-0.002122,0.005258,-0.006495,0.020192,-0.296984,-0.954669,-0.020193371217098147
1762016272.174245,0.150207,0.009057,-0.008618,0.988575,-0.00447,0.007906,-0.016694,-0.001434,0.006476,-0.004712,0.020495,-0.296827,-0.954711,-0.020496441158500647
1762016272.206321,0.150161,0.009216,-0.008835,0.988579,-0.002414,0.019435,-0.025881,-0.000208,0.003317,-0.003881,0.020874,-0.29673,-0.954733,-0.020875521211723282
1762016272.206618,0.150211,0.00946,-0.009071,0.988567,0.012159,0.01903,-0.029147,0.000107,0.001915,-8.6e-05,0.021429,-0.296815,-0.954694,-0.021430651311440237
1762016272.234178,0.150375,0.009647,-0.009347,0.988538,0.017641,0.009993,-0.029385,-0.001038,0.00616,-0.000469,0.021885,-0.297122,-0.954589,-0.021886740845848053
1762016272.264783,0.150579,0.009715,-0.009536,0.988504,0.019552,-0.005342,-0.012493,-0.004413,0.010991,0.002329,0.022079,-0.297511,-0.954463,-0.0220807953983847
1762016272.266054,0.150766,0.009594,-0.009614,0.988476,0.019306,-0.015662,0.002507,-0.006071,0.008855,0.000612,0.021867,-0.297872,-0.954355,-0.02186875004798481
1762016272.295415,0.150946,0.009387,-0.009611,0.988451,0.019298,-0.022744,0.006823,-0.00798,0.006634,0.001022,0.02146,-0.298225,-0.954254,-0.02146165417712177
1762016272.30305,0.151153,0.0091,-0.009526,0.988423,0.023723,-0.026152,0.01488,-0.007328,0.004579,0.000363,0.020868,-0.298632,-0.95414,-0.020869518166634134
1762016272.333276,0.151384,0.008802,-0.009405,0.988391,0.0226,-0.022043,0.022593,-0.007919,0.002684,-0.002426,0.020247,-0.299089,-0.954011,-0.02024837186513937
1762016272.361652,0.1516,0.008586,-0.009204,0.988362,0.026512,-0.0138,0.022902,-0.008506,-0.004088,-0.003954,0.019763,-0.299514,-0.953887,-0.019764290463467053
1762016272.363998,0.151897,0.008456,-0.009062,0.988319,0.03133,-0.006422,0.010968,-0.008031,-0.007714,-0.002632,0.019467,-0.300092,-0.953712,-0.019468222442635456
1762016272.393919,0.152222,0.008438,-0.009012,0.988269,0.034536,0.006698,0.000326,-0.008102,-0.007538,-0.003398,0.019421,-0.300721,-0.953514,-0.01942222841019248
1762016272.42296,0.152559,0.008505,-0.009011,0.988217,0.031307,0.009381,-0.007201,-0.008909,-0.005616,-0.004332,0.019559,-0.30137,-0.953307,-0.019560240748245777
1762016272.424905,0.152837,0.008655,-0.009121,0.988171,0.026793,0.014546,-0.015135,-0.007378,-0.000852,-0.001936,0.019894,-0.301901,-0.953132,-0.019895306564985563
1762016272.491501,0.153098,0.008722,-0.009187,0.98813,0.024193,0.0054,-0.003609,-0.005472,0.004887,-0.001569,0.02005,-0.302402,-0.95297,-0.020051335649968582
1762016272.491801,0.153359,0.008789,-0.009253,0.988088,0.021593,-0.003745,0.007916,-0.003566,0.010626,-0.001203,0.020206,-0.302903,-0.952807,-0.020207378353554437
1762016272.492415,0.15359,0.008744,-0.009096,0.988054,0.023813,-0.00276,0.027818,-0.002334,0.007528,-0.000766,0.020074,-0.303351,-0.952667,-0.020075356387960302
1762016272.503137,0.153927,0.008627,-0.008771,0.988006,0.04148,-0.008221,0.040007,-0.002199,0.001909,8e-05,0.019748,-0.304009,-0.952464,-0.019749292413878926
1762016272.533206,0.154451,0.008423,-0.008334,0.98793,0.06289,-0.011999,0.048966,-0.005691,0.000562,0.002885,0.019216,-0.305032,-0.952148,-0.019217186740134045
1762016272.563686,0.155105,0.008182,-0.007808,0.987833,0.07075,-0.019229,0.061347,-0.00547,0.0053,0.002466,0.018586,-0.306308,-0.951751,-0.018587070257226872
1762016272.56402,0.155723,0.007886,-0.007202,0.987743,0.055645,-0.015353,0.065757,-0.00364,0.002088,-0.002917,0.017822,-0.307516,-0.951376,-0.017822943517885985
1762016272.593968,0.156143,0.007691,-0.006629,0.987682,0.031615,-0.006516,0.0539,-0.006471,-0.001448,-0.00411,0.017262,-0.308338,-0.95112,-0.017262861249924388
1762016272.602009,0.156382,0.007573,-0.00616,0.987648,0.01318,-0.004534,0.04062,-0.007978,-0.003162,-0.001328,0.016886,-0.308808,-0.950974,-0.016886810455902138
1762016272.632507,0.156469,0.007427,-0.005809,0.987638,-0.001526,-0.010534,0.02871,-0.006409,-0.006433,0.000856,0.016487,-0.308984,-0.950924,-0.016487752062944068
1762016272.66361,0.15637,0.007314,-0.005597,0.987656,-0.012751,-0.008354,0.012795,-0.005173,-0.00752,0.000481,0.016197,-0.308798,-0.95099,-0.016197704003788588
1762016272.66561,0.156205,0.007218,-0.005553,0.987683,-0.020604,-0.009413,-0.001339,-0.007181,-0.006467,0.002618,0.015993,-0.308482,-0.951096,-0.015993677678123562
1762016272.694258,0.155985,0.00708,-0.005605,0.987718,-0.02439,-0.010149,-0.003974,-0.007049,-0.003099,0.000953,0.015735,-0.308059,-0.951237,-0.01573565120418835
1762016272.702905,0.155772,0.006973,-0.005679,0.987752,-0.019973,-0.008782,-0.004933,-0.005511,-0.001677,-0.002441,0.015545,-0.307649,-0.951373,-0.015545625051988818
1762016272.731548,0.155634,0.006933,-0.005747,0.987774,-0.011634,0.003546,-0.00571,-0.005157,-0.002439,-0.005335,0.015486,-0.307383,-0.95146,-0.015486617046207353
1762016272.776544,0.155558,0.007056,-0.005886,0.987784,-0.012825,0.012305,-0.010165,-0.003526,0.001033,-0.005358,0.01577,-0.307231,-0.951504,-0.015770658119195202
1762016272.776784,0.155481,0.007178,-0.006026,0.987794,-0.014016,0.021063,-0.014619,-0.001895,0.004505,-0.005381,0.016055,-0.30708,-0.951548,-0.01605569393975509
1762016272.781117,0.155348,0.007448,-0.006165,0.987813,-0.019762,0.023833,-0.01976,-0.00303,0.004707,-0.00237,0.01663,-0.306817,-0.951623,-0.01663077025711833
1762016272.809531,0.155141,0.007655,-0.006319,0.987843,-0.019223,0.017133,-0.018154,-0.002344,0.004996,-0.002071,0.017085,-0.306413,-0.951745,-0.017085836679198777
1762016272.840147,0.154919,0.007877,-0.006488,0.987875,-0.026232,0.020211,-0.023419,-0.001642,0.004881,-0.000831,0.017573,-0.305979,-0.951876,-0.017573905650531112
1762016272.842012,0.154653,0.008054,-0.006716,0.987913,-0.022635,0.013559,-0.022383,-0.002277,0.009049,0.002902,0.017991,-0.30546,-0.952035,-0.01799196952435826
1762016272.870448,0.154397,0.008227,-0.006903,0.987951,-0.021808,0.006395,-0.014289,-0.003615,0.010395,0.006799,0.018387,-0.30496,-0.952188,-0.018388030041994928
1762016272.901107,0.15425,0.008251,-0.006996,0.987973,-0.008501,-0.003009,-0.000289,-0.002472,0.010787,0.004105,0.018462,-0.304675,-0.952277,-0.01846305645951086
1762016272.902309,0.154248,0.008188,-0.006911,0.987974,0.009263,-0.004412,0.012703,-0.002375,0.006409,0.000437,0.018311,-0.304673,-0.952281,-0.018312023113303978
1762016272.93169,0.154417,0.008116,-0.006751,0.987949,0.022071,-0.000877,0.018951,-0.001152,0.005034,-0.003447,0.018122,-0.305004,-0.952179,-0.018122985746981762
1762016272.962362,0.154666,0.008099,-0.006561,0.987912,0.031956,-0.000166,0.017058,-0.004995,0.003258,-0.002139,0.018031,-0.305486,-0.952026,-0.01803197430773515
1762016272.964417,0.155015,0.008064,-0.00637,0.987859,0.038068,-0.003596,0.015236,-0.006227,0.000148,-0.000134,0.017907,-0.306162,-0.951811,-0.01790795705477981
1762016272.996786,0.155483,0.007967,-0.006229,0.987787,0.049584,-0.008881,0.013339,-0.007152,-0.002019,-0.003558,0.017677,-0.307068,-0.951523,-0.01767792734479335
1762016272.998694,0.156012,0.007868,-0.006143,0.987705,0.060336,-0.00934,0.004275,-0.004017,-0.004176,-0.003155,0.01746,-0.30809,-0.951197,-0.01746088695602898
1762016273.027978,0.156572,0.007798,-0.006138,0.987617,0.053948,0.003786,-0.007378,-0.005081,-0.003484,-0.005044,0.017325,-0.30917,-0.950849,-0.017325866250481825
1762016273.076011,0.157044,0.007888,-0.006275,0.98754,0.048123,0.00448,-0.01321,-0.005863,-0.00383,-0.002261,0.017549,-0.310075,-0.95055,-0.017549902848124917
1762016273.076339,0.157516,0.007977,-0.006412,0.987463,0.042298,0.005174,-0.019042,-0.006645,-0.004175,0.000521,0.017774,-0.31098,-0.95025,-0.017774940085484105
1762016273.079122,0.157948,0.008053,-0.006599,0.987392,0.043126,0.003477,-0.016538,-0.007566,-0.001689,0.000862,0.017987,-0.311808,-0.949975,-0.01798796768315289
1762016273.111443,0.158334,0.00809,-0.006782,0.987329,0.033203,0.001872,-0.017503,-0.005447,0.00037,0.000101,0.018123,-0.312547,-0.94973,-0.018123981847982147
1762016273.139507,0.15861,0.008158,-0.006942,0.987283,0.021606,0.005874,-0.011597,-0.006115,0.002323,-0.000303,0.018311,-0.313072,-0.949553,-0.018312020942143938
1762016273.141196,0.158795,0.008229,-0.00698,0.987253,0.007506,0.009437,-0.004516,-0.006343,0.002175,-0.00093,0.018466,-0.313426,-0.949433,-0.018467050805247662
1762016273.181499,0.15884,0.008326,-0.006985,0.987245,-0.001264,0.010959,0.0038,-0.006085,0.001459,0.0007,0.018659,-0.313512,-0.949401,-0.018660081099539497
1762016273.182728,0.158789,0.008433,-0.006907,0.987252,-0.00605,0.008772,0.008498,-0.00565,2.2e-05,0.001152,0.018845,-0.313413,-0.94943,-0.018846114016583985
1762016273.219812,0.158677,0.008485,-0.006827,0.98727,-0.013423,0.006977,0.005153,-0.004187,-0.001308,0.000944,0.018921,-0.313199,-0.949499,-0.018922129443104983
1762016273.221911,0.158531,0.00849,-0.00679,0.987294,-0.011726,-0.000281,0.001946,-0.003254,-0.002371,0.000479,0.018917,-0.312919,-0.949592,-0.018918117837648553
1762016273.250369,0.158411,0.008468,-0.006793,0.987314,-0.009244,-0.002419,-0.002828,-0.002902,-0.002635,-0.00071,0.018873,-0.312688,-0.949668,-0.018874127317396808
1762016273.282828,0.158299,0.008479,-0.006859,0.987331,-0.015803,-0.000481,-0.007213,-0.00222,-0.001128,-0.00149,0.018914,-0.31247,-0.949739,-0.01891513349100766
1762016273.283075,0.158115,0.008486,-0.006935,0.98736,-0.016822,-0.003724,-0.006711,-0.003427,-0.000982,0.000989,0.018951,-0.312115,-0.949855,-0.018952139886249785
1762016273.312538,0.157949,0.008437,-0.006987,0.987387,-0.013523,-0.010241,0.001019,-0.003135,5.3e-05,0.000361,0.018868,-0.311796,-0.949962,-0.01886911450987768
1762016273.374154,0.157796,0.00838,-0.006969,0.987412,-0.013994,-0.007771,0.003926,-0.004135,-0.000208,-4.1e-05,0.018748,-0.311502,-0.950061,-0.018749090136697184
1762016273.374471,0.157642,0.008323,-0.00695,0.987437,-0.014465,-0.005302,0.006832,-0.005135,-0.000469,-0.000444,0.018629,-0.311208,-0.950159,-0.018630081542323963
1762016273.374702,0.157489,0.008266,-0.006931,0.987462,-0.014937,-0.002832,0.009739,-0.006135,-0.00073,-0.000847,0.018509,-0.310915,-0.950258,-0.018510047840115094
1762016273.380638,0.157332,0.008212,-0.006849,0.987488,-0.015991,-0.000861,0.008907,-0.004296,-0.000261,-0.00178,0.018373,-0.310615,-0.950358,-0.018374037762403744
1762016273.411048,0.157178,0.00818,-0.006725,0.987513,-0.015214,-0.00202,0.010126,-0.004146,-0.001305,-0.003069,0.01827,-0.310321,-0.950456,-0.018271020902192184
1762016273.445519,0.157007,0.00817,-0.006621,0.987542,-0.018174,0.001204,0.005103,-0.004463,-0.001382,-0.001062,0.018215,-0.309993,-0.950564,-0.018216013188060588
1762016273.445771,0.156815,0.008188,-0.006593,0.987572,-0.021304,-0.002142,0.001697,-0.004864,-0.001284,0.001542,0.01824,-0.309624,-0.950684,-0.018241013496570705
1762016273.474132,0.156574,0.00813,-0.006622,0.987611,-0.022611,-0.007283,-0.003412,-0.005063,0.000578,0.001314,0.018132,-0.30916,-0.950837,-0.018132996629776948
1762016273.480859,0.156264,0.008008,-0.006661,0.98766,-0.027468,-0.010256,-0.001445,-0.004657,0.001362,-0.000416,0.0179,-0.308566,-0.951035,-0.017900947455966987
1762016273.511247,0.156003,0.007925,-0.006702,0.987702,-0.02257,-0.00424,-0.001707,-0.005533,0.000609,-0.001976,0.017746,-0.308062,-0.951201,-0.01774692749070839
1762016273.540804,0.155806,0.007867,-0.006732,0.987733,-0.016099,-0.002666,-0.003239,-0.005052,0.002084,-0.002808,0.01764,-0.307685,-0.951325,-0.017640910693236825
1762016273.542493,0.155664,0.007874,-0.006745,0.987756,-0.017476,0.00206,-0.000608,-0.006701,0.005334,-0.0022,0.017655,-0.30741,-0.951413,-0.0176559234506546
1762016273.559446,0.155512,0.007861,-0.006681,0.98778,-0.014527,0.001779,0.009713,-0.004291,0.003769,-0.00158,0.017607,-0.307118,-0.951509,-0.017607902361532812
1762016273.588774,0.155358,0.007836,-0.006559,0.987805,-0.007029,0.000615,0.00905,-0.003857,0.001062,-0.00135,0.01752,-0.306824,-0.951605,-0.017520896476809912
1762016273.616962,0.155316,0.007833,-0.006478,0.987813,-0.001458,0.002638,0.008324,-0.003373,0.003533,-0.003153,0.017488,-0.306745,-0.951631,-0.01748889251845331
1762016273.618612,0.155295,0.007865,-0.006418,0.987816,-0.002189,0.005964,0.003105,-0.005645,0.002882,-0.001992,0.017533,-0.306705,-0.951643,-0.017533900497924155
1762016273.67469,0.15528,0.007938,-0.006376,0.987818,0.000362,0.006046,0.003702,-0.005939,0.002856,-0.001266,0.017663,-0.306677,-0.95165,-0.01766391425441235
1762016273.674944,0.155266,0.008011,-0.006335,0.98782,0.002914,0.006129,0.0043,-0.006233,0.002831,-0.000541,0.017793,-0.306648,-0.951657,-0.01779393335688951
1762016273.704389,0.155322,0.008042,-0.006315,0.987811,0.001996,0.000429,0.000926,-0.004959,0.003619,-0.001448,0.017849,-0.306756,-0.951621,-0.017849944683250348
1762016273.704713,0.155333,0.008078,-0.006326,0.987809,-0.000605,0.005312,-0.005004,-0.004083,0.002898,-0.002034,0.017925,-0.306777,-0.951613,-0.017925953449775912
1762016273.78783,0.155359,0.008076,-0.006402,0.987804,0.002733,0.002589,-0.004655,-0.004064,0.003096,-0.001423,0.017943,-0.306826,-0.951596,-0.017943971075515007
1762016273.788542,0.155386,0.008073,-0.006477,0.9878,0.006071,-0.000135,-0.004306,-0.004044,0.003294,-0.000811,0.017962,-0.306875,-0.95158,-0.017962971427413203
1762016273.788622,0.155412,0.008071,-0.006553,0.987795,0.009409,-0.002858,-0.003957,-0.004025,0.003492,-0.000199,0.017981,-0.306924,-0.951564,-0.01798197172576999
1762016273.789458,0.155507,0.008039,-0.006571,0.98778,0.00863,-0.004087,0.001925,-0.004154,0.005434,-0.000823,0.017925,-0.307108,-0.951506,-0.017925957374167967
1762016273.821404,0.155577,0.008014,-0.006501,0.98777,0.00247,0.001491,0.007559,-0.006311,0.003934,-0.002353,0.017854,-0.307245,-0.951463,-0.01785494782087446
1762016273.821664,0.155588,0.007985,-0.006354,0.987769,0.004571,0.00254,0.012416,-0.006041,-0.002106,-0.00159,0.017752,-0.30727,-0.951457,-0.017752928874137798
1762016273.849436,0.155665,0.007942,-0.006232,0.987758,0.011138,-0.001909,0.009471,-0.006807,-0.003939,-0.003968,0.01763,-0.30742,-0.951411,-0.017630906673768845
1762016273.887806,0.15581,0.007926,-0.006146,0.987736,0.013628,-0.003053,0.009331,-0.007589,-0.002086,-0.001487,0.017572,-0.307701,-0.951321,-0.01757290156387221
1762016273.889526,0.155905,0.007893,-0.006078,0.987722,0.008756,0.001054,0.005877,-0.007136,-0.000757,-0.002326,0.017487,-0.307885,-0.951263,-0.017487889057868918
1762016273.918151,0.156031,0.007872,-0.006061,0.987702,0.00975,0.002331,-0.002867,-0.005173,-0.003108,-0.002628,0.017441,-0.308129,-0.951185,-0.01744187934564413
1762016273.919952,0.15611,0.00793,-0.006106,0.987689,0.007263,0.004643,-0.005753,-0.004101,-0.002427,-0.00016,0.017571,-0.308279,-0.951134,-0.017571899281339863
1762016273.974286,0.156179,0.007964,-0.006145,0.987678,0.006435,0.001624,-0.002635,-0.005146,-0.000989,0.00075,0.017652,-0.308411,-0.951089,-0.017652923685997576
1762016273.974574,0.156248,0.007999,-0.006184,0.987666,0.005606,-0.001395,0.000483,-0.006191,0.00045,0.00166,0.017733,-0.308543,-0.951045,-0.017733930986592553
1762016273.981015,0.156314,0.00799,-0.006161,0.987656,0.002697,0.001706,0.002724,-0.003973,0.001125,-0.000339,0.017709,-0.308671,-0.951004,-0.01770992572065431
1762016274.011682,0.156305,0.007999,-0.006141,0.987657,-0.004655,0.003146,0.003105,-0.004364,-0.000486,8e-06,0.01772,-0.308653,-0.95101,-0.017720921332863956
1762016274.040745,0.156246,0.008004,-0.00612,0.987667,-0.004346,0.000359,0.001023,-0.003571,-0.003526,0.000322,0.017723,-0.30854,-0.951046,-0.01772393210580365
1762016274.042585,0.156179,0.007976,-0.006083,0.987678,-0.001653,-0.002149,0.002523,-0.005225,-0.001381,-0.000652,0.017656,-0.308412,-0.951089,-0.017656917617866735
1762016274.07202,0.156168,0.007939,-0.006064,0.98768,-0.00238,-0.000807,0.001221,-0.004242,-0.001517,-0.00304,0.017577,-0.308392,-0.951097,-0.01757790449439372
1762016274.111906,0.156064,0.007936,-0.00604,0.987697,-0.008752,0.000702,0.000756,-0.004764,-0.001674,-0.00294,0.017563,-0.308192,-0.951162,-0.017563903755682876
1762016274.112152,0.15596,0.007933,-0.006016,0.987713,-0.015124,0.002211,0.000291,-0.005285,-0.001831,-0.00284,0.017548,-0.307992,-0.951227,-0.017548902392384443
1762016274.140876,0.155774,0.007963,-0.00605,0.987742,-0.017295,0.001575,-0.003682,-0.003512,-0.001165,-0.001336,0.017616,-0.307632,-0.951342,-0.01761691677058207
1762016274.142016,0.155574,0.007972,-0.006123,0.987773,-0.018144,-0.002186,-0.007774,-0.005426,-0.001041,0.000376,0.017654,-0.307247,-0.951466,-0.017654917748555037
1762016274.174284,0.155374,0.007978,-0.0062,0.987804,-0.017656,-0.001479,-0.009432,-0.004133,0.000428,9.2e-05,0.017689,-0.306859,-0.951591,-0.017689915732331606
1762016274.178742,0.155189,0.007941,-0.00628,0.987833,-0.018936,-0.002274,-0.003494,-0.005143,0.002923,0.000396,0.017638,-0.306502,-0.951707,-0.017638907697181294
1762016274.207096,0.154966,0.007885,-0.006311,0.987868,-0.020158,-0.009851,-0.000158,-0.006585,0.005589,0.001989,0.017535,-0.306072,-0.951847,-0.017535896471626757
1762016274.238102,0.154755,0.007775,-0.006291,0.987902,-0.019182,-0.009679,0.006606,-0.006062,0.006295,-0.000922,0.017308,-0.305667,-0.951981,-0.01730886681073072
1762016274.239073,0.154564,0.007631,-0.006188,0.987934,-0.017606,-0.008846,0.011253,-0.004855,0.004007,-0.001546,0.016991,-0.305304,-0.952103,-0.016991823170218696
1762016274.275431,0.154378,0.007518,-0.006092,0.987964,-0.012277,-0.009176,0.013785,-0.006894,0.002528,-0.002508,0.016737,-0.304949,-0.952222,-0.01673777517696698
1762016274.277076,0.154274,0.007411,-0.005952,0.987982,-0.007766,-0.005251,0.009361,-0.007484,0.001199,-0.002601,0.01648,-0.304753,-0.952289,-0.01648074341466069
1762016274.306069,0.1542,0.007337,-0.005889,0.987995,-0.007456,-0.002196,0.003708,-0.005873,0.00052,-0.002326,0.016314,-0.304611,-0.952337,-0.0163147256198305
1762016274.338892,0.154092,0.007338,-0.00591,0.988012,-0.004692,0.002481,-0.004246,-0.006458,0.001366,-0.001821,0.016321,-0.304404,-0.952403,-0.016321727571466344
1762016274.33918,0.154082,0.007356,-0.006009,0.988012,-0.0026,0.000957,-0.008408,-0.007154,0.001657,-0.003164,0.016387,-0.304382,-0.952409,-0.016387734818662274
1762016274.367263,0.154099,0.007365,-0.006132,0.988009,0.006646,0.003138,-0.012616,-0.007511,0.001114,-0.002657,0.016444,-0.304413,-0.952398,-0.01644474422219075
1762016274.397885,0.154166,0.007439,-0.006242,0.987997,0.008724,0.002887,-0.010184,-0.006492,0.002053,-0.001218,0.016625,-0.304538,-0.952355,-0.016625767340162467
1762016274.399399,0.154291,0.007446,-0.00634,0.987977,0.01128,0.000725,-0.00565,-0.005165,0.003055,-0.000955,0.016669,-0.304778,-0.952278,-0.016669764739156104
1762016274.42823,0.154403,0.007447,-0.00637,0.987959,0.009446,0.003908,0.001975,-0.005499,0.004625,-0.001076,0.016683,-0.304992,-0.952209,-0.016683770450066845
1762016274.459099,0.154494,0.00745,-0.006328,0.987945,0.009799,0.001295,0.005375,-0.00524,0.000612,0.000458,0.016675,-0.30517,-0.952152,-0.016675771061575976
1762016274.460903,0.154585,0.007443,-0.006231,0.987932,0.005448,0.001204,0.008844,-0.006068,0.000591,0.00043,0.016633,-0.305346,-0.952096,-0.01663377011463146
1762016274.491802,0.154611,0.007414,-0.006143,0.987928,-0.000495,-0.003691,0.009779,-0.00749,-0.000984,-0.000352,0.016549,-0.305399,-0.952081,-0.01654975009832936
1762016274.520942,0.154569,0.007363,-0.00607,0.987936,-0.003544,-0.003155,0.004185,-0.006596,-0.003463,0.000515,0.016424,-0.305319,-0.952108,-0.016424746008997963
1762016274.522368,0.154544,0.007334,-0.006031,0.98794,-0.002937,-0.000671,0.003804,-0.00625,-0.004404,-0.00261,0.016356,-0.305272,-0.952125,-0.016356725022496903
1762016274.575501,0.154515,0.007372,-0.006035,0.987945,-0.003805,0.003241,-0.001277,-0.006709,-0.003573,-0.004187,0.016431,-0.305215,-0.952142,-0.016431734804969702
1762016274.575845,0.154485,0.00741,-0.006039,0.987949,-0.004673,0.007154,-0.006359,-0.007168,-0.002741,-0.005764,0.016507,-0.305158,-0.952159,-0.016507744389546088
1762016274.576809,0.154431,0.007532,-0.006115,0.987956,-0.005017,0.011603,-0.008243,-0.006319,-0.001616,-0.003148,0.016771,-0.305049,-0.952189,-0.016771785862048895
1762016274.60594,0.154391,0.007613,-0.006198,0.987961,-0.006395,0.002706,-0.006786,-0.004419,-0.000111,0.000518,0.016957,-0.30497,-0.952211,-0.0169578124925025
1762016274.636517,0.154284,0.007635,-0.006281,0.987977,-0.010579,-0.000555,-0.011165,-0.003751,-0.000902,0.001518,0.017025,-0.304762,-0.952276,-0.01702582845467361
1762016274.637531,0.154166,0.007601,-0.006433,0.987995,-0.009505,-0.003925,-0.013697,-0.006208,0.000577,0.001777,0.017002,-0.304533,-0.95235,-0.017002819751033998
1762016274.667932,0.15409,0.007569,-0.00659,0.988006,-0.007418,-0.008932,-0.011946,-0.006936,0.004314,0.000851,0.016988,-0.304384,-0.952398,-0.016988815830428827
1762016274.697218,0.153971,0.007487,-0.00668,0.988024,-0.007895,-0.007609,-0.005362,-0.006318,0.002896,-0.000348,0.016851,-0.304155,-0.952473,-0.016851805716631862
1762016274.698599,0.153897,0.007434,-0.006733,0.988036,-0.009012,-0.003013,-0.001436,-0.005215,0.002473,-0.001558,0.016763,-0.304011,-0.952521,-0.016763785649788494
1762016274.728356,0.153788,0.007431,-0.006713,0.988053,-0.008408,0.001152,0.002662,-0.007994,0.003396,-0.000754,0.016748,-0.303802,-0.952588,-0.016748782649499812
1762016274.759281,0.153715,0.007363,-0.006659,0.988065,-0.004574,-0.004138,0.005037,-0.005386,0.001829,-0.002236,0.016597,-0.303662,-0.952635,-0.01659776609850905
1762016274.75989,0.153626,0.007339,-0.006601,0.98808,-0.007616,0.002327,0.001615,-0.007463,0.001093,-0.002596,0.016531,-0.303492,-0.95269,-0.016531762067111908
1762016274.789677,0.153523,0.0074,-0.006556,0.988096,-0.01148,0.002418,-0.000432,-0.007796,-0.000962,0.000827,0.016637,-0.303294,-0.952752,-0.01663776414559519
1762016274.79732,0.153447,0.007307,-0.006537,0.988108,-0.002249,-0.003527,0.003939,-0.007772,-0.000335,-0.00382,0.016446,-0.303148,-0.952801,-0.016446750280269054
1762016274.827439,0.153441,0.007267,-0.00652,0.98811,0.007657,-0.00127,5e-06,-0.004444,-0.002836,-0.004691,0.016363,-0.303138,-0.952806,-0.01636373299373148
1762016274.8742,0.153493,0.007356,-0.006511,0.988101,0.004381,0.00422,0.000528,-0.005307,-0.000414,-0.003586,0.016536,-0.303238,-0.952771,-0.016536759460149104
1762016274.874522,0.153546,0.007445,-0.006501,0.988092,0.001105,0.009709,0.001051,-0.00617,0.002007,-0.002481,0.016708,-0.303338,-0.952737,-0.016708770015847134
1762016274.874737,0.153557,0.007548,-0.006497,0.98809,0.002179,0.008035,0.002699,-0.004924,0.00093,-0.000151,0.016911,-0.303358,-0.952727,-0.01691179942397718
1762016274.90548,0.15356,0.007587,-0.006513,0.988089,0.000562,0.004276,-0.006929,-0.00553,-0.000312,0.001236,0.016993,-0.303363,-0.952723,-0.016993826540591728
1762016274.934825,0.153583,0.007623,-0.006601,0.988084,0.000609,-0.001548,-0.006821,-0.004589,0.001495,-0.000744,0.017092,-0.303406,-0.952708,-0.01709283341515002
1762016274.936257,0.153559,0.007617,-0.006672,0.988087,-0.001605,-0.000913,-0.004439,-0.004573,0.001526,-0.000778,0.017101,-0.303359,-0.952723,-0.01710183155651612
1762016274.965796,0.153555,0.007589,-0.006709,0.988088,-1.9e-05,-1.1e-05,-5.3e-05,-0.006644,0.003658,-0.002585,0.017058,-0.303351,-0.952726,-0.01705883045936789
1762016275.000175,0.153559,0.007616,-0.006673,0.988088,0.000713,0.00696,0.009462,-0.006629,0.000786,-0.002456,0.017101,-0.303358,-0.952723,-0.017101836745009032
1762016275.001263,0.153591,0.007679,-0.00653,0.988083,0.003405,0.009022,0.009865,-0.003317,-0.001071,-0.00116,0.017181,-0.30342,-0.952702,-0.01718184551735913
1762016275.041326,0.153643,0.007741,-0.006458,0.988075,0.004791,0.005683,0.007458,-0.00227,-0.000701,-0.000317,0.017282,-0.303521,-0.952668,-0.01728286052295062
1762016275.043205,0.153643,0.007732,-0.006405,0.988075,7e-06,8e-06,1.1e-05,-0.003711,-0.000947,0.001573,0.017247,-0.303523,-0.952668,-0.01724785525732045
1762016275.073542,0.153643,0.007732,-0.006405,0.988075,0.000955,-0.003231,0.000308,-0.004036,-0.001568,0.002256,0.017247,-0.303523,-0.952668,-0.01724785525732045
1762016275.11239,0.153794,0.007574,-0.006421,0.988053,0.015058,-0.01524,0.004475,-0.003732,0.000521,0.001498,0.016942,-0.303816,-0.95258,-0.016942811859649732
1762016275.113589,0.154011,0.007352,-0.006389,0.988021,0.020666,-0.020034,0.011192,-0.003793,0.003464,-6.2e-05,0.016495,-0.304239,-0.952453,-0.016495746685238268
1762016275.180381,0.15424,0.007091,-0.006222,0.987988,0.019199,-0.019544,0.016555,-0.004149,0.001628,-2.2e-05,0.015932,-0.304686,-0.95232,-0.01593266794503646
1762016275.180652,0.154468,0.006831,-0.006055,0.987956,0.017732,-0.019055,0.021918,-0.004504,-0.000208,1.7e-05,0.015368,-0.305133,-0.952186,-0.015368601132699895
1762016275.181851,0.154673,0.006585,-0.005884,0.987926,0.017616,-0.020475,0.017711,-0.006294,-0.002049,-0.001575,0.014831,-0.305534,-0.952066,-0.014831538918749478
1762016275.222389,0.154855,0.006361,-0.005753,0.9879,0.015999,-0.016984,0.014467,-0.008298,-0.002222,-0.003634,0.014349,-0.30589,-0.951959,-0.014349488683827814
1762016275.224452,0.154986,0.006199,-0.005666,0.987881,0.009877,-0.008321,0.00816,-0.009812,-0.002501,-0.005078,0.014003,-0.306145,-0.951882,-0.01400345635866648
1762016275.255995,0.155054,0.006152,-0.005613,0.987871,0.002618,0.001802,0.004096,-0.011073,-0.002102,-0.004837,0.013895,-0.306278,-0.951841,-0.013895443173766987
1762016275.257425,0.155051,0.006213,-0.005599,0.987871,-0.001671,0.012211,-0.001835,-0.010064,-0.003188,-0.004403,0.014011,-0.306271,-0.951841,-0.014011461795733511
1762016275.287387,0.155015,0.006365,-0.005621,0.987876,-0.004081,0.017455,-0.009074,-0.008444,-0.004469,-0.002914,0.014319,-0.3062,-0.951859,-0.014319496306218182
1762016275.316913,0.154962,0.006559,-0.005733,0.987882,-0.003216,0.017882,-0.016487,-0.006542,-0.004361,-0.000981,0.014736,-0.306093,-0.951888,-0.01473652719017324
1762016275.318791,0.154919,0.006743,-0.005902,0.987887,-0.000675,0.014425,-0.021053,-0.00614,-0.002279,0.000855,0.015151,-0.306005,-0.951909,-0.015151584589764925
1762016275.348888,0.154898,0.006872,-0.006102,0.987888,-0.000586,0.007914,-0.019673,-0.005167,0.000714,0.001066,0.015468,-0.30596,-0.951919,-0.01546861251999101
1762016275.355669,0.154875,0.006937,-0.006263,0.98789,-0.002502,0.00239,-0.012043,-0.004545,0.003993,0.000745,0.015646,-0.305913,-0.951931,-0.015646636936349045
1762016275.385756,0.154827,0.006938,-0.006341,0.987897,-0.006008,-0.001703,-0.002193,-0.004377,0.006391,-0.000188,0.015671,-0.305819,-0.951961,-0.01567163688928991
1762016275.416167,0.154746,0.006908,-0.006304,0.98791,-0.008584,-0.003429,0.008216,-0.004498,0.005399,-0.000568,0.015601,-0.305664,-0.952012,-0.015601627308091516
1762016275.416487,0.15466,0.006854,-0.006194,0.987925,-0.007305,-0.003626,0.012227,-0.004536,0.003414,-0.000676,0.015457,-0.3055,-0.952067,-0.015457609830846127
1762016275.474304,0.154599,0.006783,-0.006086,0.987935,-0.006506,-0.002824,0.00879,-0.004548,0.002773,-0.00071,0.015285,-0.305385,-0.952106,-0.015285599329744487
1762016275.474595,0.154538,0.006713,-0.005977,0.987946,-0.005707,-0.002022,0.005352,-0.004561,0.002133,-0.000745,0.015112,-0.30527,-0.952146,-0.015112574114161028
1762016275.474689,0.154508,0.006679,-0.005925,0.987951,-0.00322,-0.00233,0.002596,-0.005066,0.000862,0.000289,0.015028,-0.305214,-0.952165,-0.015028568615575869
1762016275.503123,0.154524,0.006626,-0.005921,0.987949,0.004409,-0.003868,-0.001294,-0.005438,-0.001211,-0.001318,0.014923,-0.305245,-0.952157,-0.014923552753857093
1762016275.533574,0.154609,0.00659,-0.005952,0.987936,0.01324,-0.001818,-0.002533,-0.006417,-7.2e-05,-0.002689,0.014862,-0.30541,-0.952105,-0.014862546590842218
1762016275.534881,0.154754,0.00658,-0.005981,0.987913,0.014191,0.001792,-0.003776,-0.007916,0.001951,-0.003945,0.014851,-0.305688,-0.952016,-0.014851544696647153
1762016275.564972,0.154886,0.006628,-0.006007,0.987892,0.010112,0.009573,-0.003927,-0.007191,0.001691,-0.00282,0.014957,-0.305941,-0.951933,-0.014957557404766147
1762016275.594257,0.155001,0.006712,-0.006019,0.987873,0.010239,0.007349,-0.002654,-0.007058,0.001636,-0.000864,0.015127,-0.306162,-0.951859,-0.015127580355137843
1762016275.596236,0.155105,0.006778,-0.006036,0.987856,0.009946,0.004131,-0.004166,-0.007052,0.001251,-0.000274,0.015263,-0.306361,-0.951793,-0.015263593157317765
1762016275.627486,0.155201,0.006826,-0.006102,0.987841,0.007625,0.004823,-0.006794,-0.006714,0.001712,-0.000698,0.01538,-0.306544,-0.951732,-0.015380609727940009
1762016275.63431,0.155282,0.006871,-0.006181,0.987827,0.006172,0.00451,-0.00735,-0.007027,0.002092,-0.000983,0.015495,-0.306699,-0.95168,-0.015495626357440142
1762016275.667804,0.155348,0.00694,-0.006265,0.987816,0.006604,0.00702,-0.009034,-0.007514,0.001627,-0.00041,0.015658,-0.306823,-0.951638,-0.01565863668522063
1762016275.674404,0.155418,0.00703,-0.006343,0.987803,0.007546,0.007976,-0.008257,-0.006874,0.002253,-0.000408,0.01586,-0.306956,-0.951592,-0.01586065815762936
1762016275.704086,0.155513,0.007112,-0.00641,0.987788,0.008217,0.008362,-0.009309,-0.007105,0.002352,-0.000846,0.016045,-0.307136,-0.951531,-0.016045678826363183
1762016275.734521,0.155608,0.007203,-0.00649,0.987771,0.006565,0.006916,-0.007838,-0.006258,0.00208,-0.000892,0.016249,-0.307316,-0.951469,-0.01624971177596105
1762016275.734834,0.155701,0.007272,-0.006539,0.987756,0.007355,0.004935,-0.006095,-0.00758,0.001382,-0.001517,0.016402,-0.307495,-0.951408,-0.016402740575309546
1762016275.78051,0.155804,0.007305,-0.006575,0.987739,0.010272,0.002378,-0.00406,-0.006181,0.000373,-0.002204,0.01648,-0.307691,-0.951344,-0.016480739893340424
1762016275.780792,0.155923,0.007331,-0.006595,0.98772,0.012683,-0.000714,0.0001,-0.005986,0.000813,-0.001179,0.016538,-0.30792,-0.951269,-0.016538746172818607
1762016275.809222,0.156047,0.007308,-0.006564,0.987701,0.011362,-0.000601,0.006772,-0.006916,0.000981,-0.001215,0.016484,-0.308159,-0.951192,-0.016484747324994917
1762016275.842425,0.156175,0.007276,-0.006488,0.987681,0.010573,0.00181,0.009058,-0.006854,-0.000642,-0.001069,0.0164,-0.308408,-0.951113,-0.016400732021381776
1762016275.842736,0.156287,0.007292,-0.006388,0.987664,0.012188,0.004596,0.008149,-0.00632,-0.003116,-0.000838,0.0164,-0.308625,-0.951042,-0.016400741508781163
1762016275.870288,0.156427,0.007352,-0.006324,0.987642,0.012528,0.005293,0.002509,-0.005888,-0.003193,0.000354,0.016501,-0.308895,-0.950953,-0.016501748814440883
1762016275.8723,0.156553,0.007401,-0.006316,0.987622,0.009808,0.001963,-0.003375,-0.005876,-0.00201,0.001196,0.016596,-0.309137,-0.950873,-0.01659675716146595
1762016275.901991,0.156645,0.007412,-0.006371,0.987607,0.007436,-1.3e-05,-0.007037,-0.005588,-0.001159,0.00051,0.016636,-0.309312,-0.950815,-0.01663676882953206
1762016275.935092,0.156744,0.007408,-0.006457,0.98759,0.010589,-0.004686,-0.008661,-0.006109,-0.000926,0.000465,0.016656,-0.309502,-0.950753,-0.0166567687433958
1762016275.936945,0.156891,0.007363,-0.006544,0.987567,0.017879,-0.004181,-0.005693,-0.00596,-0.000559,-0.001367,0.016597,-0.309784,-0.950662,-0.016597763513741592
1762016275.965387,0.157123,0.007325,-0.006575,0.98753,0.030081,-0.00533,9.6e-05,-0.006195,0.000876,-0.001219,0.016533,-0.310231,-0.950517,-0.016533760054625802
1762016275.973076,0.157488,0.007276,-0.006549,0.987472,0.044649,-0.004944,0.004866,-0.004925,0.002252,-0.001346,0.016433,-0.310935,-0.950289,-0.016433741327373366
1762016276.003334,0.15801,0.00721,-0.006464,0.98739,0.059758,-0.004428,0.011341,-0.004737,0.001865,-0.001042,0.016281,-0.311942,-0.949962,-0.016281713788905576
1762016276.033619,0.158663,0.007136,-0.006364,0.987286,0.079608,-0.017007,0.00575,-0.004859,-0.00253,0.001895,0.01611,-0.313202,-0.94955,-0.01611069509310841
1762016276.033904,0.159454,0.007032,-0.006415,0.987159,0.083221,-0.011621,-0.00727,-0.004705,-0.000358,0.000465,0.01593,-0.314724,-0.94905,-0.015930666943507695
1762016276.074975,0.160313,0.006955,-0.006555,0.98702,0.086273,-0.011914,-0.013728,-0.006934,0.003372,-0.001064,0.015831,-0.316372,-0.948503,-0.015831662888934835
1762016276.077043,0.161134,0.006909,-0.006692,0.986886,0.081491,-0.007644,-0.01114,-0.007937,0.004311,-0.000228,0.015794,-0.31795,-0.947976,-0.01579465552957446
1762016276.112519,0.161911,0.006835,-0.00681,0.986758,0.071,-0.006037,-0.008183,-0.007573,0.004472,-0.001956,0.015694,-0.319441,-0.947476,-0.015694647259792454
1762016276.113705,0.162557,0.006817,-0.00687,0.986652,0.058303,0.000452,-0.002278,-0.007713,0.005825,-0.001737,0.015686,-0.32068,-0.947058,-0.015686638871314496
1762016276.143795,0.163072,0.006826,-0.006852,0.986567,0.043789,0.002408,0.002948,-0.007808,0.00528,-0.000451,0.015704,-0.321669,-0.946722,-0.01570464471088092
1762016276.172907,0.163419,0.006841,-0.006782,0.98651,0.02942,0.001935,0.008027,-0.007274,0.003656,0.000677,0.015714,-0.322336,-0.946495,-0.015714645117341955
1762016276.174788,0.163674,0.006824,-0.00666,0.986468,0.021383,-0.002534,0.010362,-0.007305,0.000245,0.000909,0.015644,-0.322827,-0.946329,-0.015644633615273375
1762016276.204802,0.163849,0.006786,-0.00655,0.98644,0.013601,-0.004013,0.010021,-0.00671,-0.001526,0.000361,0.015534,-0.323166,-0.946215,-0.01553462173905243
1762016276.212941,0.16395,0.006725,-0.006454,0.986424,0.005172,-0.003857,0.006802,-0.00678,-0.00025,-0.000427,0.015384,-0.323363,-0.94615,-0.015384605958958728
1762016276.243163,0.163971,0.006674,-0.0064,0.986422,-0.002664,-0.00246,0.00465,-0.006676,-0.001291,-0.001446,0.015265,-0.323404,-0.946138,-0.015265590748145085
1762016276.273437,0.16391,0.006656,-0.006352,0.986432,-0.008654,-0.000222,0.000933,-0.007777,-0.003364,-0.001628,0.015214,-0.323287,-0.946178,-0.015214596431390401
1762016276.273717,0.163811,0.006665,-0.006364,0.986449,-0.010934,0.000652,-0.003735,-0.008042,-0.003597,-0.00171,0.015233,-0.323097,-0.946243,-0.015233592757781751
1762016276.308498,0.163692,0.00667,-0.006423,0.986468,-0.010623,0.001394,-0.006436,-0.008662,-0.003537,-0.001833,0.015262,-0.322869,-0.946321,-0.015262586794042372
1762016276.3105,0.163591,0.006697,-0.006515,0.986484,-0.01065,0.004176,-0.008578,-0.007343,-0.001659,-0.000971,0.015345,-0.322672,-0.946386,-0.015345608801279522
1762016276.373769,0.16351,0.006746,-0.006569,0.986497,-0.008474,0.005809,-0.007427,-0.007359,-0.001487,-0.001256,0.015459,-0.322515,-0.946438,-0.015459617394350976
1762016276.374218,0.163429,0.006796,-0.006623,0.986509,-0.006298,0.007442,-0.006276,-0.007376,-0.001314,-0.00154,0.015573,-0.322358,-0.94649,-0.01557362548651489
1762016276.374901,0.163371,0.006856,-0.006664,0.986518,-0.004539,0.00792,-0.004088,-0.006996,-0.001367,-0.000836,0.015705,-0.322246,-0.946526,-0.015705640956470972
1762016276.407116,0.163326,0.006937,-0.006679,0.986525,-0.005354,0.006275,-0.004022,-0.007202,-0.000465,0.000147,0.015869,-0.322158,-0.946553,-0.01586966465145942
1762016276.411001,0.163272,0.007002,-0.006712,0.986534,-0.006078,0.004849,-0.003243,-0.006917,-0.000985,-7.5e-05,0.016008,-0.322052,-0.946587,-0.01600867820384311
1762016276.446465,0.163211,0.00704,-0.006745,0.986543,-0.003505,0.002438,-0.00313,-0.00723,-0.000671,0.000115,0.016092,-0.321935,-0.946625,-0.01609269469353604
1762016276.450953,0.163184,0.007062,-0.006788,0.986547,-0.001339,0.001017,-0.002908,-0.00613,-0.000942,-0.001132,0.01615,-0.321881,-0.946642,-0.01615070797004433
1762016276.482078,0.163196,0.007076,-0.006809,0.986545,0.000241,0.002589,-0.002052,-0.0059,-0.000171,-0.001777,0.016183,-0.321904,-0.946634,-0.01618370640513831
1762016276.511505,0.163216,0.007112,-0.006818,0.986541,0.000591,0.002606,-0.000915,-0.005672,0.000937,-0.00131,0.016257,-0.321943,-0.94662,-0.016257707970657835
1762016276.511813,0.163216,0.007155,-0.006821,0.986541,-0.001637,0.002602,4e-06,-0.005748,0.001089,-0.000725,0.016343,-0.321941,-0.946619,-0.01634372243858659
1762016276.540326,0.163193,0.007186,-0.0068,0.986545,-0.004303,0.003968,-0.000687,-0.004417,-0.00132,0.000259,0.016398,-0.321897,-0.946633,-0.016398729977727046
1762016276.570954,0.163158,0.007202,-0.006819,0.98655,-0.00221,0.003482,-0.001992,-0.006989,-0.001338,0.000935,0.016436,-0.321829,-0.946655,-0.016436742266091434
1762016276.57305,0.163144,0.007231,-0.006837,0.986552,3.8e-05,0.001204,-0.00071,-0.007478,-0.000346,-0.000659,0.016497,-0.321802,-0.946663,-0.016497752381970807
1762016276.601832,0.163138,0.007243,-0.006845,0.986553,-0.000921,0.004903,0.000104,-0.007398,0.000402,-0.002507,0.016525,-0.32179,-0.946667,-0.016525749803221117
1762016276.632289,0.163118,0.007318,-0.006824,0.986556,-0.00392,0.009027,-5.5e-05,-0.006841,0.001371,-0.001716,0.016666,-0.32175,-0.946678,-0.01666677116091905
1762016276.633468,0.163067,0.007424,-0.00682,0.986563,-0.005757,0.00777,-0.003178,-0.006382,0.001319,-0.000136,0.016872,-0.32165,-0.946708,-0.016872805437386527
1762016276.675925,0.162969,0.007466,-0.006843,0.986579,-0.010746,0.004535,-0.005848,-0.005486,0.001473,0.000268,0.016963,-0.321462,-0.946771,-0.016963806077492195
1762016276.676279,0.162864,0.007501,-0.00693,0.986596,-0.012431,-0.000324,-0.009913,-0.005872,0.002618,0.000272,0.017059,-0.321258,-0.946838,-0.017059828262126275
1762016276.704042,0.162754,0.007512,-0.007035,0.986613,-0.009963,-0.002716,-0.01041,-0.005592,0.002564,-2.2e-05,0.017112,-0.321044,-0.94691,-0.017112829940911276
1762016276.711917,0.162678,0.007503,-0.00713,0.986625,-0.004252,-0.00204,-0.006857,-0.006251,0.00362,-0.000325,0.017125,-0.320897,-0.946959,-0.01712584143918792
1762016276.741853,0.16267,0.007502,-0.007173,0.986626,0.000331,-0.000803,-0.001875,-0.006208,0.003561,1.3e-05,0.017137,-0.320881,-0.946964,-0.01713784652582101
1762016276.779942,0.162714,0.007474,-0.007137,0.986619,0.001588,-0.000978,0.003076,-0.006435,0.002574,-0.000385,0.017071,-0.320967,-0.946937,-0.017071821423994778
1762016276.780352,0.162758,0.007446,-0.007101,0.986612,0.002844,-0.001153,0.008028,-0.006663,0.001587,-0.000784,0.017004,-0.321052,-0.946909,-0.017004818013022404
1762016276.809285,0.162824,0.007387,-0.00701,0.986603,0.005507,-0.00523,0.01071,-0.006438,-0.000185,-0.002028,0.016858,-0.321182,-0.946867,-0.01685880545819231
1762016276.811098,0.1629,0.007319,-0.006924,0.986591,0.006836,-0.005404,0.007066,-0.005681,-0.002825,-0.003168,0.016698,-0.321331,-0.94682,-0.016698771493437847
1762016276.840332,0.162965,0.007223,-0.006871,0.986582,0.007696,-0.008877,0.00411,-0.005956,-0.004599,-0.001342,0.016492,-0.321457,-0.946781,-0.016492740673287275
1762016276.872337,0.163049,0.007118,-0.006834,0.986569,0.011187,-0.011422,0.003361,-0.006195,-0.005328,0.000224,0.016272,-0.321622,-0.946728,-0.016272723087603448
