timestamp,quat_x,quat_y,quat_z,quat_w,rot_x,rot_y,rot_z,acc_x,acc_y,acc_z,grav_x,grav_y,grav_z,pitch_rad
1760174617.770619,0.249045,0.312605,-0.0,0.916654,-0.016514,0.009059,-0.006643,-0.77818,0.216449,-0.26555,0.573101,-0.456576,-0.68051,-0.6102848644977783
1760174617.801666,0.200228,0.132322,0.032316,0.970235,-0.009692,0.007154,-0.006998,-0.448898,0.157176,-0.061451,0.243825,-0.397089,-0.884799,-0.24630799511444731
1760174617.80192,0.143643,-0.053095,0.063378,0.98617,-0.002869,0.005249,-0.007353,-0.082137,0.036884,0.006654,-0.122929,-0.276584,-0.953095,0.12324071199748297
1760174617.848309,0.129786,-0.095641,0.070165,0.984421,0.004809,0.000726,0.000143,0.001147,0.004273,0.001641,-0.206515,-0.242106,-0.948017,0.20801183342104262
1760174617.848548,0.129818,-0.095634,0.070196,0.984416,0.008442,0.000873,0.002002,0.001041,0.003629,0.001003,-0.206513,-0.242163,-0.948003,0.208009764770015
1760174617.879376,0.129356,-0.094812,0.070193,0.984556,0.010257,0.005322,0.000908,-0.00026,-0.001576,-0.001561,-0.204855,-0.241406,-0.948556,0.20631546768076814
1760174617.879676,0.12907,-0.094807,0.070246,0.98459,0.008832,0.01235,-0.000561,-0.000334,-0.002019,-0.001999,-0.204825,-0.240843,-0.948705,0.20628493336371453
1760174617.917333,0.128583,-0.094792,0.070349,0.984648,0.006058,0.002345,0.001407,-0.002487,-0.003985,0.002639,-0.204765,-0.239881,-0.948962,0.20622356418565238
1760174617.917634,0.128464,-0.094798,0.07038,0.984661,0.009616,0.001167,-0.005455,-0.002396,-0.006442,0.001375,-0.20477,-0.239642,-0.949021,0.2062287328137594
1760174617.9429,0.128662,-0.094692,0.070288,0.984652,0.000112,0.011049,-0.005351,0.000252,-0.004556,-0.001017,-0.204564,-0.240064,-0.948959,0.206018232013916
1760174617.961707,0.129054,-0.094514,0.070108,0.98463,-0.003149,0.012015,-0.010146,0.000507,-0.002544,0.001087,-0.204217,-0.240889,-0.948825,0.20566368237430271
1760174618.009585,0.129153,-0.094541,0.070048,0.984619,-0.005645,0.01142,-0.009696,0.001065,-0.001525,0.001051,-0.204267,-0.241088,-0.948763,0.2057148959949525
1760174618.009936,0.129252,-0.094568,0.069988,0.984608,-0.008141,0.010825,-0.009245,0.001623,-0.000505,0.001015,-0.204316,-0.241288,-0.948702,0.20576487336133775
1760174618.040705,0.129463,-0.094476,0.069797,0.984602,-0.006608,0.005434,-0.006584,0.001663,0.001365,0.000336,-0.204115,-0.241751,-0.948627,0.20555962423596724
1760174618.041126,0.129495,-0.094451,0.069724,0.984606,-0.004029,0.005538,-0.005265,0.002636,0.002489,0.000893,-0.204052,-0.241833,-0.94862,0.20549520114560937
1760174618.071858,0.129598,-0.094285,0.069709,0.984609,-0.000221,0.004441,0.003946,0.002866,0.002313,-2.4e-05,-0.203737,-0.242061,-0.948629,0.20517355126054804
1760174618.124151,0.129597,-0.09421,0.069732,0.984615,0.001129,0.003122,0.002548,0.002556,0.001441,7.6e-05,-0.203595,-0.242067,-0.948658,0.20502850239721473
1760174618.124453,0.129596,-0.094134,0.069756,0.984621,0.00248,0.001803,0.00115,0.002247,0.000568,0.000176,-0.203453,-0.242072,-0.948687,0.20488350385139711
1760174618.125016,0.129594,-0.094059,0.06978,0.984626,0.00383,0.000484,-0.000248,0.001938,-0.000304,0.000276,-0.203311,-0.242078,-0.948717,0.2047382579898156
1760174618.154219,0.129471,-0.09398,0.069741,0.984653,0.000101,0.001425,-0.002536,0.001431,-0.000759,-1.3e-05,-0.203135,-0.24186,-0.94881,0.20455856552958795
1760174618.161598,0.129501,-0.093843,0.069687,0.984666,0.001063,0.00228,-0.002687,0.001014,-0.000393,0.000123,-0.202858,-0.241951,-0.948846,0.20427568786872213
1760174618.194023,0.129518,-0.093808,0.06966,0.984669,0.001187,0.00239,-0.002707,0.001083,0.000397,0.000876,-0.202784,-0.241996,-0.94885,0.2042001844210637
1760174618.227521,0.129536,-0.093771,0.069651,0.984671,0.001441,0.001202,-0.001512,0.000979,0.000419,0.001401,-0.202712,-0.242038,-0.948855,0.20412659291801166
1760174618.227878,0.129554,-0.093734,0.069642,0.984672,0.001695,1.4e-05,-0.000317,0.000874,0.00044,0.001926,-0.20264,-0.24208,-0.948859,0.20405319748941506
1760174618.255422,0.129575,-0.09368,0.069631,0.984676,-0.001002,-0.001612,0.002728,0.000565,0.001023,0.000733,-0.202534,-0.242132,-0.948869,0.2039448280038915
1760174618.263185,0.129564,-0.093728,0.069717,0.984666,0.001412,-0.002052,0.006308,0.000136,0.000245,0.000176,-0.202647,-0.242085,-0.948857,0.20406019448652085
1760174618.310168,0.129579,-0.093736,0.069747,0.984661,0.001614,-0.002625,0.006219,8.4e-05,0.000153,0.000109,-0.202671,-0.242108,-0.948846,0.20408470415091495
1760174618.310416,0.129595,-0.093743,0.069776,0.984657,0.001816,-0.003199,0.00613,3.3e-05,6e-05,4.3e-05,-0.202695,-0.242131,-0.948835,0.20410921368612875
1760174618.338533,0.129608,-0.093768,0.069857,0.984647,0.002249,-0.002211,0.003971,-0.000536,-0.00126,0.00068,-0.202764,-0.242136,-0.948819,0.20417967317017366
1760174618.338858,0.129622,-0.093785,0.069881,0.984642,0.001258,-0.001878,0.001836,-0.00115,-0.003101,0.000678,-0.202804,-0.242155,-0.948805,0.20422064016004848
1760174618.370472,0.129624,-0.093778,0.069927,0.984639,-0.002072,0.000725,0.001045,-0.001383,0.000462,-0.000235,-0.202803,-0.24215,-0.948807,0.20421951868899071
1760174618.404631,0.129625,-0.093769,0.069924,0.98464,-0.002066,9.6e-05,-0.000102,-0.000936,6e-06,0.000151,-0.202785,-0.242155,-0.94881,0.20420105247904077
1760174618.404913,0.129626,-0.09376,0.06992,0.984641,-0.002059,-0.000532,-0.001248,-0.00049,-0.00045,0.000537,-0.202767,-0.242159,-0.948812,0.2041828328930259
1760174618.435641,0.129604,-0.093757,0.069879,0.984647,-0.004625,0.003488,-0.00275,-0.000317,-0.000139,0.00159,-0.202748,-0.242125,-0.948825,0.20416337822698663
1760174618.443764,0.129567,-0.093789,0.069831,0.984652,-0.004895,-0.002205,-0.003201,-0.000478,-0.000447,0.001928,-0.202795,-0.242058,-0.948832,0.20421138526619212
1760174618.473947,0.129549,-0.093782,0.069804,0.984657,-0.002255,-0.001016,-0.001475,-0.001206,0.000123,0.000721,-0.202773,-0.242031,-0.948844,0.2041888378079182
1760174618.515177,0.129532,-0.093821,0.06982,0.984654,-0.001741,-0.002581,0.001006,-0.000897,0.000364,0.001643,-0.202851,-0.241987,-0.948838,0.2042686013551264
1760174618.515478,0.129515,-0.09386,0.069837,0.984652,-0.001227,-0.004146,0.003487,-0.000588,0.000605,0.002565,-0.202929,-0.241944,-0.948832,0.204348314493472
1760174618.544481,0.129527,-0.093877,0.069865,0.984647,0.002032,0.000979,0.00286,-0.000781,-0.000421,-1.9e-05,-0.202971,-0.241958,-0.94882,0.2043910982570236
1760174618.544791,0.129539,-0.093895,0.069892,0.984641,0.005291,0.006104,0.002232,-0.000975,-0.001447,-0.002602,-0.203012,-0.241973,-0.948807,0.20443304929088707
1760174618.612125,0.129658,-0.093777,0.069896,0.984637,0.010615,0.010405,-0.005999,-0.00107,-0.002318,0.001236,-0.202797,-0.242222,-0.94879,0.20421337251582483
1760174618.612405,0.129633,-0.093603,0.06989,0.984657,0.003754,0.016106,-0.007805,-0.001013,-0.001362,0.000729,-0.202454,-0.242204,-0.948868,0.20386307615778448
1760174618.612791,0.129608,-0.093429,0.069885,0.984677,-0.003106,0.021806,-0.009611,-0.000957,-0.000406,0.000222,-0.20211,-0.242186,-0.948945,0.20351199613878637
1760174618.641041,0.129459,-0.093078,0.069734,0.984741,-0.013554,0.015204,-0.013087,0.000147,0.001772,0.002614,-0.201371,-0.241985,-0.949154,0.2027573576584402
1760174618.641493,0.129375,-0.092998,0.069667,0.984764,-0.015351,0.011751,-0.009302,0.000675,0.003114,0.002142,-0.201189,-0.241849,-0.949227,0.20257160486716852
1760174618.672755,0.129247,-0.092977,0.069554,0.984791,-0.001088,-0.003297,-0.000807,0.000658,0.004829,0.002637,-0.201106,-0.241629,-0.949301,0.20248679753179666
1760174618.702155,0.129273,-0.09301,0.069567,0.984783,0.003179,-0.002457,0.003265,0.00055,0.005207,0.002611,-0.201175,-0.241671,-0.949275,0.20255737133735421
1760174618.702482,0.129299,-0.093042,0.06958,0.984776,0.007446,-0.001617,0.007336,0.000443,0.005585,0.002585,-0.201244,-0.241713,-0.94925,0.2026277497577414
1760174618.738776,0.129414,-0.09306,0.069802,0.984743,0.014933,0.000283,0.010855,-0.000382,0.001222,5.7e-05,-0.201347,-0.241887,-0.949184,0.20273286963227305
1760174618.739135,0.129479,-0.093054,0.06987,0.984731,0.015281,-0.00066,0.006958,-0.001807,3.5e-05,-0.000902,-0.20136,-0.242,-0.949152,0.20274622700722936
1760174618.770018,0.129566,-0.093036,0.069984,0.984713,0.008472,0.001024,0.00125,-0.001493,-0.000959,0.000766,-0.201363,-0.242149,-0.949114,0.20274916513755045
1760174618.799407,0.129595,-0.09301,0.069989,0.984711,0.009145,0.001731,-0.001315,-0.001677,-0.001241,0.001293,-0.201317,-0.242208,-0.949108,0.20270234068675144
1760174618.799693,0.129623,-0.092985,0.069994,0.984709,0.009817,0.002437,-0.003879,-0.001861,-0.001522,0.001821,-0.201271,-0.242266,-0.949103,0.20265537022857755
1760174618.83177,0.129741,-0.092947,0.069935,0.984702,0.001298,0.00677,-0.005896,0.000573,-0.000962,0.000876,-0.201197,-0.242511,-0.949056,0.2025798479679497
1760174618.839556,0.129754,-0.092843,0.069873,0.984714,-0.001922,0.004076,-0.003654,-0.000399,-0.000602,0.001903,-0.200981,-0.242566,-0.949088,0.20235928726039495
1760174618.909494,0.129732,-0.092817,0.069848,0.984721,-0.00157,0.002605,-0.002267,-0.000194,0.000136,0.001943,-0.200921,-0.242533,-0.949109,0.20229806452993992
1760174618.909824,0.12971,-0.09279,0.069823,0.984728,-0.001217,0.001135,-0.00088,1.1e-05,0.000874,0.001983,-0.20086,-0.242501,-0.94913,0.20223581215805295
1760174618.910097,0.129689,-0.092764,0.069798,0.984735,-0.000864,-0.000336,0.000507,0.000215,0.001612,0.002023,-0.2008,-0.242468,-0.949151,0.20217458884009054
1760174618.938204,0.129659,-0.092767,0.069818,0.984738,-0.000961,-0.000709,0.002243,-0.000112,0.002315,0.00229,-0.200808,-0.242407,-0.949165,0.2021827334615633
1760174618.93851,0.12963,-0.092771,0.069838,0.98474,-0.001059,-0.001083,0.003979,-0.000439,0.003017,0.002558,-0.200816,-0.242346,-0.949179,0.20219087727883658
1760174618.969655,0.129626,-0.092793,0.069924,0.984732,-1.9e-05,-0.001215,0.002856,-0.000422,0.000444,0.000791,-0.200881,-0.242317,-0.949173,0.20225716122168116
1760174618.980513,0.129642,-0.092818,0.069972,0.984724,0.002456,0.000238,-0.00278,-0.000338,-0.000461,0.000697,-0.200944,-0.242335,-0.949155,0.20232148603507089
1760174619.012962,0.129645,-0.092813,0.069947,0.984726,0.001682,0.000721,-0.003509,-0.000722,-0.000418,-0.000158,-0.200927,-0.242345,-0.949156,0.20230414098299618
1760174619.019538,0.129643,-0.092835,0.069897,0.984728,-8e-06,-0.001136,-0.001612,0.000118,0.001171,0.00119,-0.200958,-0.242349,-0.949149,0.2023356726971301
1760174619.048482,0.129646,-0.092809,0.069882,0.984731,-3e-06,-0.000411,-0.000583,0.000395,0.0017,0.000867,-0.200904,-0.242362,-0.949157,0.20228057031523125
1760174619.078941,0.129659,-0.092793,0.069886,0.98473,0.000979,0.000151,0.000494,0.000315,0.001547,0.001104,-0.200875,-0.242388,-0.949156,0.20225106385962063
1760174619.079233,0.129671,-0.092777,0.069889,0.98473,0.00196,0.000712,0.001571,0.000236,0.001393,0.001342,-0.200846,-0.242414,-0.949156,0.2022213626439063
1760174619.109416,0.129692,-0.092799,0.069924,0.984723,-0.000489,-0.001464,-2e-06,-0.000591,0.000432,0.000896,-0.200901,-0.242444,-0.949136,0.20227764276752688
1760174619.133398,0.129689,-0.092823,0.069933,0.98472,-0.000575,-0.001343,0.000745,-0.001207,0.000907,0.000609,-0.200949,-0.242433,-0.949129,0.20232657359914255
1760174619.163975,0.129686,-0.09285,0.069944,0.984717,-0.000606,-0.0013,0.001009,-0.001473,0.00078,0.000215,-0.201003,-0.24242,-0.949121,0.2023816761588194
1760174619.164229,0.129683,-0.092877,0.069954,0.984714,-0.000636,-0.001257,0.001273,-0.001739,0.000653,-0.000179,-0.201058,-0.242408,-0.949112,0.20243790331303377
1760174619.211425,0.129668,-0.092871,0.069982,0.984715,0.000531,0.00128,-0.000609,-7e-06,0.000328,0.000682,-0.201051,-0.242374,-0.949122,0.20243078971883546
1760174619.211731,0.129678,-0.092863,0.069989,0.984714,0.000355,0.001337,0.000538,-0.000191,-0.000224,0.000681,-0.201038,-0.242394,-0.94912,0.20241744982057047
1760174619.241894,0.129682,-0.09286,0.069992,0.984714,0.000383,0.000679,-0.00092,-0.000506,0.000659,0.001526,-0.201034,-0.2424,-0.949119,0.20241342779138724
1760174619.242182,0.129685,-0.092857,0.069994,0.984713,0.000412,2.1e-05,-0.002379,-0.000821,0.001541,0.002371,-0.20103,-0.242406,-0.949119,0.2024092109744982
1760174619.270703,0.129718,-0.092872,0.069965,0.98471,0.001749,0.000939,-0.002576,-0.001024,0.000341,0.000556,-0.201055,-0.242474,-0.949096,0.20243479720607274
1760174619.30634,0.129733,-0.092833,0.069938,0.984713,0.000874,0.00262,3e-06,-0.000914,0.000305,-0.000156,-0.200975,-0.242514,-0.949103,0.20235307642710434
1760174619.335742,0.129727,-0.092815,0.069939,0.984716,-0.000442,0.002567,-0.00067,-0.000676,0.000225,0.000359,-0.200939,-0.242506,-0.949112,0.20231645649859964
1760174619.336133,0.129722,-0.092797,0.06994,0.984718,-0.001758,0.002514,-0.001343,-0.000437,0.000145,0.000873,-0.200904,-0.242499,-0.949122,0.20228057173113992
1760174619.337558,0.12968,-0.092736,0.069876,0.984734,-0.002949,0.002466,-0.001952,-4e-06,0.001382,0.002637,-0.200763,-0.24244,-0.949167,0.20213662112615988
1760174619.3669,0.129646,-0.092759,0.069852,0.984738,-0.003994,-8.6e-05,-0.001077,-0.000819,0.000261,0.001243,-0.200798,-0.242375,-0.949176,0.20217238690883405
1760174619.408067,0.129621,-0.092767,0.069848,0.984741,-0.002431,-5.2e-05,-0.000655,-0.000543,-0.000111,0.000489,-0.200811,-0.242327,-0.949185,0.20218575554861823
1760174619.408813,0.129596,-0.092776,0.069844,0.984743,-0.000869,-1.9e-05,-0.000234,-0.000267,-0.000482,-0.000264,-0.200823,-0.242279,-0.949195,0.202197949501683
1760174619.439645,0.129556,-0.092823,0.069961,0.984736,-0.001554,-0.001149,0.006878,-0.001048,-0.000115,0.001753,-0.200939,-0.242169,-0.949198,0.2023164647871067
1760174619.469068,0.129599,-0.0928,0.070006,0.984729,0.00182,0.004799,-0.001277,-0.00149,-0.001426,0.000613,-0.20091,-0.242246,-0.949185,0.20228676185901365
1760174619.519006,0.129573,-0.092607,0.070005,0.984751,-0.002332,0.012336,-0.003368,-0.001616,-0.000664,0.000268,-0.20053,-0.242228,-0.94927,0.20189885737981728
1760174619.519335,0.129547,-0.092413,0.070004,0.984773,-0.006484,0.019873,-0.00546,-0.001743,9.8e-05,-7.8e-05,-0.20015,-0.242209,-0.949355,0.20151100217539755
1760174619.519592,0.129454,-0.092235,0.069947,0.984805,-0.010659,0.014157,-0.008762,-0.001715,0.001684,0.001825,-0.199777,-0.242071,-0.949469,0.20113026641249174
1760174619.547145,0.12934,-0.092137,0.069855,0.984836,-0.013773,0.007972,-0.009277,-0.000151,0.003113,0.002369,-0.199551,-0.241884,-0.949564,0.2008996569078974
1760174619.577812,0.129228,-0.092087,0.069769,0.984862,-0.00797,0.002261,-0.005718,-0.000817,0.003679,0.002809,-0.199418,-0.241694,-0.94964,0.20076399030326597
1760174619.579084,0.129193,-0.092098,0.069733,0.984868,-0.000652,-0.001696,-7.8e-05,-0.000913,0.00604,0.002484,-0.199428,-0.241631,-0.949654,0.20077418215039056
1760174619.630352,0.129215,-0.092146,0.06978,0.984857,0.006123,-0.001057,0.006026,-0.000538,0.005967,0.001625,-0.199535,-0.241656,-0.949625,0.20088340814717562
1760174619.630631,0.129291,-0.092168,0.069902,0.984836,0.011879,-0.001826,0.010665,-0.00057,0.002925,0.00014,-0.199616,-0.241775,-0.949578,0.20096601033892245
1760174619.658232,0.129401,-0.092185,0.070043,0.98481,0.014231,0.000491,0.009849,-0.000847,0.000925,-0.000452,-0.199696,-0.241957,-0.949515,0.2010476193667323
1760174619.660236,0.129514,-0.092177,0.070138,0.984789,0.010525,0.003843,0.004458,-0.002133,8.5e-05,-0.001287,-0.199718,-0.242157,-0.949459,0.20107014631287518
1760174619.689721,0.129573,-0.092162,0.070186,0.98478,0.006753,0.001526,0.001307,-0.001555,-0.001055,0.001558,-0.199708,-0.242265,-0.949434,0.2010598539918798
1760174619.697181,0.129627,-0.092125,0.070193,0.984775,0.005333,0.003246,-0.002606,-0.001141,-0.002006,0.00061,-0.199642,-0.242375,-0.949419,0.20099265341191402
1760174619.740046,0.129688,-0.092119,0.070127,0.984773,0.003617,0.000775,-0.010973,-0.00143,-0.002674,0.00231,-0.199623,-0.242506,-0.94939,0.2009731746838666
1760174619.742171,0.129728,-0.092089,0.070046,0.984776,0.002662,0.005215,-0.009455,-0.001534,0.000167,0.001545,-0.199547,-0.242606,-0.949381,0.20089550369131556
1760174619.770705,0.129763,-0.09203,0.069982,0.984782,0.001105,0.004679,-0.006368,-0.001981,-0.000362,0.000411,-0.199421,-0.242695,-0.949384,0.2007670599608702
1760174619.77773,0.129764,-0.091992,0.069936,0.984788,-0.002924,0.002939,-0.003047,-0.001132,0.000425,-0.000351,-0.199336,-0.242714,-0.949397,0.20068031711369091
1760174619.8137,0.129752,-0.091972,0.06993,0.984792,-0.003234,0.002731,-0.000727,-0.000497,0.000628,0.001116,-0.199293,-0.242694,-0.949411,0.20063646370650057
1760174619.819783,0.129709,-0.091937,0.069931,0.984801,-0.005129,0.002346,0.00249,-0.000742,0.001317,0.002009,-0.19922,-0.242617,-0.949446,0.20056196992446884
1760174619.85025,0.129651,-0.091932,0.069978,0.984806,-0.004153,-0.000161,0.004117,-0.000473,0.001015,0.002869,-0.199215,-0.242496,-0.949478,0.2005568600542109
1760174619.857273,0.129585,-0.091956,0.070021,0.984809,-0.005041,-0.001603,0.003714,-0.000675,0.001002,0.001428,-0.199265,-0.242355,-0.949504,0.20060778812935556
1760174619.887408,0.129518,-0.091965,0.070051,0.984815,-0.005316,0.000513,0.000851,-0.000329,-4e-05,0.000128,-0.199283,-0.242218,-0.949535,0.20062619134469994
1760174619.916102,0.129465,-0.091965,0.070031,0.984823,-0.002906,0.000489,-0.001549,-0.00089,-0.00021,0.000373,-0.199273,-0.242119,-0.949562,0.20061605370468658
1760174619.916371,0.12943,-0.091969,0.06998,0.984831,-0.002853,0.000773,-0.004347,-0.00014,0.000304,-0.000278,-0.199263,-0.242062,-0.949579,0.20060577770292864
1760174619.945959,0.12939,-0.091967,0.069929,0.98484,-0.001087,0.000295,-0.001656,-0.000644,0.002116,-0.000297,-0.199242,-0.241994,-0.949601,0.20058429741854747
1760174619.975617,0.129374,-0.091967,0.069909,0.984844,-0.000413,0.000112,-0.000629,-0.001037,0.002422,0.000119,-0.199235,-0.241968,-0.949609,0.20057717236930955
1760174619.976632,0.129371,-0.091948,0.069925,0.984845,0.001595,-0.000547,0.003535,-0.000252,0.001774,0.000893,-0.199202,-0.241961,-0.949618,0.2005434407386605
1760174620.008182,0.129381,-0.091965,0.069985,0.984838,0.001622,0.000355,0.004075,-0.000522,0.001718,0.00109,-0.199251,-0.241965,-0.949606,0.20059357838225889
1760174620.040436,0.129397,-0.091986,0.070029,0.98483,0.004767,-0.002162,0.00316,-0.001467,0.00107,0.001066,-0.199305,-0.241984,-0.94959,0.20064865009006747
1760174620.042172,0.129425,-0.092042,0.070065,0.984819,0.004075,-0.001575,0.001577,-0.002192,0.001404,0.000535,-0.199426,-0.242022,-0.949555,0.2007721117519488
1760174620.074279,0.129461,-0.092084,0.070088,0.984809,0.001124,-0.001367,0.001442,-0.001192,0.001105,-0.000322,-0.199518,-0.242081,-0.949521,0.2008659276501595
1760174620.114142,0.129469,-0.0921,0.070113,0.984804,0.000691,-0.00084,0.000886,-0.00129,0.000584,0.00053,-0.199555,-0.242088,-0.949511,0.20090377202879864
1760174620.114386,0.129477,-0.092115,0.070139,0.9848,0.000258,-0.000313,0.000331,-0.001388,6.2e-05,0.001382,-0.199592,-0.242096,-0.949501,0.20094156710897132
1760174620.115329,0.129495,-0.092108,0.07016,0.984797,9.6e-05,-0.000116,0.000123,-0.001222,0.000258,0.001273,-0.199587,-0.242128,-0.949494,0.20093644342922057
1760174620.147276,0.1295,-0.092124,0.070144,0.984796,0.000299,-0.000129,-0.00167,-0.00116,0.00033,0.001232,-0.199614,-0.242138,-0.949486,0.20096395417904733
1760174620.184037,0.129516,-0.092128,0.070092,0.984797,0.000111,-4.8e-05,-0.000618,-0.00151,0.000941,0.00069,-0.19961,-0.242178,-0.949476,0.20095999566541015
1760174620.186175,0.129518,-0.092156,0.070084,0.984795,0.001195,-0.000403,-3.1e-05,-0.001134,0.00054,0.000156,-0.199664,-0.242181,-0.949464,0.2010150819632114
1760174620.216498,0.12955,-0.092142,0.070102,0.98479,0.001884,0.001208,0.001912,-0.001501,0.00102,0.000292,-0.199645,-0.242241,-0.949453,0.20099563141393997
1760174620.218538,0.129578,-0.092125,0.070119,0.984787,0.001993,0.000929,0.001763,-0.001334,0.000174,0.00044,-0.199619,-0.242294,-0.949445,0.2009690862728988
1760174620.247078,0.129603,-0.092106,0.070137,0.984784,0.001139,0.001128,-0.000219,-0.001406,-9.3e-05,0.001359,-0.19959,-0.242343,-0.949439,0.20093941158949716
1760174620.259426,0.129626,-0.092106,0.07013,0.984782,0.001237,0.00199,-0.00181,-0.001021,0.000598,0.00083,-0.19959,-0.242388,-0.949427,0.20093951073444294
1760174620.295083,0.129619,-0.092118,0.070117,0.984783,0.00045,0.000723,-0.000658,-0.000493,0.001181,0.002906,-0.199609,-0.242375,-0.949426,0.20095896365605267
1760174620.297063,0.129616,-0.092122,0.070113,0.984783,-0.000127,-0.001495,-0.001979,-0.000312,0.000472,0.001923,-0.199616,-0.24237,-0.949426,0.2009660696542008
1760174620.325714,0.129616,-0.092115,0.070077,0.984786,-4.6e-05,-0.00054,-0.000715,-0.000769,-7.5e-05,0.00016,-0.199593,-0.242378,-0.949429,0.20094255730422086
1760174620.356454,0.129615,-0.092121,0.070098,0.984784,-0.000552,-2.1e-05,0.00323,-0.001374,0.000804,0.000295,-0.19961,-0.242371,-0.949427,0.20095994761943478
1760174620.357773,0.129585,-0.092138,0.070142,0.984783,-0.001855,-0.00319,0.00465,-0.000896,0.00042,0.002727,-0.199651,-0.2423,-0.949437,0.20100169341605623
1760174620.411148,0.129595,-0.092144,0.070171,0.984779,-0.000117,2e-06,0.0007,-0.00135,-4.5e-05,0.001004,-0.199671,-0.242314,-0.949429,0.20102214716737696
1760174620.411427,0.129606,-0.09215,0.070201,0.984775,0.00162,0.003194,-0.003251,-0.001804,-0.000509,-0.000719,-0.19969,-0.242328,-0.949421,0.20104162101873171
1760174620.415028,0.129621,-0.09205,0.070202,0.984783,-0.000931,0.017575,0.000493,-0.000792,0.00128,-0.004405,-0.199497,-0.242374,-0.94945,0.20084462517672708
1760174620.44344,0.129558,-0.091865,0.070234,0.984806,-0.008597,0.021206,-0.000939,-0.000835,0.00205,-0.003082,-0.199137,-0.242275,-0.949551,0.20047722224136783
1760174620.4758,0.129448,-0.091681,0.070243,0.984837,-0.01255,0.014438,-0.002138,-0.001183,0.002901,0.000473,-0.198767,-0.242091,-0.949676,0.20009956770136603
1760174620.476104,0.129317,-0.091543,0.070231,0.984868,-0.012713,0.007858,-0.002165,-0.000641,0.003451,0.002276,-0.198481,-0.241862,-0.949794,0.19980778410739414
1760174620.530813,0.129242,-0.09154,0.07021,0.984879,-0.005546,0.004042,-0.000944,-0.000314,0.003787,0.001857,-0.198461,-0.241721,-0.949834,0.19978739223842704
1760174620.53114,0.129167,-0.091537,0.070189,0.984891,0.001621,0.000226,0.000276,1.2e-05,0.004123,0.001439,-0.198441,-0.24158,-0.949874,0.19976699602063888
1760174620.537196,0.129195,-0.091561,0.070224,0.984883,0.007932,-0.003333,0.005949,-0.00187,0.004432,0.001431,-0.198499,-0.241625,-0.94985,0.19982625693303216
1760174620.567379,0.129274,-0.09161,0.0703,0.984862,0.012323,-0.002459,0.007252,-0.001484,0.003244,0.000741,-0.198623,-0.241753,-0.949792,0.19995268127450055
1760174620.598197,0.129401,-0.091643,0.070414,0.984834,0.016243,-0.002952,0.008112,-0.002978,0.001473,-0.000595,-0.19873,-0.241972,-0.949714,0.20006182815558363
1760174620.598464,0.12955,-0.091633,0.070494,0.98481,0.013464,0.003025,0.004724,-0.002089,0.000865,-0.001301,-0.198746,-0.242246,-0.94964,0.20007830760462958
1760174620.62911,0.129641,-0.091667,0.070553,0.984791,0.007742,-0.003812,0.006013,-0.002256,0.001283,0.002474,-0.198839,-0.242405,-0.949581,0.20017300062362411
1760174620.635911,0.129702,-0.091682,0.070607,0.984777,0.006262,-0.002512,0.00268,-0.003,0.000227,0.001438,-0.198888,-0.242508,-0.949544,0.20022308372622435
1760174620.701297,0.129763,-0.091647,0.070595,0.984773,0.00533,0.002593,0.000538,-0.002709,-0.000141,0.000743,-0.198824,-0.242635,-0.949525,0.2001577716910202
1760174620.70143,0.129824,-0.091612,0.070583,0.984769,0.004398,0.007698,-0.001603,-0.002417,-0.000509,4.7e-05,-0.198761,-0.242761,-0.949506,0.20009348563278653
1760174620.701574,0.129865,-0.09155,0.070543,0.984773,0.001996,0.0063,-0.004344,-0.002669,-0.000999,0.001158,-0.198635,-0.242859,-0.949507,0.19996498119855127
1760174620.721771,0.129855,-0.091478,0.070509,0.984783,-0.002876,0.006213,-0.004996,-0.002038,0.00052,0.000638,-0.198484,-0.242859,-0.949539,0.19981083206248557
1760174620.752293,0.12984,-0.091429,0.070439,0.984795,-0.000924,0.003056,-0.008211,-0.002038,0.000625,0.000912,-0.198369,-0.242851,-0.949565,0.19969351391053938
1760174620.755965,0.129836,-0.091403,0.07038,0.984802,0.000118,0.001853,-0.003669,-0.000246,0.001993,0.001214,-0.198303,-0.242859,-0.949576,0.19962631824633492
1760174620.786077,0.129837,-0.091365,0.070349,0.984807,0.000342,0.002453,0.000582,0.000296,0.002958,0.002675,-0.198222,-0.242875,-0.949589,0.1995436430909007
1760174620.815435,0.129853,-0.091349,0.070385,0.984804,0.003003,0.002759,0.003334,-0.000827,0.002268,0.000689,-0.198202,-0.242901,-0.949587,0.19952314690218761
1760174620.816563,0.129892,-0.091318,0.07042,0.9848,0.004022,0.001853,0.001529,-0.000491,0.000342,0.000683,-0.198154,-0.242973,-0.949578,0.1994742903095014
1760174620.851425,0.129935,-0.091302,0.070429,0.984795,0.004794,0.002379,1.7e-05,-0.000774,0.000318,0.000123,-0.198129,-0.243057,-0.949562,0.19944873071924807
1760174620.85271,0.129997,-0.091268,0.070406,0.984791,0.003091,0.000288,-0.00161,-0.001263,0.000929,-0.000623,-0.198065,-0.243188,-0.949542,0.19938340041222888
1760174620.89583,0.130015,-0.091276,0.070374,0.984791,0.001886,0.00176,-0.002356,-0.001349,0.001594,-0.000413,-0.198075,-0.243228,-0.94953,0.19939353896563505
1760174620.89738,0.130052,-0.091272,0.070362,0.984787,0.001848,0.000169,-0.000566,-0.001735,0.001442,0.001029,-0.198069,-0.243302,-0.949512,0.1993874739066673
1760174620.926616,0.13008,-0.091258,0.070369,0.984784,0.003218,0.000161,0.001151,-0.000773,0.001027,0.00263,-0.198047,-0.243359,-0.949502,0.19936502575385118
1760174620.93252,0.130117,-0.091277,0.070381,0.984777,0.004746,-0.001181,0.001005,-0.00169,0.001302,0.002945,-0.198089,-0.243424,-0.949476,0.19940798528674353
1760174620.962158,0.130173,-0.091292,0.070406,0.984766,0.00481,-0.002458,0.001876,-0.001707,0.001301,0.001208,-0.198133,-0.243525,-0.949441,0.1994528595224547
1760174621.008596,0.130205,-0.091348,0.070422,0.984755,0.003176,-0.002159,0.002895,-0.002125,0.001145,0.000532,-0.198249,-0.243574,-0.949404,0.19957124854947472
1760174621.008918,0.130237,-0.091403,0.070439,0.984745,0.001543,-0.001859,0.003914,-0.002544,0.00099,-0.000145,-0.198365,-0.243624,-0.949368,0.19968939552789186
1760174621.012936,0.130246,-0.091431,0.07048,0.984738,-0.000226,-0.001348,0.004032,-0.002278,0.000311,0.000204,-0.19843,-0.243629,-0.949353,0.19975573939284394
1760174621.041882,0.130217,-0.091455,0.070532,0.984736,-0.002404,0.001335,0.001797,-0.002038,0.001029,0.001244,-0.198488,-0.243558,-0.949359,0.1998149343507199
1760174621.073935,0.13018,-0.09145,0.070575,0.984738,-0.004138,-0.000434,0.002004,-0.001713,-0.000309,0.001218,-0.198483,-0.243477,-0.94938,0.19980999092977855
1760174621.075292,0.130105,-0.091461,0.070593,0.984746,-0.006305,0.001528,-0.000212,-0.001609,-0.000737,0.00121,-0.198501,-0.243328,-0.949415,0.19982824805289467
1760174621.106999,0.130037,-0.091454,0.070577,0.984756,-0.007307,0.000269,-0.002783,-0.002605,-3.2e-05,0.000529,-0.198476,-0.2432,-0.949453,0.19980274489179034
1760174621.135853,0.129941,-0.091439,0.070516,0.984775,-0.009972,0.001649,-0.003091,-0.003547,0.000401,0.000207,-0.19842,-0.243029,-0.949509,0.19974551028921633
1760174621.137502,0.129834,-0.091431,0.070478,0.984793,-0.010216,0.003882,-0.003186,-0.003323,0.001862,-0.000361,-0.198381,-0.242832,-0.949567,0.19970582490335614
1760174621.167428,0.129724,-0.091424,0.070446,0.98481,-0.010736,0.003732,-0.00228,-0.004025,0.002578,0.00029,-0.198348,-0.242627,-0.949626,0.19967221237894614
1760174621.174754,0.129631,-0.091406,0.070428,0.984825,-0.008827,0.00199,-0.000631,-0.002764,0.00281,0.00024,-0.198297,-0.242452,-0.949682,0.19962005301707048
1760174621.204181,0.129525,-0.091396,0.070403,0.984842,-0.007628,0.003252,-0.000113,-0.003223,0.002665,0.000587,-0.19826,-0.242254,-0.94974,0.19958235187526968
1760174621.233299,0.129432,-0.091376,0.070387,0.984857,-0.006149,0.002271,-0.00068,-0.001314,0.002939,0.00196,-0.198206,-0.242081,-0.949795,0.19952733181982366
1760174621.235096,0.129355,-0.09139,0.070372,0.984867,-0.005188,-0.001222,-0.001587,-0.002857,0.002227,0.000645,-0.19822,-0.241933,-0.94983,0.19954157449543872
1760174621.264543,0.129332,-0.091385,0.070331,0.984873,-0.001012,-0.000564,-0.004267,-0.00192,0.001537,-0.00049,-0.198197,-0.241898,-0.949844,0.1995180539567536
1760174621.312052,0.129308,-0.091405,0.070331,0.984875,-0.000597,-0.000332,-0.002517,-0.001039,0.001472,0.000271,-0.198234,-0.241846,-0.949849,0.19955590288688388
1760174621.3124,0.129283,-0.091426,0.070332,0.984876,-0.000182,-0.000101,-0.000766,-0.000158,0.001407,0.001032,-0.198271,-0.241795,-0.949855,0.19959351026001035
1760174621.312622,0.129303,-0.091455,0.070342,0.98487,0.004885,-0.002693,-0.000316,-0.002106,0.001112,0.000938,-0.198334,-0.241828,-0.949833,0.19965787245417183
1760174621.340704,0.129373,-0.091451,0.070341,0.984861,0.007562,0.002244,-0.004197,-0.003043,0.001141,-0.001104,-0.198334,-0.241964,-0.949798,0.19965794240521917
1760174621.371276,0.129439,-0.091333,0.070329,0.984864,0.002047,0.017044,-0.002113,-0.001636,0.002626,-0.00447,-0.198107,-0.242113,-0.949808,0.19942623252618244
1760174621.373441,0.129419,-0.091098,0.070346,0.984887,-0.002846,0.02462,-0.002137,-0.002265,0.00138,-0.00262,-0.197652,-0.24211,-0.949903,0.1989621600011829
1760174621.407616,0.129368,-0.09088,0.070358,0.984914,-0.006793,0.017503,-0.005986,-0.002655,0.002601,0.002243,-0.197221,-0.242044,-0.95001,0.1985223902362634
1760174621.412391,0.129264,-0.090764,0.070306,0.984942,-0.00853,0.009421,-0.006923,-0.001338,0.002488,0.002955,-0.19697,-0.241873,-0.950106,0.19826629597366016
1760174621.440644,0.129171,-0.090723,0.070219,0.984964,-0.003834,0.001175,-0.006109,-0.000799,0.002407,0.002206,-0.196857,-0.241716,-0.950169,0.1981511105552613
1760174621.473958,0.129142,-0.090721,0.07013,0.984974,0.000298,-0.001154,-0.004466,-0.000559,0.002869,0.002466,-0.196829,-0.241678,-0.950184,0.19812264083419023
1760174621.474382,0.129179,-0.090731,0.070125,0.984969,0.004508,-0.002847,0.002464,-0.001015,0.005242,0.001361,-0.196852,-0.24175,-0.950161,0.19814608438770082
1760174621.502142,0.129221,-0.090747,0.070198,0.984956,0.008303,0.001986,0.008589,-0.001391,0.004473,-0.000414,-0.196906,-0.241813,-0.950134,0.1982011202749347
1760174621.52076,0.129313,-0.090745,0.070303,0.984937,0.010548,0.001985,0.00963,-0.001702,0.001731,-0.000341,-0.196938,-0.241971,-0.950087,0.1982337864421995
1760174621.550973,0.129403,-0.090751,0.070406,0.984917,0.010658,0.003206,0.006804,-0.001954,-4.5e-05,-0.001291,-0.196985,-0.242123,-0.950038,0.19828182692460167
1760174621.551235,0.12946,-0.090756,0.070472,0.984905,0.003966,-0.004565,0.003366,-0.002692,0.000173,0.003777,-0.197018,-0.24222,-0.950007,0.1983153778510333
1760174621.611732,0.129501,-0.090809,0.070465,0.984895,0.002358,-0.000854,0.00013,-0.002848,0.000224,0.002291,-0.197125,-0.242292,-0.949966,0.19842460271661205
1760174621.612035,0.129542,-0.090862,0.070457,0.984885,0.000751,0.002857,-0.003106,-0.003004,0.000275,0.000806,-0.197232,-0.242364,-0.949926,0.19853363527847442
1760174621.614209,0.129543,-0.090829,0.070419,0.984891,0.000292,0.003917,-0.00403,-0.00328,-0.000156,0.00087,-0.197158,-0.242379,-0.949937,0.198458255222819
1760174621.643297,0.129547,-0.090779,0.070357,0.984899,-0.001615,0.003765,-0.003539,-0.003359,-0.000278,0.000888,-0.197045,-0.242408,-0.949953,0.19834300293710042
1760174621.673878,0.12952,-0.09073,0.070291,0.984912,-0.006263,0.004048,-0.005053,-0.004149,0.001515,0.000181,-0.196931,-0.242378,-0.949985,0.19822658981392752
1760174621.67516,0.129466,-0.090706,0.07025,0.984924,-0.007021,0.002891,-0.00231,-0.002163,0.001807,-0.000172,-0.196868,-0.242284,-0.950022,0.1981623386511299
1760174621.704602,0.129388,-0.090682,0.07023,0.984938,-0.007069,0.003562,-0.000556,-0.001524,0.002386,0.000221,-0.196806,-0.242142,-0.950071,0.19809911071099065
1760174621.742857,0.129338,-0.09068,0.070267,0.984942,-0.003988,0.00386,0.002543,-0.001893,0.002637,0.000792,-0.196805,-0.242038,-0.950098,0.19809803493716163
1760174621.743183,0.129288,-0.090677,0.070304,0.984947,-0.000907,0.004157,0.005643,-0.002262,0.002888,0.001363,-0.196803,-0.241934,-0.950124,0.19809616712135264
1760174621.771841,0.129277,-0.090655,0.070341,0.984947,-0.000249,0.00114,0.001547,-0.001588,0.001112,0.00224,-0.196769,-0.241909,-0.950138,0.19806137602149046
1760174621.773858,0.129305,-0.090664,0.070322,0.984944,0.000845,1.4e-05,-0.005527,-0.002594,-3.3e-05,-0.000721,-0.196784,-0.241964,-0.950121,0.198076653876729
1760174621.803114,0.129328,-0.090663,0.070264,0.984945,0.00084,-0.000194,-0.005473,-0.002384,0.001613,-0.000535,-0.196771,-0.242022,-0.950109,0.19806337936312335
1760174621.834235,0.129337,-0.090642,0.070169,0.984953,0.001782,0.001562,-0.007447,-0.002912,0.002786,-9.9e-05,-0.196708,-0.242061,-0.950112,0.19799914454711443
1760174621.835469,0.12934,-0.090627,0.070105,0.984958,0.000951,0.001328,-0.002997,-0.00155,0.003665,0.001244,-0.196662,-0.242083,-0.950116,0.19795221237359292
1760174621.866474,0.129344,-0.090601,0.070114,0.98496,0.003101,0.00047,0.000656,-0.002091,0.00367,0.001991,-0.196614,-0.242092,-0.950123,0.1979033787034388
1760174621.873534,0.129392,-0.090605,0.07014,0.984951,0.00351,-0.000772,0.000631,-0.002473,0.003216,0.002691,-0.196634,-0.24218,-0.950097,0.19792366909158815
1760174621.909052,0.129434,-0.090641,0.070196,0.984938,0.002668,-0.002929,0.002628,-0.001832,0.002313,0.001487,-0.196723,-0.242245,-0.950062,0.1980144429673399
1760174621.91131,0.129456,-0.0907,0.070249,0.984926,0.001968,-0.004416,0.004161,-0.00183,0.001058,0.000162,-0.196854,-0.242267,-0.950029,0.19814810431296995
1760174621.963488,0.129483,-0.090752,0.070285,0.984915,0.001537,-0.003912,0.002522,-0.002032,0.001555,-0.000105,-0.196967,-0.242304,-0.949996,0.19826338798765364
1760174621.963746,0.12951,-0.090803,0.07032,0.984904,0.001106,-0.003408,0.000884,-0.002235,0.002051,-0.000371,-0.19708,-0.24234,-0.949964,0.19837852905443482
1760174621.993165,0.129498,-0.090841,0.070357,0.9849,0.000286,-0.000882,0.000229,-0.001256,0.000757,-0.000211,-0.197162,-0.242303,-0.949956,0.19846225090403793
1760174621.99414,0.12948,-0.090844,0.070381,0.9849,-0.001765,-0.000696,0.000839,-0.001668,0.001722,0.001741,-0.19717,-0.242261,-0.949965,0.19847042091641856
1760174622.025618,0.129438,-0.090873,0.070362,0.984905,-0.003654,-0.000194,0.000765,-0.003545,0.000938,0.001503,-0.197218,-0.24218,-0.949976,0.19851932293039531
1760174622.031764,0.129378,-0.09088,0.070374,0.984911,-0.005502,0.00039,0.000514,-0.003103,0.000972,0.001051,-0.197228,-0.24206,-0.950004,0.19852962033548585
1760174622.08655,0.129306,-0.09093,0.070394,0.984914,-0.005053,-0.00288,0.000156,-0.002948,-0.000613,0.002575,-0.197322,-0.24191,-0.950023,0.19862544500862467
1760174622.086956,0.129235,-0.09098,0.070414,0.984918,-0.004603,-0.006151,-0.000201,-0.002792,-0.002199,0.0041,-0.197416,-0.241759,-0.950042,0.19872131377542207
1760174622.115683,0.129178,-0.091043,0.070366,0.984923,-0.002721,-0.004283,-0.0054,-0.003337,-0.005131,0.002947,-0.19752,-0.241647,-0.950049,0.19882737929765346
1760174622.117655,0.129114,-0.091048,0.070331,0.984933,-0.006659,-0.000163,-0.001255,-0.004676,-0.004372,0.00345,-0.197514,-0.241531,-0.95008,0.19882120984620258
1760174622.14716,0.12903,-0.091063,0.070326,0.984943,-0.010903,-0.006822,0.003873,-0.007803,-0.007642,0.008585,-0.197533,-0.241366,-0.950118,0.1988405881266263
1760174622.159409,0.128784,-0.091124,0.070325,0.98497,-0.03487,0.010162,0.000694,-0.007236,-0.016573,-8.5e-05,-0.197622,-0.24088,-0.950222,0.19893153578263764
1760174622.211119,0.128256,-0.090999,0.07023,0.985057,-0.054963,0.013116,-0.005966,-0.007939,-0.023851,0.00732,-0.197293,-0.239896,-0.950539,0.19859597529298587
1760174622.211438,0.127727,-0.090874,0.070135,0.985144,-0.075056,0.01607,-0.012626,-0.008641,-0.03113,0.014724,-0.196964,-0.238913,-0.950855,0.19826034387806635
1760174622.211725,0.126835,-0.090716,0.069935,0.985288,-0.113133,0.027857,-0.011402,-0.006544,-0.033098,0.012106,-0.196502,-0.237249,-0.951367,0.1977891527133813
1760174622.241473,0.125488,-0.090487,0.069858,0.985487,-0.163465,0.041081,0.008652,-0.00411,-0.034218,0.012865,-0.19588,-0.234691,-0.95213,0.1971547164798934
1760174622.271529,0.123679,-0.090199,0.069988,0.985733,-0.207477,0.052654,0.040121,-0.002288,-0.037679,0.018194,-0.195135,-0.231204,-0.953135,0.19639516535517773
1760174622.272602,0.121488,-0.08988,0.070447,0.986002,-0.232372,0.061288,0.078232,-0.002167,-0.045626,0.021375,-0.194361,-0.226912,-0.954324,0.19560602996678084
1760174622.306533,0.119086,-0.089552,0.071254,0.986267,-0.246871,0.06951,0.112391,-0.005467,-0.056425,0.024204,-0.193616,-0.222139,-0.955598,0.19484651698780933
1760174622.311176,0.116487,-0.089141,0.072309,0.986538,-0.273063,0.080149,0.130446,-0.004704,-0.067297,0.027667,-0.192727,-0.216945,-0.95697,0.19394045317370626
1760174622.339337,0.113499,-0.088662,0.073503,0.98684,-0.322112,0.092475,0.142632,-0.004449,-0.073224,0.030808,-0.191677,-0.210977,-0.958514,0.19287050020626148
1760174622.372473,0.109999,-0.088197,0.07469,0.987189,-0.384398,0.086563,0.134862,-0.006023,-0.083588,0.037659,-0.190567,-0.204006,-0.960243,0.19173961652864208
1760174622.374544,0.105926,-0.087873,0.075711,0.987586,-0.444272,0.075686,0.126558,-0.006163,-0.090544,0.038427,-0.189603,-0.195916,-0.962116,0.19075783756791434
1760174622.40934,0.101359,-0.087637,0.076552,0.988021,-0.49035,0.068244,0.115611,-0.005928,-0.095038,0.036089,-0.188694,-0.186872,-0.964092,0.1898320903161425
1760174622.412323,0.096387,-0.087467,0.077317,0.988474,-0.53441,0.069849,0.117546,-0.007074,-0.09002,0.030741,-0.187823,-0.177026,-0.966118,0.18894525964442857
1760174622.440798,0.090997,-0.087315,0.078049,0.988941,-0.579575,0.075168,0.125354,-0.007635,-0.080876,0.028002,-0.186902,-0.166351,-0.968192,0.18800755179134884
1760174622.47132,0.08514,-0.0871,0.078931,0.989411,-0.629525,0.087355,0.144372,-0.006861,-0.074027,0.026744,-0.185796,-0.154727,-0.97033,0.18688181990414623
1760174622.47354,0.078833,-0.086837,0.079905,0.989879,-0.671233,0.094591,0.155684,-0.004227,-0.068787,0.028838,-0.184514,-0.142193,-0.972489,0.1855774314494035
1760174622.53679,0.071774,-0.086617,0.080933,0.990351,-0.715326,0.092494,0.159252,-0.002842,-0.059838,0.02865,-0.183181,-0.128143,-0.974692,0.18422119603786663
1760174622.537139,0.064711,-0.086393,0.081958,0.990773,-0.75942,0.090396,0.162821,-0.001504,-0.050913,0.028265,-0.1818,-0.114067,-0.976697,0.18281668858865274
1760174622.537567,0.057123,-0.086279,0.082964,0.991166,-0.786147,0.078527,0.164834,-0.002544,-0.043954,0.026634,-0.180513,-0.098921,-0.978586,0.1815079147752349
1760174622.570358,0.049283,-0.086266,0.083938,0.991506,-0.797865,0.076789,0.16322,-0.003014,-0.036069,0.020983,-0.17934,-0.083247,-0.980259,0.18031547813793114
1760174622.572568,0.041393,-0.086213,0.084885,0.991791,-0.795295,0.080447,0.160151,-0.002251,-0.028356,0.016848,-0.178039,-0.06747,-0.981708,0.1789931899512422
1760174622.605534,0.033464,-0.086137,0.085819,0.992016,-0.789471,0.086349,0.157848,-0.001357,-0.02294,0.014237,-0.176642,-0.05161,-0.982921,0.1775737806371794
1760174622.612061,0.02563,-0.086015,0.086707,0.992183,-0.778581,0.084393,0.152376,-0.001651,-0.017607,0.015053,-0.17513,-0.035943,-0.983889,0.1760378089966931
1760174622.64229,0.017887,-0.085888,0.087558,0.992289,-0.766877,0.076241,0.148625,-0.003824,-0.012898,0.015275,-0.173583,-0.020458,-0.984607,0.1744666955542574
1760174622.672458,0.010228,-0.08583,0.088399,0.992328,-0.757602,0.074565,0.146667,-0.003649,-0.009809,0.010878,-0.172152,-0.005125,-0.985057,0.17301388079740362
1760174622.672795,0.00265,-0.085713,0.089197,0.992316,-0.745909,0.081368,0.141848,-0.002251,-0.010198,0.009668,-0.170582,0.010031,-0.985292,0.17142036822318502
1760174622.700841,-0.004797,-0.085568,0.089954,0.992252,-0.729283,0.083827,0.137417,-0.002386,-0.010719,0.011043,-0.168947,0.024914,-0.98531,0.16976124853405866
1760174622.731574,-0.012137,-0.085377,0.09066,0.992141,-0.723482,0.088183,0.129994,-0.002687,-0.012474,0.009691,-0.167212,0.039563,-0.985127,0.16800114945109784
1760174622.747093,-0.019407,-0.085101,0.091258,0.991995,-0.720514,0.0943,0.118441,-0.003843,-0.014789,0.00711,-0.165298,0.054035,-0.984762,0.16606020995167775
1760174622.753303,-0.026679,-0.084799,0.091739,0.991807,-0.718122,0.100775,0.106048,-0.004032,-0.01352,0.00483,-0.163314,0.068479,-0.984195,0.16404877216456876
1760174622.819993,-0.033906,-0.084473,0.092138,0.991577,-0.720943,0.097982,0.104996,-0.003684,-0.009614,0.004557,-0.161274,0.082807,-0.98343,0.16198134460815045
1760174622.820331,-0.041131,-0.084141,0.092532,0.991295,-0.723764,0.095189,0.103944,-0.003365,-0.005691,0.004076,-0.159206,0.097118,-0.982457,0.1598863255107465
1760174622.820596,-0.048411,-0.083828,0.092932,0.990956,-0.72404,0.093367,0.109478,-0.005068,-0.002573,0.004157,-0.157141,0.111527,-0.981259,0.15779495236931532
1760174622.856378,-0.055609,-0.083559,0.093343,0.990562,-0.710868,0.083907,0.104008,-0.005984,-0.002941,0.000744,-0.155159,0.125767,-0.979851,0.1557884290870282
1760174622.857553,-0.062664,-0.083392,0.093791,0.990112,-0.695282,0.073012,0.107669,-0.006841,0.000159,0.000386,-0.15338,0.139732,-0.978238,0.15398784226039441
1760174622.886975,-0.06955,-0.083228,0.094239,0.989624,-0.68155,0.069695,0.112349,-0.006297,0.002876,0.000318,-0.15162,0.153343,-0.976472,0.1522069951898627
1760174622.887787,-0.076332,-0.083143,0.09477,0.98908,-0.667518,0.059336,0.116614,-0.006164,0.005741,0.004737,-0.150001,0.166755,-0.974522,0.15056923426649946
1760174622.918206,-0.082974,-0.083095,0.095383,0.98849,-0.660197,0.059372,0.123729,-0.006324,0.005158,0.004456,-0.148449,0.17989,-0.972421,0.14899970101747875
1760174622.948245,-0.089548,-0.083063,0.096026,0.987857,-0.652086,0.054752,0.126322,-0.006602,0.005722,0.007184,-0.14691,0.192873,-0.970164,0.1474435938344896
1760174622.9492,-0.096065,-0.083039,0.09669,0.987181,-0.644235,0.054155,0.130051,-0.007122,0.007766,0.009234,-0.145372,0.205726,-0.967752,0.14588894607918687
1760174622.980798,-0.102506,-0.083001,0.097385,0.986468,-0.640494,0.059243,0.12739,-0.007217,0.008139,0.009608,-0.14379,0.218403,-0.965207,0.14429015839786252
1760174623.011585,-0.108878,-0.082891,0.098073,0.985726,-0.633407,0.062798,0.13465,-0.007111,0.011147,0.014715,-0.142059,0.230907,-0.962549,0.14254124627881645
1760174623.01397,-0.115231,-0.082743,0.098838,0.98494,-0.630225,0.06758,0.142944,-0.007971,0.013777,0.014817,-0.140216,0.243347,-0.959751,0.140679547316607
1760174623.040018,-0.121509,-0.082546,0.099674,0.984117,-0.623726,0.068856,0.140696,-0.007903,0.012969,0.016085,-0.138248,0.255613,-0.956843,0.1386922757532287
1760174623.106163,-0.127854,-0.082253,0.10038,0.983266,-0.630667,0.075948,0.136447,-0.007454,0.014544,0.01719,-0.136085,0.267942,-0.953776,0.13650852054575643
1760174623.106494,-0.134194,-0.081957,0.101083,0.982373,-0.637609,0.083041,0.132197,-0.007033,0.016164,0.018136,-0.133895,0.280225,-0.95055,0.13429839028893217
1760174623.106778,-0.140528,-0.081656,0.10178,0.98144,-0.64455,0.090133,0.127947,-0.00664,0.017831,0.018926,-0.131676,0.292461,-0.947168,0.13205956355836795
1760174623.109821,-0.147064,-0.081216,0.102311,0.980463,-0.657624,0.106221,0.114186,-0.004989,0.015776,0.015352,-0.129166,0.304999,-0.943553,0.12952785490513247
1760174623.142723,-0.153726,-0.0807,0.102572,0.979456,-0.669399,0.119442,0.086557,-0.001791,0.016274,0.014571,-0.126548,0.317691,-0.939712,0.1268881835687066
1760174623.149533,-0.160475,-0.080062,0.102547,0.978428,-0.674397,0.127554,0.060154,-0.000196,0.022081,0.014318,-0.123758,0.330446,-0.935676,0.12407610007765632
1760174623.188738,-0.167237,-0.079429,0.102372,0.977365,-0.676115,0.127971,0.059206,-3e-06,0.032805,0.01846,-0.121022,0.343167,-0.931445,0.12131940361019118
1760174623.190765,-0.173914,-0.078804,0.102153,0.976273,-0.661449,0.126726,0.050854,0.000998,0.039731,0.018441,-0.118336,0.355676,-0.927088,0.11861388086918863
1760174623.244009,-0.180382,-0.078135,0.101924,0.975176,-0.645927,0.123193,0.055033,0.001614,0.044795,0.015826,-0.115619,0.367736,-0.922715,0.11587812785199517
1760174623.244312,-0.186842,-0.077462,0.101691,0.974037,-0.630404,0.11966,0.059212,0.002229,0.049919,0.013048,-0.112902,0.379736,-0.91818,0.11314319840851113
1760174623.246339,-0.19302,-0.076769,0.101597,0.972897,-0.602905,0.120562,0.070729,0.00033,0.053857,0.009783,-0.110155,0.391176,-0.9137,0.11037897124806514
1760174623.275808,-0.198936,-0.07611,0.101658,0.97175,-0.570181,0.114904,0.080733,0.000534,0.053689,0.009979,-0.107472,0.402106,-0.909264,0.10767994414529826
1760174623.307844,-0.204447,-0.075397,0.101816,0.970644,-0.526024,0.117022,0.086947,-0.000356,0.054592,0.006855,-0.104736,0.412243,-0.905034,0.10492841298981957
1760174623.309706,-0.209594,-0.074622,0.102037,0.969583,-0.492875,0.114725,0.083762,-0.001022,0.049962,0.005344,-0.101932,0.421666,-0.901004,0.10210931644890202
1760174623.338226,-0.214468,-0.073786,0.102188,0.968564,-0.472805,0.125471,0.079087,0.004033,0.04879,-2.4e-05,-0.099101,0.430533,-0.897118,0.099263914229477
1760174623.368936,-0.219221,-0.072917,0.102322,0.967551,-0.456003,0.124963,0.066292,0.004319,0.043798,0.002925,-0.09624,0.439136,-0.893251,0.09638919153582853
1760174623.370104,-0.223726,-0.07211,0.102322,0.96658,-0.433652,0.110797,0.056204,0.002913,0.042293,0.010352,-0.093616,0.447255,-0.889494,0.09375325654799033
1760174623.41931,-0.227871,-0.071517,0.102153,0.965673,-0.414564,0.101913,0.034548,0.004768,0.036792,0.011538,-0.091568,0.454708,-0.885921,0.09169644314210838
1760174623.419597,-0.232011,-0.070922,0.101982,0.964749,-0.395475,0.093029,0.012892,0.006626,0.031324,0.012658,-0.089523,0.46213,-0.882282,0.08964301025851353
1760174623.449297,-0.235965,-0.070428,0.101542,0.963872,-0.390779,0.092373,-0.000731,0.005804,0.034042,0.015486,-0.087848,0.469183,-0.878721,0.08796136089567447
1760174623.45034,-0.239876,-0.069942,0.101078,0.96299,-0.394458,0.089946,0.007682,0.003008,0.0372,0.015933,-0.086215,0.476137,-0.875135,0.08632213333554081
1760174623.481606,-0.24377,-0.06948,0.100721,0.962083,-0.388143,0.087326,0.017258,0.001093,0.036883,0.018216,-0.084585,0.48305,-0.871498,0.08468615917791585
1760174623.488122,-0.247598,-0.068999,0.100435,0.96117,-0.383919,0.087106,0.02028,-0.001394,0.035068,0.01221,-0.082905,0.489827,-0.867869,0.08300025219748791
1760174623.521503,-0.251412,-0.068433,0.100164,0.960248,-0.382142,0.103107,0.023715,0.00309,0.030065,0.005702,-0.08106,0.496545,-0.864218,0.08114901722631322
1760174623.528423,-0.255235,-0.067695,0.099886,0.95932,-0.380751,0.109895,0.026547,0.002705,0.026556,0.010316,-0.078893,0.503227,-0.860545,0.07897510082127032
1760174623.558492,-0.259021,-0.066949,0.099573,0.95839,-0.374758,0.113927,0.020327,0.001146,0.02279,0.01329,-0.076743,0.509818,-0.856852,0.07681855943508065
1760174623.587262,-0.262745,-0.066253,0.099218,0.957461,-0.372354,0.106263,0.015299,-0.000685,0.022211,0.017706,-0.074731,0.516283,-0.853151,0.07480075325355555
1760174623.587318,-0.266426,-0.065602,0.09879,0.956532,-0.366541,0.10092,0.005922,0.000205,0.019851,0.017934,-0.07286,0.522651,-0.849428,0.07292459734724355
1760174623.634979,-0.270016,-0.064978,0.098328,0.955615,-0.361369,0.098768,0.007976,0.001902,0.022863,0.020499,-0.071087,0.528841,-0.845739,0.07114698581742336
1760174623.635289,-0.273555,-0.064358,0.097907,0.954694,-0.356878,0.093374,0.007843,0.003015,0.023567,0.021549,-0.06932,0.534924,-0.842052,0.06937561916277035
1760174623.663045,-0.27706,-0.063845,0.097532,0.953755,-0.34645,0.084273,0.019643,0.001159,0.032663,0.024006,-0.067741,0.540948,-0.838323,0.06779294887082717
1760174623.665066,-0.280451,-0.063354,0.097328,0.952817,-0.343999,0.073771,0.027878,-0.001824,0.035304,0.021937,-0.066138,0.546769,-0.834667,0.06618632642717513
1760174623.710221,-0.28389,-0.062911,0.097259,0.951835,-0.347996,0.071358,0.040732,-0.000408,0.041522,0.02292,-0.06454,0.55267,-0.830898,0.06458485693137803
1760174623.711599,-0.28726,-0.06241,0.097269,0.950855,-0.342015,0.072857,0.051773,-0.000801,0.041725,0.019835,-0.062802,0.558426,-0.827174,0.06284334004341278
1760174623.744991,-0.290605,-0.061904,0.097351,0.949863,-0.327303,0.069625,0.051501,-0.003166,0.040561,0.01984,-0.06102,0.564122,-0.823434,0.061057911915713026
1760174623.74712,-0.29382,-0.061502,0.097455,0.948889,-0.317806,0.07317,0.05628,-0.003327,0.043041,0.013432,-0.059448,0.569592,-0.819775,0.0594830664990467
1760174623.775533,-0.296909,-0.06095,0.097556,0.947952,-0.306405,0.068737,0.052298,-0.003909,0.043475,0.016473,-0.057626,0.574803,-0.81626,0.05765795201333865
1760174623.806527,-0.299941,-0.060379,0.0977,0.947019,-0.301602,0.07759,0.059593,-0.003296,0.043957,0.013693,-0.055752,0.579898,-0.812779,0.05578093163129074
1760174623.808484,-0.302903,-0.059837,0.09789,0.94609,-0.288294,0.071519,0.060078,-0.002319,0.039735,0.016314,-0.053919,0.584863,-0.809338,0.05394516070767883
1760174623.839296,-0.305732,-0.059237,0.098056,0.945201,-0.277354,0.071683,0.060304,-0.001553,0.039779,0.013466,-0.052023,0.589572,-0.806038,0.05204652583535776
1760174623.868219,-0.30853,-0.058654,0.098251,0.944307,-0.27562,0.072769,0.0693,-0.001014,0.040945,0.018313,-0.050147,0.59422,-0.802738,0.05016803073265639
1760174623.870068,-0.311279,-0.058054,0.098576,0.943408,-0.273198,0.066783,0.078421,-0.000198,0.037472,0.018405,-0.048168,0.598772,-0.79947,0.048186637366905274
1760174623.899445,-0.313962,-0.057522,0.09897,0.942509,-0.256982,0.059597,0.073046,0.0015,0.029301,0.015855,-0.046285,0.603211,-0.796238,0.04630152431189861
1760174623.905294,-0.316425,-0.057061,0.099276,0.941681,-0.241478,0.048947,0.059856,0.003534,0.023973,0.012309,-0.044639,0.607272,-0.793239,0.044653837474196795
1760174623.934486,-0.318755,-0.056687,0.099559,0.940888,-0.223198,0.041057,0.057864,0.002247,0.026691,0.015494,-0.043202,0.611113,-0.790363,0.04321546775105953
1760174623.965634,-0.320964,-0.056417,0.099874,0.940119,-0.21761,0.029652,0.057584,0.000613,0.030108,0.014066,-0.041966,0.614759,-0.787598,0.04197831976851442
1760174623.966498,-0.323067,-0.056174,0.100213,0.939377,-0.204144,0.027106,0.057059,0.001208,0.028119,0.010945,-0.040786,0.618222,-0.784945,0.040797304291864116
1760174624.010631,-0.32502,-0.056005,0.100517,0.938681,-0.188685,0.026153,0.050198,0.002206,0.028324,0.011485,-0.039802,0.621438,-0.782451,0.039812537372345656
1760174624.013018,-0.326825,-0.055768,0.100788,0.938039,-0.171376,0.024754,0.043146,0.003873,0.027131,0.011179,-0.038745,0.624391,-0.78015,0.03875471360615613
1760174624.038638,-0.32846,-0.055471,0.100971,0.937466,-0.161888,0.035466,0.038161,0.005798,0.030517,0.007353,-0.037674,0.627042,-0.778074,0.03768291485324915
1760174624.077975,-0.329999,-0.05513,0.101122,0.936929,-0.151606,0.03746,0.036048,0.005811,0.030301,0.006891,-0.036565,0.629522,-0.776122,0.03657314719315795
1760174624.078262,-0.331538,-0.054789,0.101273,0.936389,-0.141324,0.039454,0.033934,0.005824,0.030092,0.00642,-0.035456,0.631994,-0.774161,0.035463454318065565
1760174624.106824,-0.332878,-0.054522,0.101396,0.935916,-0.129608,0.026326,0.034845,0.004178,0.034044,0.006596,-0.03455,0.634147,-0.77244,0.0345568830719058
1760174624.108782,-0.334103,-0.05427,0.101539,0.935478,-0.112506,0.024171,0.028269,0.005745,0.031673,0.008968,-0.033688,0.636113,-0.77086,0.03369437911795937
1760174624.13819,-0.335181,-0.054145,0.101712,0.935081,-0.093449,0.018027,0.025671,0.006341,0.032054,0.00718,-0.033076,0.637858,-0.769444,0.033082018740431735
1760174624.168722,-0.336009,-0.05398,0.101841,0.934779,-0.0684,0.005554,0.023193,0.003943,0.032195,0.010007,-0.032479,0.639184,-0.768368,0.03248470559472917
1760174624.170197,-0.336628,-0.053914,0.102042,0.934539,-0.050526,-0.003398,0.026007,0.00181,0.029418,0.010655,-0.03207,0.640186,-0.76755,0.03207550618285783
1760174624.189221,-0.337092,-0.053979,0.102277,0.934342,-0.036016,-0.007003,0.021745,0.000833,0.024033,0.005497,-0.031916,0.64096,-0.76691,0.031921432087591926
1760174624.226067,-0.337434,-0.053982,0.102414,0.934203,-0.022921,-0.005745,0.010029,0.001625,0.017242,0.00503,-0.031744,0.641521,-0.766449,0.03174931872619021
1760174624.226354,-0.337692,-0.054007,0.102503,0.934099,-0.017252,0.000983,0.004574,0.000518,0.013826,0.005656,-0.031666,0.641948,-0.766094,0.03167129469781858
1760174624.257602,-0.337889,-0.054003,0.102496,0.934029,-0.008386,-0.00158,-0.004926,-0.002047,0.011717,0.010757,-0.031616,0.642266,-0.765829,0.03162128141125427
1760174624.308796,-0.337922,-0.05402,0.102428,0.934023,-0.001788,0.001942,-0.005697,-0.002924,0.009809,0.006028,-0.031687,0.64232,-0.765782,0.03169228728512544
1760174624.309124,-0.337954,-0.054037,0.10236,0.934018,0.004809,0.005465,-0.006468,-0.003801,0.007902,0.001299,-0.031757,0.642373,-0.765734,0.03176233810824866
1760174624.310904,-0.337947,-0.053977,0.102288,0.934032,0.002612,0.020474,-0.010315,-0.002414,0.003849,-0.003187,-0.031697,0.642349,-0.765757,0.03170229863565021
1760174624.339599,-0.337974,-0.05379,0.102068,0.934057,0.00556,0.022804,-0.012783,-0.003953,0.004936,0.00245,-0.031493,0.642355,-0.76576,0.03149820607502139
1760174624.345837,-0.337961,-0.05369,0.101887,0.934087,0.003706,0.006561,-0.00963,-0.004757,0.003799,0.010721,-0.031434,0.642311,-0.765799,0.031439184829195194
1760174624.374252,-0.337908,-0.053701,0.101804,0.934115,0.004582,0.002942,-0.009238,-0.002239,0.000795,0.008096,-0.031525,0.642223,-0.765869,0.03153023143452105
1760174624.411867,-0.337884,-0.05375,0.10171,0.934131,0.002899,-0.002269,-0.009234,-0.002283,4.3e-05,0.00736,-0.031687,0.642189,-0.765891,0.03169230818243938
1760174624.414766,-0.337833,-0.053793,0.101594,0.93416,0.001924,0.000768,-0.009536,-0.002284,2.5e-05,0.007343,-0.031859,0.64211,-0.765951,0.03186437307777254
1760174624.443097,-0.337835,-0.053832,0.101466,0.93417,0.000519,0.001298,-0.012523,-0.004753,0.002276,0.008224,-0.032019,0.642115,-0.765939,0.03202448254170207
1760174624.445131,-0.337867,-0.053878,0.10136,0.934168,-0.004154,0.001421,-0.009169,-0.004857,0.003773,0.005406,-0.03217,0.64217,-0.765887,0.03217554957849177
1760174624.474419,-0.33793,-0.053947,0.101328,0.934144,-0.004302,-2e-06,0.000606,-0.006007,0.007052,0.006402,-0.032305,0.642283,-0.765786,0.032310633538994084
1760174624.5366,-0.337983,-0.053925,0.101342,0.934125,-0.002402,-0.000159,0.001415,-0.005536,0.005454,0.00656,-0.032242,0.642366,-0.765719,0.0322476015098631
1760174624.536932,-0.338036,-0.053903,0.101355,0.934106,-0.000501,-0.000316,0.002224,-0.005065,0.003857,0.006718,-0.032178,0.642449,-0.765653,0.03218354497905488
1760174624.537242,-0.338089,-0.05388,0.101368,0.934086,0.0014,-0.000474,0.003034,-0.004593,0.002259,0.006876,-0.032115,0.642532,-0.765586,0.032120512262652244
1760174624.565756,-0.338124,-0.053932,0.101407,0.934067,-0.004934,-0.001261,0.002103,-0.004858,0.003794,0.005364,-0.032176,0.642598,-0.765527,0.03218156946244186
1760174624.609229,-0.338224,-0.053851,0.101404,0.934035,-0.008998,0.010282,-0.000496,-0.00202,0.002125,0.003781,-0.032003,0.642749,-0.765408,0.03200846738239976
1760174624.611733,-0.338361,-0.053838,0.101304,0.933997,-0.011936,0.006885,-0.00218,-0.002756,0.004192,0.006019,-0.032015,0.642964,-0.765227,0.03202047110773516
1760174624.640929,-0.338513,-0.053841,0.10122,0.933951,-0.01524,0.005802,-0.003334,-0.003279,0.00747,0.006299,-0.032041,0.643208,-0.765021,0.032046480280103685
1760174624.641798,-0.338696,-0.053811,0.101146,0.933895,-0.015739,0.00634,-0.00238,-0.003885,0.009951,0.007046,-0.031992,0.643498,-0.764779,0.03199745842643631
1760174624.67262,-0.338867,-0.053768,0.101085,0.933842,-0.010504,0.00771,-0.001118,-0.004578,0.009486,0.006387,-0.031913,0.643766,-0.764557,0.03191841127519826
1760174624.684476,-0.338959,-0.053696,0.10102,0.933819,-0.004868,0.009585,-0.003611,-0.004405,0.009448,0.006481,-0.031801,0.643902,-0.764447,0.0318063576660767
1760174624.714316,-0.33904,-0.053607,0.100949,0.933803,-0.00482,0.012901,-0.002565,-0.003742,0.009971,0.007296,-0.031665,0.644016,-0.764357,0.03167027967303548
1760174624.748034,-0.339125,-0.053483,0.100849,0.93379,-0.005507,0.014777,-0.003578,-0.002495,0.009922,0.007855,-0.031482,0.644129,-0.764268,0.03148722064933504
1760174624.748343,-0.339228,-0.053357,0.100728,0.933773,-0.008076,0.01719,-0.006612,-0.001874,0.009898,0.008133,-0.031308,0.644272,-0.764155,0.03131312527422914
1760174624.77753,-0.339339,-0.053224,0.100568,0.933757,-0.00893,0.018251,-0.01087,-0.00146,0.009851,0.007583,-0.031142,0.644425,-0.764033,0.031147038559026754
1760174624.784937,-0.339486,-0.05312,0.100374,0.93373,-0.01099,0.019326,-0.014675,-0.001476,0.009166,0.007309,-0.031049,0.644641,-0.763855,0.03105398283245504
1760174624.818627,-0.339622,-0.053026,0.100141,0.933711,-0.008942,0.012944,-0.01716,-0.002678,0.008856,0.00805,-0.031001,0.644838,-0.76369,0.03100597517238258
1760174624.822627,-0.339734,-0.053012,0.099875,0.9337,-0.007196,0.008813,-0.024604,-0.00254,0.008828,0.007461,-0.031132,0.645008,-0.763542,0.031137016928556072
1760174624.86268,-0.339791,-0.053036,0.099588,0.933708,-0.004187,0.006049,-0.023661,-0.002492,0.010298,0.007092,-0.031363,0.645095,-0.763459,0.03136813071369455
1760174624.863851,-0.339836,-0.053077,0.099346,0.933716,-0.004597,0.004572,-0.018509,-0.001898,0.010833,0.006297,-0.031595,0.645166,-0.763389,0.0316002561533711
1760174624.906886,-0.339868,-0.053075,0.099155,0.933724,4.1e-05,0.006668,-0.013945,-0.002272,0.009099,0.005902,-0.031715,0.645212,-0.763345,0.03172031982788003
1760174624.907819,-0.339851,-0.053035,0.099004,0.933749,0.003041,0.007458,-0.010152,-0.001874,0.008792,0.006482,-0.031751,0.645172,-0.763378,0.03175632127016648
1760174624.938288,-0.339855,-0.053011,0.098912,0.933758,0.001682,0.008044,-0.00374,-0.001649,0.007887,0.008236,-0.031767,0.645172,-0.763377,0.03177233744937215
1760174624.942753,-0.339897,-0.052977,0.098864,0.93375,-0.001043,0.004561,-0.002149,-0.002256,0.005823,0.010138,-0.031728,0.645233,-0.763327,0.0317333193264712
1760174624.971857,-0.339956,-0.05293,0.098809,0.933737,-0.00717,0.00371,-0.002862,-0.002603,0.005198,0.012116,-0.031665,0.645319,-0.763256,0.03167030974466195
1760174625.002102,-0.340058,-0.052922,0.098764,0.933705,-0.011221,0.002901,-0.004069,-0.002861,0.005296,0.011261,-0.031656,0.645481,-0.76312,0.03166129014111435
1760174625.00417,-0.340224,-0.052948,0.098709,0.933649,-0.01578,0.004856,-0.003739,-0.003378,0.006224,0.008589,-0.031703,0.645753,-0.762888,0.03170831121205103
1760174625.034319,-0.340414,-0.052921,0.098623,0.933591,-0.018944,0.006124,-0.003737,-0.003759,0.008213,0.007905,-0.031668,0.646053,-0.762635,0.03167330366732066
1760174625.090391,-0.340667,-0.052866,0.098536,0.933511,-0.020431,0.007676,-0.002915,-0.003863,0.00959,0.006939,-0.031567,0.646451,-0.762303,0.03157222547831742
1760174625.091121,-0.34092,-0.052812,0.098448,0.933431,-0.021918,0.009228,-0.002092,-0.003967,0.010968,0.005972,-0.031466,0.646848,-0.76197,0.03147118336272359
1760174625.091531,-0.341151,-0.052746,0.098346,0.93336,-0.015932,0.012249,-0.005099,-0.003477,0.009584,0.004606,-0.03136,0.647209,-0.761667,0.03136514937067219
1760174625.121476,-0.341301,-0.052675,0.098238,0.933321,-0.009821,0.010394,-0.006623,-0.004123,0.009582,0.004135,-0.031268,0.647437,-0.761478,0.03127308007429793
1760174625.12337,-0.341413,-0.052616,0.098107,0.933297,-0.005405,0.012772,-0.00947,-0.002214,0.009592,0.003524,-0.031223,0.647604,-0.761337,0.031228077752443302
1760174625.151909,-0.341487,-0.052522,0.097964,0.933291,-0.0037,0.014064,-0.008028,-0.002263,0.008791,0.004205,-0.031129,0.647703,-0.761256,0.031134046913079715
1760174625.207213,-0.341503,-0.052434,0.097864,0.9333,0.001358,0.012971,-0.007755,-0.001933,0.006928,0.00551,-0.031031,0.647712,-0.761253,0.03103598397615694
1760174625.207539,-0.341518,-0.052346,0.097764,0.93331,0.006417,0.011877,-0.007483,-0.001603,0.005064,0.006816,-0.030933,0.64772,-0.76125,0.03093794118132095
1760174625.210038,-0.34149,-0.05225,0.097676,0.933335,0.007078,0.008911,-0.001692,-0.002157,0.005914,0.008701,-0.030823,0.647656,-0.761309,0.0308278866201566
1760174625.239944,-0.341452,-0.052124,0.097642,0.933359,0.00341,0.015624,0.00226,-0.001345,0.006345,0.006501,-0.030621,0.647574,-0.761387,0.03062578890486083
1760174625.24198,-0.341458,-0.05191,0.097597,0.933374,0.001941,0.022544,0.003292,-0.001648,0.006783,0.006781,-0.030252,0.647548,-0.761424,0.030256614689075916
1760174625.270594,-0.341489,-0.051685,0.097582,0.933376,-0.002432,0.019496,0.006459,-0.001834,0.008141,0.009405,-0.029837,0.647563,-0.761428,0.02984141860270755
1760174625.301144,-0.34157,-0.051525,0.097605,0.933353,-0.006534,0.01339,0.004251,-0.001933,0.008037,0.009238,-0.029504,0.647669,-0.76135,0.029508290381580267
1760174625.313033,-0.34169,-0.051404,0.097608,0.933316,-0.009691,0.009346,0.001604,-0.002658,0.008596,0.007927,-0.029249,0.647845,-0.761211,0.029253159835712403
1760174625.343681,-0.341821,-0.051352,0.097562,0.933275,-0.010305,0.008641,-0.002514,-0.002307,0.008632,0.005955,-0.029154,0.648046,-0.761043,0.029158131199063114
1760174625.345024,-0.341935,-0.051283,0.097463,0.933248,-0.008122,0.008245,-0.006296,-0.00202,0.009371,0.005729,-0.029067,0.648217,-0.760901,0.02907108733907677
1760174625.374506,-0.342002,-0.051242,0.097323,0.93324,-0.000468,0.010436,-0.010138,-0.002052,0.009398,0.005979,-0.029072,0.648314,-0.760818,0.029076093065109016
1760174625.411386,-0.342028,-0.051181,0.097191,0.933248,0.001716,0.009664,-0.006954,-0.00263,0.010746,0.005577,-0.029044,0.648342,-0.760795,0.029048085859658093
1760174625.413949,-0.342045,-0.051075,0.097084,0.933258,0.004033,0.01423,-0.003282,-0.002262,0.010792,0.003674,-0.028919,0.64835,-0.760793,0.028923032097597938
1760174625.443065,-0.342042,-0.05094,0.097025,0.933273,0.006618,0.015896,0.001661,-0.001405,0.010201,0.004013,-0.028708,0.648323,-0.760824,0.02871194444729339
1760174625.444147,-0.342034,-0.050813,0.096998,0.933286,0.00592,0.007342,0.003436,-0.002132,0.00799,0.007047,-0.028493,0.648288,-0.760862,0.028496854402334657
1760174625.464216,-0.341997,-0.050725,0.09703,0.933301,0.007764,0.004106,0.006048,-0.002405,0.004999,0.007482,-0.028315,0.648216,-0.76093,0.028318782261301412
1760174625.509967,-0.341923,-0.050696,0.097085,0.933324,0.008778,-0.001318,0.005277,-0.001374,0.002045,0.007573,-0.02824,0.648093,-0.761037,0.028243764090125974
1760174625.512042,-0.341872,-0.050672,0.097148,0.933337,0.00798,0.002718,0.005871,-0.0012,0.001142,0.007172,-0.028165,0.64801,-0.761111,0.02816872249940902
1760174625.540689,-0.341815,-0.050625,0.097193,0.933356,0.006677,0.001839,0.006147,-0.002251,0.001478,0.008627,-0.028057,0.647911,-0.7612,0.02806066412819804
1760174625.542593,-0.341781,-0.050548,0.097244,0.933367,0.002807,0.001739,0.006504,-0.003665,0.001558,0.008059,-0.027887,0.647846,-0.761261,0.02789060975243446
1760174625.572839,-0.341812,-0.050523,0.097303,0.933351,-0.003367,0.001597,0.006007,-0.00278,0.002629,0.007235,-0.027793,0.647893,-0.761224,0.02779658258405673
1760174625.602089,-0.341883,-0.050492,0.097338,0.933323,-0.007864,0.002843,0.004718,-0.003371,0.004244,0.005148,-0.027695,0.648004,-0.761133,0.02769854660373909
1760174625.605764,-0.341983,-0.050415,0.097355,0.933289,-0.010377,0.004341,0.001767,-0.003271,0.004873,0.004982,-0.027516,0.648153,-0.761013,0.027519470247168734
1760174625.634942,-0.342117,-0.050374,0.097346,0.933243,-0.012061,0.006767,0.000224,-0.002991,0.005867,0.004905,-0.027414,0.648364,-0.760837,0.027417430167134698
1760174625.66504,-0.342265,-0.050325,0.097315,0.933194,-0.014068,0.006751,-0.002122,-0.002617,0.007804,0.006329,-0.027311,0.648595,-0.760644,0.027314387301432323
1760174625.666421,-0.342421,-0.050288,0.097254,0.933145,-0.01437,0.005751,-0.002319,-0.002331,0.008671,0.006263,-0.027248,0.648839,-0.760438,0.027251366678224132
1760174625.695859,-0.342567,-0.050261,0.097196,0.933099,-0.013529,0.004959,-0.002244,-0.0014,0.007637,0.005301,-0.027205,0.649068,-0.760243,0.0272083732425816
1760174625.703349,-0.342692,-0.050237,0.097129,0.933062,-0.010437,0.002127,-0.003174,-0.00107,0.007971,0.007051,-0.027177,0.649265,-0.760077,0.02718033737057508
1760174625.733648,-0.342797,-0.050242,0.097084,0.933028,-0.008759,0.002297,-0.002137,-0.001666,0.009158,0.007696,-0.027194,0.649434,-0.759932,0.027197343607633335
1760174625.76307,-0.342889,-0.050237,0.097039,0.932999,-0.007345,0.001378,-0.000756,-0.000782,0.009713,0.007796,-0.027195,0.649581,-0.759806,0.027198350471031654
1760174625.763427,-0.342995,-0.050256,0.097017,0.932961,-0.005705,0.000623,5e-05,-0.000178,0.008727,0.007557,-0.027221,0.649753,-0.759658,0.027224359830582714
1760174625.829739,-0.343071,-0.050303,0.097052,0.932927,-0.005479,-0.00156,0.002312,-0.00096,0.008753,0.007321,-0.027266,0.649884,-0.759544,0.027269383144510252
1760174625.830078,-0.343147,-0.050349,0.097087,0.932893,-0.005253,-0.003743,0.004574,-0.001741,0.008779,0.007086,-0.02731,0.650015,-0.759431,0.027313385281161662
1760174625.830354,-0.343211,-0.050363,0.097147,0.932862,-0.004326,-0.002658,0.00488,-0.001409,0.007378,0.006776,-0.027279,0.650123,-0.759339,0.02728238744127945
1760174625.861229,-0.343288,-0.05038,0.097209,0.932827,-0.004024,-0.002906,0.00428,-0.00262,0.007978,0.00712,-0.02725,0.650251,-0.759231,0.027253364918310263
1760174625.863323,-0.343357,-0.050419,0.09727,0.932793,-0.003367,-0.004773,0.004173,-0.002854,0.007751,0.007732,-0.027264,0.650371,-0.759127,0.027267384728054653
1760174625.891979,-0.343424,-0.050469,0.097331,0.932759,-0.004579,-0.00354,0.003787,-0.003117,0.007701,0.005705,-0.0273,0.650488,-0.759026,0.027303386788692395
1760174625.922828,-0.343484,-0.05049,0.097353,0.932734,-0.0059,-0.002719,0.001957,-0.003413,0.007341,0.005148,-0.027309,0.650589,-0.758939,0.02731239236606654
1760174625.923769,-0.343576,-0.050536,0.09734,0.932698,-0.00692,-0.001408,-0.001276,-0.00305,0.00701,0.004979,-0.027382,0.650745,-0.758803,0.027385411618359855
1760174625.968276,-0.343665,-0.050565,0.097291,0.932669,-0.008134,0.001026,-0.001429,-0.003384,0.007026,0.004817,-0.02745,0.65089,-0.758676,0.027453440650436492
1760174625.969128,-0.343752,-0.050596,0.097254,0.932639,-0.006936,-4e-05,-0.00265,-0.003588,0.007447,0.005861,-0.027512,0.651035,-0.758549,0.02751547094915924
1760174625.999293,-0.343825,-0.050632,0.097241,0.932612,-0.003141,-1.8e-05,-0.0012,-0.003419,0.006754,0.00642,-0.027573,0.651158,-0.758441,0.027576498303702898
1760174626.00165,-0.343871,-0.050628,0.097238,0.932595,-0.000816,0.002183,0.000207,-0.003113,0.006365,0.005179,-0.027557,0.651231,-0.758379,0.027560490159342907
1760174626.031891,-0.343906,-0.050621,0.097218,0.932585,-0.00225,0.002411,0.000501,-0.003204,0.006264,0.006114,-0.027548,0.651286,-0.758332,0.027551488710290076
1760174626.061698,-0.343965,-0.050595,0.097206,0.932566,-0.007043,0.003099,-0.0008,-0.002983,0.005331,0.00662,-0.027495,0.651377,-0.758256,0.027498463609737955
1760174626.062924,-0.344056,-0.050604,0.097198,0.932533,-0.009457,0.001893,-0.00289,-0.002077,0.005841,0.007311,-0.027497,0.651523,-0.75813,0.027500474423488578
1760174626.110251,-0.344155,-0.050596,0.097152,0.932501,-0.009536,0.001013,-0.00366,-0.001554,0.006034,0.006871,-0.02749,0.651682,-0.757994,0.027493463086586185
1760174626.112269,-0.344266,-0.050629,0.097109,0.932463,-0.00917,-0.001925,-0.004589,-0.002328,0.006458,0.006502,-0.027556,0.651864,-0.757835,0.027559490005364132
1760174626.140922,-0.344382,-0.05068,0.097067,0.932422,-0.008628,-0.00096,-0.002743,-0.003265,0.008052,0.005788,-0.027655,0.652057,-0.757666,0.02765851388043134
1760174626.141546,-0.34451,-0.050704,0.097048,0.932375,-0.010702,-0.002176,0.001681,-0.002916,0.007704,0.00564,-0.027682,0.652267,-0.757483,0.02768555010347106
1760174626.172623,-0.344619,-0.05075,0.097085,0.932329,-0.009603,-0.003396,0.004004,-0.002126,0.008142,0.006417,-0.027718,0.652451,-0.757324,0.027721547189292376
1760174626.201923,-0.344713,-0.050758,0.097127,0.932289,-0.003643,0.002312,0.00557,-0.003675,0.006553,0.004232,-0.02768,0.652604,-0.757194,0.027683523179960177
1760174626.205891,-0.344778,-0.050703,0.097172,0.932263,-0.002108,0.006037,0.008368,-0.003731,0.00644,0.004103,-0.027532,0.652702,-0.757114,0.02753548604574677
1760174626.234297,-0.344856,-0.050568,0.097191,0.93224,-0.003849,0.016607,0.00724,-0.00188,0.005767,0.002029,-0.02725,0.652806,-0.757034,0.0272533911367005
1760174626.240317,-0.344924,-0.050411,0.097167,0.932226,-0.003832,0.014554,0.00252,-0.00232,0.006287,0.00672,-0.026958,0.652891,-0.756972,0.026961266277303036
1760174626.269246,-0.344995,-0.050293,0.097143,0.932208,-0.00667,0.008905,0.001007,-0.002845,0.007035,0.008333,-0.026738,0.652986,-0.756898,0.02674118401796957
1760174626.302414,-0.345088,-0.050237,0.09712,0.932179,-0.010052,0.003048,-0.000603,-0.001939,0.006986,0.008459,-0.026629,0.653126,-0.756781,0.026632146027317852
1760174626.304465,-0.345211,-0.050244,0.097069,0.932139,-0.009865,0.003164,-0.005889,-0.001752,0.007445,0.007284,-0.02665,0.653323,-0.75661,0.026653157487330704
1760174626.333003,-0.345314,-0.050272,0.096981,0.932108,-0.007839,0.003379,-0.005578,-0.000902,0.009021,0.008383,-0.026739,0.65349,-0.756462,0.026742201863466986
1760174626.363625,-0.345389,-0.050273,0.096906,0.932088,-0.004104,0.002523,-0.003386,-0.002185,0.010267,0.009369,-0.026777,0.653609,-0.756359,0.026780191952197517
1760174626.364979,-0.345453,-0.050271,0.096867,0.932069,-0.002033,0.001181,4.9e-05,-0.002267,0.011474,0.008272,-0.026787,0.65371,-0.756271,0.02679020272642766
1760174626.417296,-0.345478,-0.050243,0.096903,0.932057,-0.001986,0.000455,0.003471,-0.002084,0.010958,0.007281,-0.026703,0.653747,-0.756242,0.026706172408057963
1760174626.417578,-0.345503,-0.050214,0.09694,0.932046,-0.001939,-0.000271,0.006893,-0.001901,0.010442,0.006291,-0.026619,0.653784,-0.756213,0.026622142033238313
1760174626.423268,-0.345543,-0.050178,0.097021,0.932024,-0.001682,-0.000666,0.006849,-0.002507,0.007571,0.0047,-0.026484,0.653845,-0.756165,0.026487094403851292
1760174626.453319,-0.34559,-0.050144,0.097071,0.932004,-0.001894,-0.000723,0.00203,-0.00289,0.006357,0.004777,-0.026376,0.653917,-0.756107,0.02637904693419312
1760174626.482898,-0.345618,-0.050197,0.097092,0.931988,0.000192,-0.002297,-0.002031,-0.003455,0.005963,0.003951,-0.026452,0.653971,-0.756057,0.02645508622347177
1760174626.483234,-0.34559,-0.050275,0.097063,0.931997,0.003951,-0.005581,-0.004815,-0.004305,0.005165,0.005909,-0.026624,0.653937,-0.75608,0.02662715429159772
1760174626.513842,-0.345531,-0.050322,0.097024,0.93202,0.009101,8.4e-05,-0.005836,-0.003992,0.003356,0.003363,-0.026753,0.65385,-0.756151,0.026756193919490474
1760174626.528437,-0.345437,-0.050302,0.096948,0.932064,0.010291,0.002884,-0.006455,-0.0039,0.003825,0.004974,-0.02679,0.653693,-0.756286,0.026793195452018737
1760174626.55845,-0.345362,-0.050276,0.09686,0.932103,0.004625,0.004496,-0.004506,-0.003016,0.005816,0.007702,-0.026821,0.653565,-0.756395,0.026824217112649092
1760174626.568468,-0.345345,-0.050259,0.096804,0.932116,0.000556,-7.6e-05,-0.004449,-0.002819,0.00632,0.009267,-0.026833,0.653533,-0.756422,0.026836225959345268
1760174626.597902,-0.345375,-0.050308,0.096741,0.932108,-0.002131,-0.00256,-0.006939,-0.002388,0.008917,0.009077,-0.02696,0.653588,-0.75637,0.026963271160332047
1760174626.602459,-0.345396,-0.050393,0.096631,0.932108,-0.003004,-0.00288,-0.015201,-0.000485,0.014036,0.010258,-0.027192,0.653631,-0.756324,0.027195367304264348
1760174626.636549,-0.34544,-0.050474,0.096431,0.932108,-0.00602,-0.000468,-0.019278,0.001328,0.024651,0.010899,-0.027471,0.65371,-0.756247,0.027474443381409887
1760174626.641161,-0.345515,-0.050575,0.096268,0.932091,-0.005386,-0.001754,-0.015798,0.001805,0.035135,0.014039,-0.027757,0.65384,-0.756123,0.027760576748033877
1760174626.669689,-0.345504,-0.050665,0.096129,0.932105,0.012562,-0.005696,-0.012232,0.000717,0.042137,0.013851,-0.028024,0.653832,-0.756121,0.02802766103306459
1760174626.71147,-0.345121,-0.050751,0.096061,0.932249,0.039573,-0.007234,-0.012443,0.001146,0.051774,0.013526,-0.028319,0.653228,-0.756631,0.028322797051615976
1760174626.711821,-0.344739,-0.050836,0.095993,0.932393,0.066585,-0.008773,-0.012653,0.001576,0.06141,0.0132,-0.028613,0.652624,-0.757141,0.02861691596251584
1760174626.7488,-0.343799,-0.050923,0.095859,0.932749,0.102793,-0.011896,-0.021963,0.002678,0.070337,0.015255,-0.029085,0.651118,-0.758419,0.029089102726822705
1760174626.749129,-0.342858,-0.05101,0.095725,0.933104,0.139001,-0.015019,-0.031273,0.00378,0.079267,0.017307,-0.029556,0.64961,-0.759693,0.029560302417863414
1760174626.77883,-0.341459,-0.051146,0.095538,0.933629,0.177499,-0.019852,-0.043615,0.006426,0.086101,0.022,-0.030258,0.647364,-0.76158,0.030262622161034036
1760174626.781043,-0.339652,-0.051386,0.095288,0.9343,0.212805,-0.036675,-0.054887,0.007562,0.09403,0.030217,-0.03129,0.644467,-0.763991,0.0312951233115893
1760174626.812468,-0.337496,-0.05178,0.094976,0.935091,0.248901,-0.053366,-0.068072,0.009177,0.10037,0.032894,-0.032731,0.641014,-0.766831,0.03273684623519795
1760174626.819448,-0.334947,-0.052322,0.094573,0.936018,0.289971,-0.06054,-0.090766,0.012389,0.104306,0.032315,-0.034595,0.636928,-0.770146,0.03460192247886097
1760174626.849583,-0.331984,-0.052976,0.094026,0.937091,0.336437,-0.063128,-0.107217,0.016469,0.113939,0.031689,-0.036856,0.63216,-0.773961,0.036864344294389964
1760174626.862065,-0.328549,-0.053581,0.093344,0.938334,0.384483,-0.06271,-0.12202,0.017288,0.121235,0.032354,-0.039217,0.626581,-0.778369,0.039227058964358234
1760174626.892213,-0.324671,-0.054219,0.092553,0.939725,0.432907,-0.063483,-0.13198,0.018361,0.130838,0.034055,-0.041803,0.620239,-0.783298,0.04181519165749251
1760174626.922495,-0.320306,-0.054837,0.091734,0.941266,0.485679,-0.068718,-0.136607,0.018905,0.139909,0.036984,-0.044466,0.613048,-0.788793,0.04448067801248853
1760174626.951885,-0.315415,-0.055468,0.091003,0.94295,0.541874,-0.077217,-0.12968,0.017557,0.145483,0.036648,-0.047199,0.604937,-0.794874,0.04721651390884044
1760174626.952206,-0.30993,-0.056099,0.09036,0.944792,0.609076,-0.084284,-0.125635,0.018241,0.143962,0.036077,-0.049994,0.595777,-0.801592,0.0500148651047415
1760174627.011721,-0.302971,-0.056671,0.089866,0.947059,0.672592,-0.089163,-0.121443,0.017214,0.137804,0.03686,-0.052889,0.584048,-0.809994,0.05291369913645944
1760174627.012064,-0.295995,-0.05724,0.089367,0.949276,0.736108,-0.094042,-0.117251,0.016172,0.131773,0.037468,-0.055768,0.572192,-0.818222,0.055796919778769716
1760174627.012368,-0.289003,-0.057805,0.088863,0.951441,0.799624,-0.098921,-0.113059,0.015116,0.125866,0.0379,-0.058633,0.560211,-0.826272,0.05866665853188879
1760174627.017844,-0.281167,-0.05835,0.088549,0.953782,0.861027,-0.105833,-0.104024,0.013146,0.116209,0.036567,-0.061512,0.546678,-0.83508,0.06155088258822467
1760174627.046665,-0.272705,-0.058862,0.088372,0.95622,0.912664,-0.106303,-0.098855,0.012903,0.106891,0.03308,-0.064371,0.531936,-0.844334,0.06441555613335527
1760174627.081692,-0.263756,-0.059334,0.088285,0.958706,0.950475,-0.103441,-0.094332,0.011916,0.098197,0.030941,-0.067196,0.516207,-0.853824,0.06724665819468449
1760174627.082915,-0.254467,-0.059699,0.08823,0.961196,0.982346,-0.100843,-0.091693,0.010966,0.086192,0.031242,-0.069862,0.49972,-0.863365,0.06991895788968867
1760174627.117375,-0.244836,-0.060044,0.088192,0.963676,1.013981,-0.10427,-0.092514,0.008155,0.073457,0.033883,-0.072541,0.482475,-0.8729,0.07260481806329035
1760174627.119432,-0.234831,-0.060385,0.088132,0.966147,1.046651,-0.109662,-0.100421,0.006679,0.058428,0.035823,-0.075289,0.464406,-0.882416,0.07536033452941984
1760174627.147979,-0.224481,-0.06079,0.087994,0.968592,1.07691,-0.117509,-0.112403,0.005428,0.047771,0.03883,-0.078255,0.44556,-0.891825,0.07833511512589911
1760174627.178999,-0.213859,-0.061253,0.087819,0.970979,1.093349,-0.119477,-0.117511,0.005151,0.039471,0.038204,-0.08139,0.426064,-0.901024,0.08148016421721217
1760174627.180904,-0.203034,-0.061707,0.087574,0.973294,1.109869,-0.122692,-0.123788,0.002929,0.031605,0.037857,-0.084557,0.406031,-0.909939,0.08465808591724883
1760174627.218861,-0.19198,-0.062173,0.087273,0.975531,1.126375,-0.122913,-0.13072,0.001502,0.023819,0.039127,-0.087794,0.385418,-0.918556,0.08790717825913195
1760174627.220877,-0.180751,-0.062663,0.086884,0.977678,1.133634,-0.124071,-0.139228,0.001389,0.016174,0.039101,-0.091119,0.364321,-0.926805,0.09124556328081862
1760174627.249338,-0.169454,-0.063145,0.086428,0.979708,1.13353,-0.121784,-0.141567,0.002238,0.011501,0.038051,-0.094436,0.342947,-0.934596,0.09457690912709947
1760174627.311912,-0.158226,-0.063605,0.085861,0.981604,1.124098,-0.120605,-0.148829,0.001523,0.004806,0.037815,-0.097699,0.321553,-0.941838,0.0978550837685034
1760174627.312147,-0.146977,-0.064056,0.085282,0.983372,1.114666,-0.119427,-0.156091,0.000761,-0.001723,0.037088,-0.100913,0.299992,-0.948589,0.1010850771004765
1760174627.312245,-0.135709,-0.064499,0.084692,0.985013,1.105235,-0.118248,-0.163353,-5.1e-05,-0.008096,0.035866,-0.104078,0.278275,-0.954846,0.10426681666092491
1760174627.339793,-0.124653,-0.064919,0.083927,0.986511,1.083054,-0.107231,-0.170442,0.000994,-0.008002,0.032497,-0.107163,0.256839,-0.960495,0.1073691311135612
1760174627.339881,-0.113869,-0.065261,0.083067,0.987864,1.050388,-0.100185,-0.168595,-0.000135,-0.004803,0.031602,-0.11002,0.235817,-0.96555,0.11024312450037359
1760174627.370129,-0.10346,-0.065546,0.082258,0.989057,1.017753,-0.094363,-0.157485,-0.000964,-0.003407,0.033714,-0.112637,0.215438,-0.97,0.11287650736958299
1760174627.399456,-0.093361,-0.065823,0.081425,0.990112,0.981642,-0.093138,-0.160001,-0.000595,-0.007941,0.035325,-0.11514,0.195595,-0.973902,0.11539595154511674
1760174627.403357,-0.083636,-0.066116,0.080537,0.991033,0.941979,-0.089476,-0.161657,0.000637,-0.008317,0.036047,-0.117574,0.176422,-0.977267,0.11784663252770804
1760174627.432082,-0.074297,-0.066365,0.079614,0.991835,0.903415,-0.083918,-0.160934,0.001283,-0.009403,0.037244,-0.119816,0.157948,-0.980151,0.12010457974259472
1760174627.438063,-0.065321,-0.06657,0.078647,0.99253,0.872366,-0.079089,-0.158965,-6.5e-05,-0.008847,0.037836,-0.121872,0.140137,-0.982603,0.1221757353123209
1760174627.466631,-0.056627,-0.066783,0.077736,0.993122,0.84697,-0.080791,-0.147243,-0.002816,-0.006999,0.039346,-0.123844,0.122858,-0.984667,0.12416274514179775
1760174627.496153,-0.048211,-0.067014,0.076943,0.993612,0.822574,-0.077528,-0.132262,-0.00311,-0.00787,0.039701,-0.125752,0.106119,-0.98637,0.12608577514030342
1760174627.498338,-0.040065,-0.067233,0.076282,0.99401,0.790038,-0.07839,-0.1153,-0.004522,-0.007772,0.037043,-0.127548,0.089908,-0.987749,0.12789639041640127
1760174627.52687,-0.032327,-0.067393,0.075793,0.994318,0.742787,-0.07256,-0.088601,-0.006029,-0.009636,0.030375,-0.129119,0.074502,-0.988826,0.1294805483129978
1760174627.557451,-0.025092,-0.067625,0.075523,0.994532,0.694564,-0.072854,-0.06554,-0.009948,-0.016378,0.012966,-0.130719,0.060124,-0.989595,0.13109412726728645
1760174627.558963,-0.018347,-0.067812,0.075457,0.994671,0.653571,-0.066427,-0.040595,-0.012892,-0.024751,-0.011772,-0.132132,0.046732,-0.99013,0.13251952075245363
1760174627.611105,-0.011945,-0.067806,0.075765,0.994746,0.657308,-0.054974,-0.024516,-0.019127,-0.045456,-0.021769,-0.133089,0.034039,-0.990519,0.1334851109649097
1760174627.611371,-0.005543,-0.067797,0.07607,0.994779,0.661044,-0.043521,-0.008436,-0.025365,-0.066156,-0.031929,-0.134042,0.021342,-0.990746,0.13444664966961098
1760174627.639399,0.001169,-0.067714,0.076415,0.994773,0.704874,-0.042499,-0.016299,-0.028234,-0.084703,-0.019835,-0.134899,0.008022,-0.990827,0.13531151393061513
1760174627.641296,0.008451,-0.067623,0.076665,0.994725,0.757346,-0.053069,-0.038347,-0.026377,-0.096889,0.006687,-0.135828,-0.006443,-0.990712,0.13624908976753242
1760174627.670645,0.016256,-0.067621,0.076702,0.994626,0.796941,-0.066306,-0.058052,-0.023083,-0.098841,0.033556,-0.137009,-0.021964,-0.990326,0.13744134177612005
1760174627.678447,0.024407,-0.067753,0.076601,0.994458,0.810741,-0.081732,-0.070472,-0.018661,-0.098845,0.049481,-0.138494,-0.038164,-0.989628,0.13894055231585692
1760174627.708197,0.032598,-0.067972,0.076371,0.994226,0.800975,-0.084402,-0.079412,-0.014187,-0.096163,0.055848,-0.140138,-0.054436,-0.988634,0.14060085075044818
1760174627.738649,0.040603,-0.068186,0.076067,0.99394,0.770924,-0.084776,-0.079066,-0.009897,-0.090575,0.055828,-0.141723,-0.07034,-0.987404,0.14220178295017344
1760174627.738954,0.048219,-0.068423,0.075764,0.993606,0.724181,-0.080378,-0.075884,-0.007882,-0.086312,0.050108,-0.143278,-0.085453,-0.985986,0.14377285887905444
1760174627.756917,0.055316,-0.068537,0.075441,0.993253,0.668072,-0.060454,-0.072772,-0.004987,-0.081773,0.041141,-0.144495,-0.099544,-0.984486,0.145002561249605
1760174627.786868,0.061813,-0.068525,0.075113,0.992895,0.610936,-0.041852,-0.068066,-0.005849,-0.076676,0.032911,-0.145363,-0.112454,-0.982967,0.14587982829527493
1760174627.824954,0.067792,-0.068445,0.074876,0.992529,0.568477,-0.036069,-0.052834,-0.009129,-0.072405,0.028797,-0.146019,-0.124321,-0.981439,0.14654295155380717
1760174627.826093,0.073494,-0.068353,0.074714,0.992141,0.556,-0.040519,-0.049758,-0.009667,-0.074225,0.027964,-0.146614,-0.135619,-0.979853,0.1471444018442614
1760174627.859889,0.079143,-0.068367,0.074486,0.991723,0.556423,-0.053,-0.061322,-0.011218,-0.074913,0.027883,-0.147393,-0.146792,-0.978124,0.1479320273587608
1760174627.862015,0.084854,-0.068516,0.074103,0.991269,0.561421,-0.068406,-0.076664,-0.010855,-0.069997,0.028619,-0.148412,-0.158072,-0.976211,0.14896223581099752
1760174627.906895,0.090527,-0.068879,0.073529,0.990784,0.547535,-0.079297,-0.082114,-0.0098,-0.057078,0.029775,-0.149801,-0.169257,-0.974121,0.15036699902943568
1760174627.907169,0.096198,-0.069239,0.072953,0.990267,0.533649,-0.090187,-0.087565,-0.00877,-0.04418,0.030805,-0.151167,-0.180421,-0.971904,0.15174868861313123
1760174627.938566,0.10165,-0.069689,0.072404,0.989731,0.513314,-0.097491,-0.076693,-0.006752,-0.032554,0.031094,-0.152667,-0.191122,-0.969621,0.15326636999693152
1760174627.938843,0.106805,-0.070224,0.071892,0.989188,0.485855,-0.0935,-0.074329,-0.00744,-0.026875,0.022918,-0.154287,-0.201203,-0.967323,0.15490570054131436
1760174627.970685,0.111623,-0.070716,0.071413,0.988656,0.447959,-0.09108,-0.071562,-0.007842,-0.019656,0.019196,-0.155769,-0.210614,-0.965079,0.1564059309316307
1760174627.975297,0.115981,-0.071233,0.070936,0.988151,0.402232,-0.086057,-0.062296,-0.007643,-0.011104,0.011801,-0.157232,-0.219107,-0.962949,0.15788711649100687
1760174628.005522,0.119805,-0.071671,0.070534,0.987692,0.347709,-0.070671,-0.052034,-0.006555,-0.004608,0.001955,-0.158477,-0.226551,-0.96102,0.15914798797374638
1760174628.040584,0.123059,-0.071971,0.070211,0.987293,0.28946,-0.044825,-0.040927,-0.005908,-0.000933,-0.008353,-0.159393,-0.232883,-0.959354,0.16007570360450038
1760174628.04133,0.125718,-0.072085,0.070007,0.986964,0.238226,-0.022625,-0.030544,-0.005028,-0.000284,-0.013295,-0.159892,-0.238066,-0.957997,0.16058131534365694
1760174628.096416,0.127517,-0.071918,0.069957,0.986749,0.189483,-0.004679,-0.022082,-0.004997,-0.001513,-0.011325,-0.159772,-0.241592,-0.957134,0.16045973985106396
1760174628.09676,0.129315,-0.071752,0.069907,0.98653,0.14074,0.013267,-0.013621,-0.004967,-0.002745,-0.009368,-0.159651,-0.245115,-0.956259,0.16033702089232152
1760174628.098389,0.130557,-0.071457,0.069868,0.986391,0.105129,0.026696,-0.016421,-0.003582,-0.006457,-0.007394,-0.159213,-0.247575,-0.955697,0.15989352056628545
1760174628.12678,0.131459,-0.071084,0.069785,0.986304,0.077455,0.028982,-0.021393,-0.00192,-0.00771,-0.001557,-0.158569,-0.249396,-0.955331,0.1592411616517661
1760174628.157409,0.132105,-0.070727,0.069626,0.986255,0.056706,0.025922,-0.030061,-0.001499,-0.009513,0.002821,-0.157906,-0.250729,-0.955092,0.15856968170998806
1760174628.159507,0.132611,-0.070423,0.069347,0.986228,0.04594,0.019387,-0.039721,-0.001202,-0.009262,0.005259,-0.157298,-0.251801,-0.95491,0.157954031189722
1760174628.20943,0.133025,-0.070181,0.06889,0.986222,0.038123,0.015814,-0.047489,-0.001221,-0.007746,0.004322,-0.156756,-0.252714,-0.954758,0.1574052119544698
1760174628.20976,0.133439,-0.069939,0.068434,0.986215,0.030307,0.01224,-0.055258,-0.001241,-0.00623,0.003384,-0.156213,-0.253626,-0.954605,0.15685546201274547
1760174628.238053,0.133785,-0.06971,0.067891,0.986221,0.026937,0.013083,-0.058191,-0.000656,-0.003524,-0.000146,-0.155665,-0.254418,-0.954484,0.15630063854305667
1760174628.239984,0.134093,-0.069489,0.067365,0.986231,0.022407,0.013542,-0.055188,-5.4e-05,-0.002237,0.000937,-0.155131,-0.255131,-0.954381,0.15576001431018938
1760174628.26944,0.134355,-0.069303,0.066858,0.986243,0.018989,0.009564,-0.051477,-0.000651,-0.001993,0.001658,-0.154666,-0.255747,-0.954291,0.15528942236258386
1760174628.275513,0.13456,-0.069103,0.066361,0.986263,0.015505,0.013697,-0.049897,-0.000163,-0.001186,-0.000762,-0.154167,-0.256252,-0.954237,0.15478425591742445
1760174628.304196,0.134699,-0.068933,0.065929,0.986285,0.006147,0.012122,-0.039463,-7.1e-05,0.002451,0.001423,-0.153736,-0.256614,-0.954209,0.15434809363553043
1760174628.334883,0.134755,-0.068784,0.065617,0.986308,0.004462,0.004365,-0.026999,-0.000376,0.004296,0.005308,-0.153369,-0.256794,-0.95422,0.1539766348016443
1760174628.336895,0.134761,-0.068719,0.065392,0.986327,-0.000947,0.004243,-0.013461,-0.001583,0.00626,0.003657,-0.153182,-0.256849,-0.954235,0.1537874335012403
1760174628.366917,0.134752,-0.068653,0.065282,0.98634,-0.001029,0.005523,-0.008599,-0.000745,0.005084,0.000153,-0.153025,-0.25686,-0.954257,0.15362859428373593
1760174628.397841,0.134716,-0.068529,0.065249,0.986356,-0.006159,0.015329,0.001036,-0.001488,0.006468,-0.0036,-0.152768,-0.256813,-0.954311,0.15336851099404267
1760174628.398133,0.134598,-0.068379,0.06532,0.986378,-0.011606,0.017025,0.006613,-0.003,0.008798,-0.001936,-0.152479,-0.256597,-0.954415,0.15307613182318378
1760174628.426686,0.134401,-0.068294,0.065438,0.986403,-0.020631,0.00555,0.010788,-0.003855,0.010182,0.001787,-0.152321,-0.256209,-0.954545,0.15291618442066662
1760174628.457582,0.134109,-0.068309,0.065539,0.986435,-0.031541,0.002347,0.010965,-0.003982,0.011085,-0.001117,-0.152344,-0.255625,-0.954697,0.15293958694865406
1760174628.469292,0.133754,-0.068373,0.065672,0.98647,-0.033027,-0.003339,0.01345,-0.004379,0.011023,-0.000742,-0.152463,-0.254908,-0.95487,0.1530599491958259
1760174628.511204,0.133427,-0.068446,0.065757,0.986503,-0.03144,-0.004537,0.012568,-0.005335,0.012176,-0.000579,-0.152592,-0.254251,-0.955025,0.15319040944395712
1760174628.511495,0.1331,-0.068519,0.065842,0.986536,-0.029854,-0.005735,0.011686,-0.006292,0.013329,-0.000416,-0.152721,-0.253594,-0.955179,0.15332094682551342
1760174628.51318,0.132759,-0.068635,0.065919,0.986569,-0.028102,-0.006543,0.011598,-0.006117,0.014038,-0.002635,-0.152929,-0.252904,-0.955328,0.15353151529731426
1760174628.541971,0.132463,-0.068719,0.065991,0.986598,-0.025864,-0.00639,0.010867,-0.005995,0.013768,-0.004743,-0.153078,-0.252306,-0.955463,0.15368217939288795
1760174628.57259,0.132181,-0.068791,0.066062,0.986626,-0.02367,-0.002922,0.008803,-0.005878,0.01414,-0.004986,-0.153207,-0.251738,-0.955592,0.15381273934159548
1760174628.574611,0.131935,-0.068855,0.066131,0.98665,-0.021076,-0.004351,0.008535,-0.006273,0.01343,-0.004153,-0.153321,-0.251241,-0.955704,0.15392817763993089
1760174628.603255,0.131698,-0.068943,0.06621,0.986671,-0.018991,-0.005232,0.008656,-0.005853,0.0135,-0.002399,-0.153487,-0.250755,-0.955805,0.1540961643219506
1760174628.639107,0.131476,-0.069055,0.066315,0.986685,-0.020047,-0.008866,0.012362,-0.006074,0.01315,-0.000446,-0.153709,-0.250293,-0.955891,0.1543207433448575
1760174628.639902,0.131274,-0.069191,0.066452,0.986693,-0.012992,-0.012526,0.014835,-0.006413,0.01018,0.000294,-0.153987,-0.249859,-0.955959,0.1546022113487926
1760174628.671337,0.13111,-0.069319,0.066562,0.986699,-0.013787,-0.003831,0.011837,-0.005276,0.008309,-0.004425,-0.154248,-0.249504,-0.95601,0.154866313925229
1760174628.673468,0.130917,-0.069397,0.06669,0.98671,-0.018271,-0.00354,0.014128,-0.006015,0.008558,-0.001912,-0.154411,-0.249099,-0.956089,0.1550313347581841
1760174628.701783,0.130686,-0.069455,0.066791,0.98673,-0.020759,-0.001119,0.008904,-0.00748,0.006089,-0.003056,-0.154525,-0.248626,-0.956194,0.15514667396763668
1760174628.732565,0.130412,-0.069505,0.066848,0.986759,-0.025752,-0.001901,0.003802,-0.008678,0.007019,-0.004097,-0.154604,-0.248078,-0.956324,0.15522656801185572
1760174628.734552,0.130144,-0.069501,0.066854,0.986794,-0.025652,0.005209,-0.00175,-0.007559,0.006318,-0.002723,-0.154567,-0.247558,-0.956464,0.15518922577912836
1760174628.762946,0.129868,-0.069435,0.06681,0.986838,-0.025775,0.006546,-0.004459,-0.006862,0.005978,-0.000318,-0.154395,-0.247039,-0.956626,0.1550151293943159
1760174628.813841,0.129649,-0.069362,0.066705,0.986879,-0.021344,0.008275,-0.00834,-0.006708,0.006795,-0.000755,-0.1542,-0.246642,-0.95676,0.15481774812964988
1760174628.81412,0.129431,-0.069289,0.0666,0.98692,-0.016912,0.010004,-0.012221,-0.006553,0.007611,-0.001192,-0.154005,-0.246246,-0.956894,0.15462030131775348
1760174628.816432,0.129259,-0.069221,0.066464,0.986957,-0.015666,0.009606,-0.014385,-0.005329,0.006979,-0.001585,-0.153819,-0.245944,-0.957001,0.154432144780728
1760174628.845577,0.129108,-0.069098,0.066296,0.986996,-0.011718,0.011294,-0.015572,-0.003793,0.007896,-0.002068,-0.153518,-0.245695,-0.957113,0.15412756900655586
1760174628.876261,0.128991,-0.06898,0.066126,0.987031,-0.011969,0.008313,-0.014074,-0.003677,0.007803,-0.000813,-0.15323,-0.245514,-0.957206,0.15383606008826248
1760174628.877676,0.128868,-0.068886,0.065982,0.987063,-0.014411,0.009172,-0.013094,-0.003562,0.008249,4.9e-05,-0.152995,-0.245312,-0.957296,0.15359816353193287
1760174628.906667,0.128666,-0.068805,0.065862,0.987103,-0.018879,0.008662,-0.009455,-0.002264,0.007966,0.000533,-0.152783,-0.244949,-0.957422,0.1533837602632704
1760174628.913168,0.128438,-0.068737,0.065788,0.987143,-0.021525,0.003879,-0.001516,-0.002639,0.008137,0.001518,-0.152607,-0.244528,-0.957558,0.1532056240653899
1760174628.944291,0.128181,-0.068726,0.065765,0.987178,-0.024877,0.003249,0.000505,-0.002912,0.007235,0.000876,-0.152549,-0.244035,-0.957693,0.15314693706074892
1760174628.978136,0.127915,-0.068731,0.065757,0.987213,-0.027254,0.000468,0.003963,-0.001727,0.006533,0.000895,-0.152528,-0.24352,-0.957827,0.15312575150484872
1760174628.978972,0.127629,-0.068765,0.06578,0.987246,-0.028432,-0.001248,0.005969,-0.002715,0.006264,0.00021,-0.152567,-0.242957,-0.957964,0.15316517667004204
1760174629.009744,0.12732,-0.068829,0.065838,0.987278,-0.029241,-0.002635,0.007528,-0.00332,0.00527,-0.0,-0.152672,-0.242337,-0.958104,0.15327146633950658
1760174629.012125,0.127003,-0.068894,0.065869,0.987312,-0.029036,-0.002191,0.007053,-0.003996,0.005132,-0.001124,-0.152771,-0.241708,-0.958248,0.15337150784867548
1760174629.04322,0.126699,-0.068975,0.065916,0.987342,-0.029585,-0.003888,0.006907,-0.002844,0.005146,-0.00077,-0.152906,-0.241097,-0.95838,0.1535081694014472
1760174629.074591,0.126351,-0.069061,0.065983,0.987376,-0.03319,-0.003259,0.012153,-0.00355,0.006012,-0.001357,-0.153052,-0.240398,-0.958532,0.15365594897188198
1760174629.093982,0.126006,-0.069144,0.066105,0.987406,-0.033738,-0.004274,0.016815,-0.004777,0.006098,-0.00021,-0.153206,-0.239698,-0.958683,0.15381174071477785
1760174629.09525,0.125648,-0.06922,0.066259,0.987437,-0.035027,-0.00318,0.018951,-0.002829,0.006886,0.000943,-0.153352,-0.238966,-0.958842,0.15395954388481792
1760174629.150056,0.125263,-0.069321,0.066393,0.987469,-0.035584,-0.003475,0.015248,-0.003898,0.00629,0.000386,-0.153539,-0.238182,-0.959007,0.15414880453733953
1760174629.150287,0.124878,-0.069423,0.066528,0.987502,-0.036141,-0.00377,0.011546,-0.004966,0.005695,-0.000171,-0.153726,-0.237398,-0.959172,0.15433796550196432
1760174629.153411,0.124508,-0.069495,0.066648,0.987536,-0.035148,-0.003219,0.013563,-0.004247,0.006716,0.000258,-0.153854,-0.236649,-0.959336,0.15446758873916674
1760174629.182116,0.12414,-0.069579,0.066736,0.98757,-0.035178,-0.005008,0.012224,-0.003887,0.006968,-0.000581,-0.153997,-0.235908,-0.959496,0.1546122456688804
1760174629.212605,0.123806,-0.06966,0.066814,0.987601,-0.031379,-0.004732,0.008408,-0.00474,0.006329,-0.000938,-0.154136,-0.235233,-0.959639,0.1547529840634549
1760174629.215161,0.123478,-0.06976,0.066862,0.987631,-0.031436,-0.005294,0.004168,-0.003379,0.00664,-0.000819,-0.154307,-0.234573,-0.959773,0.15492606459130304
1760174629.253802,0.123124,-0.069833,0.066854,0.987671,-0.035819,-0.005037,0.003243,-0.004205,0.007655,-0.000521,-0.154407,-0.233875,-0.959928,0.1550271644737477
1760174629.254083,0.122712,-0.069929,0.066858,0.987715,-0.040237,-0.002868,-0.000606,-0.00322,0.007022,-0.000699,-0.154548,-0.233058,-0.960104,0.1551698771844249
1760174629.281717,0.122283,-0.070021,0.066826,0.987764,-0.042536,-0.009184,-0.000524,-0.003577,0.008091,0.001088,-0.154672,-0.232215,-0.960288,0.15529542777387223
1760174629.311586,0.121829,-0.070157,0.066785,0.987814,-0.045186,-0.008241,-0.000944,-0.004429,0.007087,-0.000954,-0.154876,-0.231317,-0.960472,0.1555018911869602
1760174629.313719,0.121379,-0.070341,0.066739,0.987859,-0.042084,-0.012397,0.002759,-0.00377,0.008065,4.5e-05,-0.155176,-0.230422,-0.960638,0.15580566733449958
1760174629.344967,0.120938,-0.070479,0.06677,0.987901,-0.04148,-0.011398,0.009689,-0.004734,0.009771,0.001085,-0.155403,-0.229538,-0.960813,0.15603544311919432
1760174629.374249,0.120523,-0.070687,0.066858,0.987931,-0.039908,-0.013686,0.016015,-0.004937,0.009707,-9.5e-05,-0.155784,-0.228684,-0.960955,0.1564211301952261
1760174629.376127,0.120159,-0.070807,0.066988,0.987958,-0.028649,-0.006381,0.014009,-0.006409,0.008589,-0.003111,-0.156007,-0.227937,-0.961097,0.1566467827087857
1760174629.448423,0.11982,-0.07076,0.0671,0.987995,-0.029529,-0.002664,0.010405,-0.006296,0.009227,-0.001794,-0.155902,-0.227266,-0.961272,0.15654062232864924
1760174629.448662,0.119481,-0.070714,0.067211,0.988032,-0.030408,0.001054,0.0068,-0.006182,0.009865,-0.000477,-0.155796,-0.226596,-0.961448,0.15643321078530134
1760174629.449059,0.119141,-0.070667,0.067323,0.988068,-0.031288,0.004772,0.003196,-0.006069,0.010503,0.000838,-0.15569,-0.225925,-0.961623,0.15632591096481357
1760174629.478451,0.118774,-0.070633,0.06732,0.988115,-0.038283,0.002759,0.000302,-0.005486,0.012082,0.000707,-0.155579,-0.225215,-0.961807,0.15621361647196041
1760174629.478731,0.118329,-0.070647,0.067303,0.988169,-0.044274,0.000384,0.002031,-0.004189,0.013196,-0.000207,-0.15555,-0.224348,-0.962015,0.15618415189200846
1760174629.506929,0.11789,-0.070719,0.067266,0.988219,-0.040262,-0.002143,0.001421,-0.004072,0.013047,4e-05,-0.155631,-0.223489,-0.962202,0.1562661235101633
1760174629.513056,0.117486,-0.070809,0.06726,0.988261,-0.036168,-0.001706,0.003707,-0.004905,0.01436,-0.001115,-0.155759,-0.222688,-0.962366,0.1563958535045125
1760174629.541756,0.117141,-0.070893,0.067312,0.988292,-0.028115,-0.004982,0.010682,-0.005715,0.015443,-0.001041,-0.155896,-0.221996,-0.962504,0.15653449987919665
1760174629.570652,0.116879,-0.070972,0.067414,0.98831,-0.018296,-0.006277,0.011696,-0.006154,0.012069,-0.002412,-0.156043,-0.221457,-0.962605,0.15668322088729195
1760174629.572492,0.116704,-0.071055,0.0675,0.988319,-0.009516,-0.007605,0.009876,-0.007686,0.012175,-0.001502,-0.156205,-0.22109,-0.962663,0.15684724504547323
1760174629.601908,0.116599,-0.071171,0.067577,0.988318,-0.004102,-0.005763,0.004604,-0.007067,0.010788,-0.001033,-0.156437,-0.220854,-0.962679,0.15708220863658734
1760174629.642707,0.116538,-0.071256,0.067635,0.988315,-0.00451,-0.005693,0.005409,-0.007102,0.010928,0.000488,-0.156611,-0.220713,-0.962683,0.15725838717751423
1760174629.642983,0.116477,-0.071341,0.067694,0.988312,-0.004917,-0.005624,0.006214,-0.007138,0.011068,0.002009,-0.156785,-0.220572,-0.962687,0.15743456269116815
1760174629.671725,0.116453,-0.071436,0.067774,0.988303,0.002601,-0.011384,0.004773,-0.008796,0.008419,0.002286,-0.156986,-0.220499,-0.962671,0.15763807785279232
1760174629.673636,0.116509,-0.071509,0.067816,0.988288,0.006101,-0.004746,0.002154,-0.007403,0.007126,-0.000447,-0.157145,-0.220589,-0.962624,0.15779914330311076
1760174629.703001,0.116572,-0.071537,0.067849,0.988276,0.005814,-0.001553,0.002262,-0.007398,0.007994,-0.001267,-0.157216,-0.220703,-0.962587,0.1578709260165713
1760174629.753952,0.116583,-0.071523,0.067847,0.988276,0.001259,0.000425,0.000313,-0.008162,0.007132,-0.001456,-0.157189,-0.220727,-0.962586,0.1578435717463816
1760174629.754245,0.116594,-0.07151,0.067845,0.988276,-0.003296,0.002403,-0.001635,-0.008926,0.006271,-0.001645,-0.157163,-0.220752,-0.962584,0.15781732302044368
1760174629.754809,0.116567,-0.071472,0.067794,0.988285,-0.001802,0.004205,-0.005975,-0.006298,0.005654,-0.000716,-0.157074,-0.220713,-0.962608,0.15772712255398527
1760174629.785025,0.116528,-0.071449,0.067703,0.988298,-0.004653,0.004644,-0.006515,-0.007077,0.006524,0.000819,-0.157005,-0.220654,-0.962633,0.1576572223915129
1760174629.815075,0.116469,-0.071423,0.067616,0.988313,-0.002962,0.001766,-0.008234,-0.006572,0.007599,0.003371,-0.156928,-0.220557,-0.962667,0.15757937593092322
1760174629.817497,0.116422,-0.071404,0.067516,0.988326,-0.002855,0.001151,-0.00661,-0.005285,0.007483,0.001045,-0.156862,-0.220484,-0.962695,0.15751246854214462
1760174629.846751,0.116364,-0.071358,0.067455,0.988341,-0.003377,0.004475,-0.00541,-0.005614,0.00932,-0.001307,-0.15675,-0.220387,-0.962735,0.15739913489998014
1760174629.877564,0.116337,-0.071297,0.067402,0.988352,-0.001719,0.002493,-0.002586,-0.005751,0.007041,-0.002287,-0.156616,-0.220354,-0.962765,0.157263361655651
1760174629.87885,0.116282,-0.071262,0.067325,0.988366,-0.003766,0.00283,-0.004431,-0.005164,0.006826,-0.000859,-0.156523,-0.220263,-0.962801,0.157169192296364
1760174629.908008,0.116222,-0.071211,0.067269,0.988381,-0.007847,0.002999,-0.00225,-0.003996,0.007535,-0.000393,-0.156404,-0.220162,-0.962843,0.15704877528718403
1760174629.91318,0.116104,-0.071211,0.067222,0.988398,-0.010397,0.002456,-0.002997,-0.003627,0.008231,0.000239,-0.15638,-0.219939,-0.962898,0.1570244552010675
1760174629.94163,0.115974,-0.071202,0.067204,0.988415,-0.013707,0.001003,0.000738,-0.002596,0.008639,-9e-06,-0.156342,-0.219691,-0.962961,0.15698594894981205
1760174629.972968,0.115803,-0.07123,0.067208,0.988433,-0.009322,0.001153,0.000264,-0.003207,0.009021,0.000853,-0.156377,-0.219353,-0.963032,0.15702144069277033
1760174629.974035,0.115709,-0.071258,0.067199,0.988442,-0.007377,-0.000228,0.001431,-0.004664,0.010105,0.001342,-0.15642,-0.219166,-0.963067,0.157065066655604
1760174630.006258,0.115598,-0.071295,0.067188,0.988453,-0.006598,-0.000657,-0.000384,-0.005387,0.010491,-0.000752,-0.156477,-0.218945,-0.963108,0.1571227784542825
1760174630.045854,0.115522,-0.071325,0.067174,0.988461,-0.005882,-0.000921,0.000697,-0.005086,0.010409,-0.000962,-0.156524,-0.218795,-0.963135,0.15717028096122312
1760174630.046131,0.115446,-0.071355,0.06716,0.988469,-0.005165,-0.001184,0.001777,-0.004784,0.010327,-0.001172,-0.156572,-0.218644,-0.963161,0.15721895475724232
1760174630.05153,0.115406,-0.071409,0.067157,0.98847,-0.002032,-0.003354,-0.000648,-0.00583,0.010117,0.000236,-0.156673,-0.218559,-0.963164,0.15732119668431377
1760174630.09206,0.115378,-0.071437,0.067144,0.988472,-0.000819,-0.002894,-0.002251,-0.005908,0.010017,-0.000492,-0.15672,-0.218502,-0.96317,0.15736867546938263
1760174630.092346,0.115384,-0.071483,0.067138,0.988468,0.002458,-0.002667,-0.001088,-0.00688,0.00975,-0.000255,-0.15681,-0.218509,-0.963153,0.15745991888764463
1760174630.12127,0.115395,-0.071565,0.067148,0.98846,0.002886,-0.002509,0.001286,-0.005528,0.009165,-0.001013,-0.156976,-0.218517,-0.963125,0.15762786949660004
1760174630.150595,0.115411,-0.071624,0.067148,0.988454,0.000652,-0.000567,0.00029,-0.006798,0.009557,-0.000372,-0.157094,-0.218538,-0.963101,0.1577473511396379
1760174630.152383,0.115415,-0.071637,0.067148,0.988453,0.001388,-0.00167,-0.000752,-0.005578,0.009707,0.000545,-0.15712,-0.218543,-0.963095,0.15777377369919346
1760174630.181787,0.115393,-0.071688,0.067148,0.988452,-0.000193,-0.001337,0.000891,-0.00557,0.008133,-0.000841,-0.157217,-0.218493,-0.963091,0.15787192006357773
1760174630.212532,0.115333,-0.071722,0.067137,0.988457,-0.001644,-0.000894,-0.001109,-0.005983,0.007352,0.000442,-0.157275,-0.218373,-0.963108,0.157930765190494
1760174630.214396,0.115301,-0.071745,0.067122,0.98846,-0.001043,-0.002241,-0.000246,-0.006415,0.006156,0.000725,-0.157312,-0.218309,-0.963117,0.15796814970542924
1760174630.244198,0.115291,-0.071772,0.06709,0.988461,0.002454,-0.002521,-0.000634,-0.006884,0.007156,0.000667,-0.157357,-0.218291,-0.963113,0.1580138290541344
1760174630.274575,0.115289,-0.071778,0.067083,0.988462,0.000531,-0.000546,-0.000137,-0.007449,0.0081,-1e-06,-0.157367,-0.218287,-0.963113,0.15802384360138794
1760174630.275155,0.11527,-0.071784,0.067026,0.988467,-0.002429,0.000734,-0.002659,-0.006511,0.009094,-2.3e-05,-0.157364,-0.218259,-0.96312,0.15802078056230826
1760174630.307575,0.115214,-0.071775,0.066989,0.988477,-0.003996,0.002468,-0.004518,-0.006653,0.008277,-2.9e-05,-0.157331,-0.218157,-0.963148,0.15798744109439744
1760174630.312929,0.115184,-0.071777,0.066926,0.988485,-0.004268,-0.001773,-0.004676,-0.006472,0.006883,0.001166,-0.157319,-0.218107,-0.963161,0.15797533333796962
1760174630.348671,0.115139,-0.071808,0.066886,0.98849,-0.003456,0.000484,-0.003628,-0.005682,0.006917,-0.002348,-0.157366,-0.218021,-0.963173,0.15802289436671738
1760174630.358279,0.115096,-0.071789,0.066866,0.988498,-0.003435,0.002158,-0.000169,-0.005969,0.008801,-0.001592,-0.157319,-0.217944,-0.963198,0.15797531748972368
1760174630.388252,0.115031,-0.071819,0.066893,0.988502,-0.003274,-0.004477,0.005363,-0.006874,0.008318,0.001808,-0.157376,-0.217808,-0.96322,0.15803295231439893
1760174630.391974,0.11498,-0.071844,0.066944,0.988502,0.000232,0.004555,0.006525,-0.00794,0.007939,-0.002609,-0.15743,-0.217697,-0.963236,0.15808767525052114
1760174630.424207,0.114978,-0.07177,0.066999,0.988504,0.004556,0.013336,-0.000824,-0.006536,0.007321,-0.004356,-0.157296,-0.217696,-0.963258,0.1579520026259515
1760174630.431909,0.115004,-0.071508,0.066987,0.988521,0.001479,0.029225,-0.000289,-0.006859,0.008564,-0.008223,-0.156781,-0.217788,-0.963322,0.1574304040853585
1760174630.461919,0.114948,-0.071192,0.067012,0.988548,-0.002615,0.030116,-0.003952,-0.007121,0.008293,-0.003978,-0.15616,-0.217722,-0.963437,0.15680177876560897
1760174630.492211,0.11485,-0.070927,0.066971,0.988582,-0.008251,0.019078,-0.008229,-0.005038,0.00927,0.001073,-0.155618,-0.217577,-0.963557,0.15625313843419603
1760174630.492552,0.114718,-0.070745,0.066888,0.988616,-0.014233,0.012654,-0.008494,-0.005265,0.010263,0.002504,-0.155226,-0.217361,-0.96367,0.15585616057646126
1760174630.531354,0.11457,-0.07067,0.066795,0.988645,-0.011121,0.004096,-0.008649,-0.006137,0.01015,0.002113,-0.15504,-0.217097,-0.963759,0.15566794915679194
1760174630.532651,0.114485,-0.070667,0.066722,0.988659,-0.003816,0.000176,-0.00303,-0.006172,0.012431,0.000814,-0.155009,-0.216943,-0.963799,0.15563651891104677
1760174630.562511,0.114485,-0.070685,0.066735,0.988657,0.005541,0.000287,0.002627,-0.005272,0.012573,-0.000414,-0.155048,-0.216938,-0.963794,0.15567597382672613
1760174630.594973,0.114578,-0.070668,0.06679,0.988644,0.015114,6.9e-05,0.007187,-0.005882,0.011093,0.001003,-0.155037,-0.217113,-0.963756,0.1556648940307994
1760174630.596785,0.114722,-0.07067,0.066865,0.988622,0.018767,-0.000578,0.0061,-0.007062,0.007623,0.001269,-0.155075,-0.217384,-0.963689,0.1557033283043542
1760174630.646612,0.11489,-0.070662,0.066927,0.988599,0.015335,0.001281,0.004677,-0.006204,0.007589,-0.00108,-0.155091,-0.217701,-0.963614,0.15571965479482427
1760174630.646864,0.115057,-0.070654,0.066989,0.988576,0.011904,0.003141,0.003253,-0.005345,0.007554,-0.003429,-0.155108,-0.218019,-0.96354,0.15573676703766082
1760174630.675621,0.115144,-0.070639,0.067056,0.988562,0.006668,-0.000916,0.001361,-0.007405,0.006499,0.002123,-0.155105,-0.218181,-0.963504,0.1557337020115199
1760174630.67665,0.115215,-0.070647,0.067093,0.988551,0.010717,-0.002147,0.000662,-0.007707,0.005685,0.001474,-0.155137,-0.218311,-0.963469,0.1557661547388591
1760174630.707379,0.1153,-0.070656,0.067066,0.988542,0.005553,0.003182,-0.004088,-0.00553,0.003601,-0.000497,-0.155158,-0.21848,-0.963427,0.15578745892622708
1760174630.70939,0.115322,-0.070589,0.067033,0.988547,-0.00023,0.005763,-0.003476,-0.006842,0.006183,-0.000115,-0.155021,-0.21854,-0.963436,0.15564869708869317
1760174630.763776,0.11525,-0.070524,0.067004,0.988562,-0.004259,0.004538,-0.002609,-0.00692,0.006749,0.000231,-0.154878,-0.218412,-0.963488,0.1555039524447748
1760174630.764103,0.115177,-0.070459,0.066975,0.988577,-0.008287,0.003314,-0.001741,-0.006998,0.007314,0.000577,-0.154736,-0.218285,-0.96354,0.15536015865394098
1760174630.768387,0.115092,-0.070429,0.066961,0.98859,-0.005597,0.004366,0.001182,-0.006083,0.007106,-0.00036,-0.154664,-0.218126,-0.963587,0.1552873667640796
1760174630.79697,0.115043,-0.070397,0.066947,0.988599,-0.000775,0.001892,0.001334,-0.005641,0.008781,0.001172,-0.154593,-0.218037,-0.963619,0.15521543241269364
1760174630.828759,0.114996,-0.070411,0.066991,0.9886,-0.000827,0.000548,0.004752,-0.005961,0.01041,0.001308,-0.154624,-0.217936,-0.963637,0.15524679066729266
1760174630.830887,0.114987,-0.070425,0.067043,0.988597,0.001222,0.000844,0.004462,-0.005887,0.008828,0.002026,-0.154661,-0.217908,-0.963637,0.15528430065393925
1760174630.863712,0.115006,-0.070411,0.067066,0.988594,0.001728,-0.000368,0.001004,-0.007016,0.006519,-0.000258,-0.154642,-0.217943,-0.963632,0.15526508950133897
1760174630.868728,0.115047,-0.0704,0.067067,0.98859,0.001812,-0.000571,0.000426,-0.00684,0.007227,-0.000638,-0.154626,-0.218025,-0.963616,0.1552488974364484
1760174630.897035,0.11505,-0.070434,0.067082,0.988586,0.001285,-0.001643,0.001469,-0.007306,0.008119,-0.001401,-0.154695,-0.218024,-0.963605,0.1553187606683546
1760174630.956657,0.115031,-0.070428,0.067101,0.988587,-0.000328,-0.000552,0.001901,-0.007147,0.008797,-0.001468,-0.154686,-0.217985,-0.963615,0.15530969145406845
1760174630.956875,0.115012,-0.070423,0.06712,0.988589,-0.001941,0.000539,0.002333,-0.006989,0.009474,-0.001535,-0.154678,-0.217945,-0.963626,0.15530149320175188
1760174630.957123,0.114952,-0.070422,0.067142,0.988594,-0.001847,0.000599,0.000106,-0.007011,0.007757,0.000305,-0.154674,-0.217826,-0.963653,0.15529752726694557
1760174630.994642,0.114921,-0.07045,0.067177,0.988594,-0.003307,-0.003813,-0.000252,-0.006918,0.008067,0.001172,-0.154733,-0.217755,-0.96366,0.15535718203749888
1760174630.995318,0.114874,-0.070498,0.067199,0.988594,-0.003697,-0.003223,0.003153,-0.007403,0.008899,0.000601,-0.154827,-0.217652,-0.963668,0.15545235447772726
1760174631.027099,0.114824,-0.07055,0.067219,0.988595,-0.001305,-0.002712,0.000478,-0.007945,0.007333,-6.8e-05,-0.154927,-0.217544,-0.963676,0.1555536234452693
1760174631.027948,0.114777,-0.070566,0.067225,0.988599,-0.002106,0.000225,0.002124,-0.008483,0.009722,-0.002747,-0.154954,-0.21745,-0.963693,0.15558093447181734
1760174631.058169,0.114709,-0.070605,0.067259,0.988602,-0.004333,0.000132,0.003266,-0.008743,0.010141,-0.001991,-0.15503,-0.217306,-0.963713,0.15565790320450218
1760174631.088759,0.114642,-0.070611,0.067284,0.988607,-0.005869,0.000522,0.000845,-0.00709,0.007775,-0.000901,-0.15504,-0.21717,-0.963743,0.15566788155914793
1760174631.090915,0.114575,-0.070612,0.067306,0.988613,-0.003979,0.00112,-0.00041,-0.008686,0.007417,-0.000424,-0.15504,-0.217035,-0.963773,0.15566794372172651
1760174631.119086,0.114511,-0.070577,0.067315,0.988623,-0.00602,-0.000515,-0.000862,-0.008314,0.007162,0.000946,-0.154964,-0.216915,-0.963812,0.15559104991920883
1760174631.151586,0.114442,-0.070597,0.067304,0.98863,-0.005757,0.000317,-0.002097,-0.007983,0.007659,0.000558,-0.154993,-0.216778,-0.963838,0.15562042877749122
1760174631.15192,0.114354,-0.070605,0.067261,0.988643,-0.004146,-9.1e-05,-0.002003,-0.00756,0.008857,0.000505,-0.154989,-0.216612,-0.963876,0.15561637432078596
1760174631.181221,0.11432,-0.070623,0.06724,0.988647,-0.000568,-1.2e-05,-0.000274,-0.008702,0.010681,0.000231,-0.155016,-0.216548,-0.963886,0.15564371048655626
1760174631.187945,0.114276,-0.070634,0.06724,0.988651,-0.001659,0.000526,-0.000306,-0.007754,0.008675,-0.00013,-0.155032,-0.21646,-0.963904,0.155659784175486
1760174631.246523,0.114241,-0.070641,0.067275,0.988652,-0.001932,0.000629,0.000959,-0.00756,0.00781,0.000549,-0.15505,-0.216385,-0.963917,0.15567814732817617
1760174631.246807,0.114206,-0.070649,0.067311,0.988653,-0.002206,0.000731,0.002224,-0.007367,0.006945,0.001229,-0.155068,-0.21631,-0.963931,0.15569635830159617
1760174631.250943,0.114162,-0.070658,0.067318,0.988657,-0.004033,7.6e-05,0.000931,-0.008055,0.006437,-0.000599,-0.155084,-0.216221,-0.963949,0.1557124624810433
1760174631.282125,0.114076,-0.070677,0.067324,0.988665,-0.009057,0.00159,-5.1e-05,-0.007346,0.006105,-0.0007,-0.155111,-0.21605,-0.963983,0.1557397926830842
1760174631.31288,0.113989,-0.07066,0.067315,0.988677,-0.011298,0.002317,-0.000449,-0.006356,0.006399,2e-05,-0.155065,-0.215883,-0.964028,0.15569320108164508
1760174631.31314,0.113838,-0.070675,0.067338,0.988692,-0.014786,0.003479,-0.001045,-0.006499,0.007159,0.003099,-0.155084,-0.215584,-0.964092,0.1557124114553936
1760174631.33994,0.113681,-0.070683,0.067319,0.988711,-0.014379,0.000785,-0.000848,-0.008423,0.005973,0.001408,-0.155077,-0.215279,-0.964161,0.1557053677164068
1760174631.345772,0.113542,-0.070699,0.067277,0.988728,-0.01131,-0.001832,-0.001478,-0.008893,0.007191,-0.000134,-0.155081,-0.215012,-0.96422,0.15570940669925562
1760174631.375782,0.113385,-0.070719,0.067297,0.988744,-0.012893,0.001065,0.005394,-0.007994,0.009589,-0.001519,-0.155106,-0.214699,-0.964285,0.15573482218294893
1760174631.405377,0.113266,-0.070743,0.067369,0.988751,-0.011962,-0.005406,0.007952,-0.007819,0.009842,0.003279,-0.155155,-0.214451,-0.964333,0.15578431687214916
1760174631.407901,0.113151,-0.070767,0.067447,0.988757,-0.000753,0.003051,0.004533,-0.009655,0.006628,-0.002489,-0.155206,-0.214211,-0.964378,0.15583596254791032
1760174631.428294,0.113166,-0.07069,0.067489,0.988758,0.004373,0.013083,-0.000689,-0.008239,0.005719,-0.002869,-0.155065,-0.214246,-0.964393,0.1556932205065029
1760174631.458053,0.113151,-0.070464,0.067533,0.988772,-0.00351,0.028691,0.000443,-0.006982,0.009147,-0.007901,-0.154628,-0.214245,-0.964463,0.15525094363075395
1760174631.487713,0.113036,-0.070193,0.067585,0.988801,-0.010557,0.023371,0.001218,-0.007437,0.009061,-0.000407,-0.154093,-0.214052,-0.964592,0.15470937392121176
1760174631.488017,0.112878,-0.070024,0.067573,0.988832,-0.018328,0.010817,-0.002931,-0.008186,0.011234,0.003313,-0.153738,-0.213772,-0.96471,0.15435020277652822
1760174631.545079,0.112637,-0.070006,0.067563,0.988862,-0.018414,0.004482,0.001144,-0.007642,0.011505,0.003272,-0.153674,-0.213305,-0.964824,0.15428536716239355
1760174631.545414,0.112395,-0.069989,0.067553,0.988891,-0.0185,-0.001853,0.00522,-0.007098,0.011776,0.003231,-0.153609,-0.212837,-0.964938,0.1542195406523443
1760174631.546886,0.11225,-0.069989,0.067593,0.988905,-0.006673,-0.001199,0.004867,-0.007489,0.011956,0.000631,-0.153599,-0.212547,-0.965003,0.15420949728809888
1760174631.580296,0.112169,-0.07004,0.067681,0.988904,-0.001783,0.000252,0.007858,-0.00782,0.011413,0.000987,-0.153709,-0.212369,-0.965025,0.15432077032973002
1760174631.609377,0.11216,-0.070069,0.067787,0.988896,0.003074,-0.002388,0.010227,-0.008643,0.00899,0.001018,-0.153788,-0.212329,-0.965021,0.1544007532898266
1760174631.612541,0.112195,-0.070113,0.067858,0.988884,0.007993,-0.004117,0.003598,-0.009324,0.00632,-0.000218,-0.153895,-0.212381,-0.964993,0.1545089671452209
1760174631.641699,0.112259,-0.070129,0.067893,0.988873,0.005922,-0.000787,0.002417,-0.009545,0.00679,-0.003573,-0.153941,-0.212497,-0.96496,0.1545555407518427
1760174631.648142,0.112286,-0.070125,0.06796,0.988866,0.000426,-0.004021,0.004221,-0.009183,0.008686,0.003098,-0.153951,-0.21254,-0.964949,0.15456565153843868
1760174631.678533,0.112283,-0.070176,0.068031,0.988858,0.001358,0.001859,0.008124,-0.010838,0.008092,0.000916,-0.154065,-0.212516,-0.964936,0.15468104170614108
1760174631.707797,0.112301,-0.070201,0.068068,0.988851,0.000115,0.000157,0.000687,-0.008871,0.006002,0.001152,-0.154125,-0.212542,-0.96492,0.1547418710956068
1760174631.708098,0.11229,-0.07013,0.068107,0.988855,-0.003286,0.013135,0.000179,-0.009368,0.004716,-0.002725,-0.153992,-0.212525,-0.964945,0.15460726087822144
1760174631.73744,0.112193,-0.070057,0.068102,0.988872,-0.01043,0.009805,-0.001983,-0.009727,0.008059,-5e-05,-0.153835,-0.212348,-0.965009,0.15444836861061556
1760174631.766712,0.112067,-0.070001,0.068079,0.988891,-0.013707,0.006414,-0.003706,-0.010456,0.006548,0.000791,-0.153705,-0.212113,-0.965082,0.15431671296517055
1760174631.76794,0.111919,-0.069926,0.068022,0.988917,-0.009987,0.006168,-0.004524,-0.00842,0.007076,0.001146,-0.153527,-0.211845,-0.965169,0.15413660410097016
1760174631.798832,0.111808,-0.069878,0.067976,0.988936,-0.005717,0.006168,-0.005271,-0.008955,0.010045,-0.000375,-0.153411,-0.211642,-0.965232,0.15401921012413433
1760174631.854303,0.111755,-0.069827,0.067988,0.988945,-0.002851,0.003859,-0.002072,-0.008737,0.010078,0.000957,-0.153307,-0.211545,-0.96527,0.15391393323528146
1760174631.854613,0.111702,-0.069776,0.067999,0.988954,1.4e-05,0.00155,0.001127,-0.008518,0.01011,0.002288,-0.153203,-0.211447,-0.965308,0.15380868753110205
1760174631.854893,0.111706,-0.069707,0.068019,0.988957,0.001207,0.002421,-0.002465,-0.008414,0.009406,0.000471,-0.153071,-0.211461,-0.965326,0.1536750931455689
1760174631.868391,0.111726,-0.069711,0.068001,0.988956,0.002997,0.001909,-0.002416,-0.007356,0.00901,-0.00078,-0.153077,-0.211503,-0.965315,0.1536812913832879
1760174631.896567,0.111727,-0.069711,0.068,0.988956,0.000401,0.001411,0.001128,-0.008144,0.00927,-0.001007,-0.153078,-0.211505,-0.965315,0.1536822140723092
1760174631.925528,0.111711,-0.069663,0.068003,0.988961,0.000238,0.00138,0.001351,-0.007031,0.009583,-0.001515,-0.152982,-0.211481,-0.965335,0.15358514112054505
1760174631.926479,0.11171,-0.06966,0.068003,0.988961,1.4e-05,8e-05,7.9e-05,-0.007358,0.00973,0.001022,-0.152976,-0.21148,-0.965337,0.15357894561173663
1760174631.956877,0.11169,-0.069651,0.068022,0.988963,-0.000609,-0.001168,0.00129,-0.006819,0.008864,0.00196,-0.15296,-0.211439,-0.965348,0.1535628322433377
1760174631.986791,0.111665,-0.069682,0.068057,0.988961,0.000475,-0.002991,0.002941,-0.008519,0.009394,0.001718,-0.153025,-0.211379,-0.965351,0.15362858242286667
1760174631.98767,0.111659,-0.069723,0.068075,0.988957,0.001146,-0.001911,0.001738,-0.009025,0.008179,0.001703,-0.153109,-0.211359,-0.965342,0.15371359305230115
1760174632.02398,0.11165,-0.069806,0.068109,0.98895,0.000566,-0.003037,0.002971,-0.009268,0.006806,0.000404,-0.153277,-0.211325,-0.965323,0.15388356725572472
1760174632.025185,0.111669,-0.069831,0.068142,0.988944,0.002897,-0.00249,0.00203,-0.008772,0.007266,-0.001608,-0.153337,-0.211352,-0.965307,0.15394436887337315
1760174632.054312,0.111646,-0.069864,0.068179,0.988942,0.000129,-0.000111,9e-05,-0.008331,0.008539,-0.001701,-0.153407,-0.211295,-0.965309,0.1540151105703375
1760174632.088792,0.111664,-0.069887,0.068213,0.988936,0.000224,0.001316,0.001312,-0.008713,0.008726,0.000907,-0.153462,-0.211322,-0.965294,0.1540708216899026
1760174632.08989,0.111644,-0.069879,0.068234,0.988937,-0.002368,-0.000554,0.001061,-0.009568,0.006218,0.001014,-0.153448,-0.211282,-0.965305,0.15405665111079084
1760174632.147457,0.111598,-0.069896,0.068263,0.988939,-0.002215,-0.000659,-0.000283,-0.008314,0.006816,0.000835,-0.153481,-0.211185,-0.965321,0.1540900436498765
1760174632.147768,0.111552,-0.069912,0.068293,0.988941,-0.002062,-0.000764,-0.001628,-0.00706,0.007413,0.000657,-0.153514,-0.211088,-0.965337,0.15412343469014844
1760174632.149559,0.111506,-0.069922,0.068296,0.988945,-0.004231,-4.5e-05,0.000662,-0.008213,0.007129,0.001159,-0.15353,-0.210996,-0.965355,0.154139561894252
1760174632.177875,0.11146,-0.069933,0.068299,0.98895,-0.003675,0.001183,-0.000584,-0.009138,0.007416,0.001024,-0.153545,-0.210904,-0.965372,0.15415484958609638
1760174632.227932,0.111426,-0.069933,0.06831,0.988953,-0.002652,0.00158,0.000224,-0.009556,0.007197,-6.4e-05,-0.153544,-0.210836,-0.965387,0.15415383945185449
1760174632.228244,0.111392,-0.069934,0.068322,0.988956,-0.001629,0.001978,0.001032,-0.009974,0.006979,-0.001152,-0.153544,-0.210768,-0.965402,0.154153816706123
1760174632.228477,0.11133,-0.069893,0.068327,0.988965,-0.001824,0.000644,-0.000279,-0.009502,0.006808,0.001632,-0.153458,-0.210652,-0.965441,0.1540667840078803
1760174632.257606,0.111284,-0.069902,0.06833,0.988969,0.000815,0.002577,-3e-06,-0.008951,0.008759,0.002369,-0.153471,-0.210559,-0.965459,0.15407997295832554
1760174632.28693,0.111245,-0.069843,0.068352,0.988976,-0.005142,0.003198,0.000423,-0.008845,0.008059,0.000378,-0.153354,-0.210489,-0.965493,0.153961549554856
1760174632.288625,0.111171,-0.069912,0.068356,0.98898,-0.005178,-0.002543,0.00073,-0.008262,0.007135,0.001162,-0.153482,-0.210333,-0.965507,0.154091031749061
1760174632.319974,0.111083,-0.069892,0.068345,0.988992,-0.007285,0.002371,-0.001217,-0.00827,0.005694,-0.001514,-0.153429,-0.210167,-0.965551,0.15403748209097012
1760174632.324651,0.111037,-0.069901,0.068347,0.988996,-0.006481,-0.005035,0.003403,-0.010154,0.008453,0.002857,-0.153443,-0.210074,-0.965569,0.15405165188414432
1760174632.353046,0.110916,-0.069982,0.068353,0.989004,-0.007417,-0.001924,0.003154,-0.009063,0.008117,0.001713,-0.153588,-0.209826,-0.9656,0.15419837187764668
1760174632.382746,0.110865,-0.070035,0.068373,0.989004,-0.002736,-0.002009,-0.00029,-0.008692,0.005825,0.001178,-0.15369,-0.209715,-0.965608,0.1543015801523943
1760174632.383977,0.110865,-0.070035,0.068373,0.989004,0.002905,0.003363,0.001671,-0.011117,0.0059,-0.002685,-0.153691,-0.209715,-0.965608,0.15430256827144972
1760174632.447375,0.110851,-0.069852,0.068407,0.989016,-0.001912,0.017365,0.002335,-0.010419,0.007487,-0.003714,-0.153336,-0.20971,-0.965666,0.15394323829060458
1760174632.449489,0.110782,-0.069602,0.068442,0.989039,-0.006781,0.019362,0.001138,-0.010022,0.008989,-5.4e-05,-0.152843,-0.209608,-0.965766,0.15344440225583972
1760174632.478031,0.110664,-0.06942,0.068458,0.989064,-0.013354,0.013712,-0.000465,-0.009365,0.009586,0.001853,-0.152473,-0.209403,-0.965869,0.15307000689872075
1760174632.483928,0.110492,-0.069333,0.068464,0.989089,-0.016595,0.007954,-0.001112,-0.00831,0.010009,0.001858,-0.152283,-0.209079,-0.965969,0.15287778570066277
1760174632.513684,0.110326,-0.069294,0.068455,0.989111,-0.014209,0.00448,-0.001494,-0.008406,0.010061,0.002124,-0.152183,-0.208763,-0.966053,0.15277662143102566
1760174632.543091,0.110199,-0.069277,0.068426,0.989128,-0.007268,0.002294,0.000631,-0.008292,0.0104,0.001913,-0.152129,-0.20852,-0.966114,0.15272198300019998
1760174632.544958,0.110145,-0.069281,0.068429,0.989134,-0.002413,-0.00073,0.001999,-0.009329,0.009834,0.00062,-0.15213,-0.208415,-0.966137,0.15272292028968765
1760174632.574414,0.110139,-0.069305,0.068465,0.98913,0.003649,-0.000511,0.003153,-0.009844,0.009553,-2.2e-05,-0.152185,-0.208394,-0.966132,0.15277869732169608
1760174632.605307,0.110182,-0.069314,0.068506,0.989122,0.007097,0.000921,0.003728,-0.009147,0.010201,-0.001294,-0.152217,-0.208469,-0.966111,0.15281104154479228
1760174632.606936,0.11024,-0.069289,0.068553,0.989114,0.007111,-1.4e-05,0.004542,-0.009668,0.009334,0.000833,-0.152184,-0.20858,-0.966092,0.15277768832050304
1760174632.643751,0.11029,-0.0693,0.06861,0.989104,0.007233,0.000221,0.005636,-0.01034,0.008676,0.00077,-0.152224,-0.208666,-0.966067,0.1528181786927332
1760174632.645783,0.110356,-0.069338,0.068652,0.989091,0.00656,-0.000889,0.001868,-0.009339,0.007537,0.000629,-0.152315,-0.208784,-0.966028,0.15291012753965438
1760174632.674414,0.110404,-0.069325,0.068673,0.989085,0.004445,0.002854,0.000231,-0.010132,0.007405,-0.000369,-0.152301,-0.208876,-0.96601,0.152896009787467
1760174632.70485,0.11041,-0.069267,0.068686,0.989087,-0.000318,0.005941,-0.001208,-0.010222,0.00687,-0.000436,-0.152189,-0.208894,-0.966024,0.152782652949641
1760174632.706404,0.110381,-0.06921,0.068669,0.989096,-0.006345,0.005725,-0.002396,-0.01078,0.007147,0.000493,-0.152071,-0.20885,-0.966052,0.15266327760166823
1760174632.756384,0.110284,-0.069165,0.068633,0.989112,-0.00715,0.004776,-0.003034,-0.010473,0.007321,0.000158,-0.151963,-0.208672,-0.966107,0.152554075772772
1760174632.756691,0.110186,-0.06912,0.068598,0.989129,-0.007954,0.003827,-0.003672,-0.010166,0.007495,-0.000177,-0.151854,-0.208494,-0.966163,0.1524437317152113
